"success","timeout","failed_images","failed_audio","failed_video","screen_id","trial_type","trial_index","time_elapsed","internal_node_id","run_id","condition","recorded_at","source_code_version","ip","user_agent","device","browser","browser_version","platform","platform_version","referer","accept_language","ppt_id","age","race","ethnicity","gender","exp_duration","rt","view_history","stimulus","response","phase","order","effect","t_high","category","d1_best","d2_best","d1_worst1","d2_worst1","d1_worst2","d2_worst2","first_dim","d1_t","d1_c","d1_d","d2_t","d2_c","d2_d","d1_name","d2_name","strategy_response","question_order"
"true","false","[]","[]","[]","img preload","preload","0","3986","0.0-0.0","158","1","2025-04-14 14:17:00","bb671e3ae32f654b8954ea4c4635f915","","Mozilla/5.0 (Windows NT 10.0; Win64; x64) AppleWebKit/537.36 (KHTML, like Gecko) Chrome/135.0.0.0 Safari/537.36","WebKit","Chrome","135.0.0.0","Windows","10.0","https://hz8g1ckzuq.cognition.run/","en-US,en;q=0.9","lmb0tk0qmwb5j6q","20","[""White""]","No","Male","1395987.8999999762","","","","","","","","","","","","","","","","","","","","","","","","","",""
"true","","","","","","fullscreen","1","23721","0.0-1.0","158","1","2025-04-14 14:17:00","bb671e3ae32f654b8954ea4c4635f915","","Mozilla/5.0 (Windows NT 10.0; Win64; x64) AppleWebKit/537.36 (KHTML, like Gecko) Chrome/135.0.0.0 Safari/537.36","WebKit","Chrome","135.0.0.0","Windows","10.0","https://hz8g1ckzuq.cognition.run/","en-US,en;q=0.9","lmb0tk0qmwb5j6q","20","[""White""]","No","Male","1395987.8999999762","17155","","","","","","","","","","","","","","","","","","","","","","","","",""
"","","","","","","instructions","2","346613","0.0-2.0","158","1","2025-04-14 14:17:00","bb671e3ae32f654b8954ea4c4635f915","","Mozilla/5.0 (Windows NT 10.0; Win64; x64) AppleWebKit/537.36 (KHTML, like Gecko) Chrome/135.0.0.0 Safari/537.36","WebKit","Chrome","135.0.0.0","Windows","10.0","https://hz8g1ckzuq.cognition.run/","en-US,en;q=0.9","lmb0tk0qmwb5j6q","20","[""White""]","No","Male","1395987.8999999762","322890","[{""page_index"":0,""viewing_time"":2771},{""page_index"":1,""viewing_time"":9759},{""page_index"":2,""viewing_time"":23755},{""page_index"":3,""viewing_time"":5565},{""page_index"":4,""viewing_time"":13088},{""page_index"":5,""viewing_time"":11562},{""page_index"":6,""viewing_time"":23093},{""page_index"":7,""viewing_time"":21709},{""page_index"":8,""viewing_time"":8404},{""page_index"":9,""viewing_time"":203184}]","","","","","","","","","","","","","","","","","","","","","","","",""
"","","","","","rating_trial_setup","html-keyboard-response","3","346919","0.0-3.0-0.0","158","1","2025-04-14 14:17:00","bb671e3ae32f654b8954ea4c4635f915","","Mozilla/5.0 (Windows NT 10.0; Win64; x64) AppleWebKit/537.36 (KHTML, like Gecko) Chrome/135.0.0.0 Safari/537.36","WebKit","Chrome","135.0.0.0","Windows","10.0","https://hz8g1ckzuq.cognition.run/","en-US,en;q=0.9","lmb0tk0qmwb5j6q","20","[""White""]","No","Male","1395987.8999999762","null","","<p></p>","null","rating","wbw","catch","null","washing machines","65","65","10","10","40","40","2","","","","","","","","","",""
"","","","","","rating_trial","survey-html-form","4","377907","0.0-3.0-1.0","158","1","2025-04-14 14:17:00","bb671e3ae32f654b8954ea4c4635f915","","Mozilla/5.0 (Windows NT 10.0; Win64; x64) AppleWebKit/537.36 (KHTML, like Gecko) Chrome/135.0.0.0 Safari/537.36","WebKit","Chrome","135.0.0.0","Windows","10.0","https://hz8g1ckzuq.cognition.run/","en-US,en;q=0.9","lmb0tk0qmwb5j6q","20","[""White""]","No","Male","1395987.8999999762","30972","","","{""price_1"":""50"",""price_2"":""75"",""price_3"":""60""}","rating","wbw","catch","null","washing machines","65","65","10","10","40","40","2","null","null","null","null","null","null","Average lifespan","Energy savings","",""
"","","","","","rating_trial_setup","html-keyboard-response","5","378211","0.0-3.0-0.1","158","1","2025-04-14 14:17:00","bb671e3ae32f654b8954ea4c4635f915","","Mozilla/5.0 (Windows NT 10.0; Win64; x64) AppleWebKit/537.36 (KHTML, like Gecko) Chrome/135.0.0.0 Safari/537.36","WebKit","Chrome","135.0.0.0","Windows","10.0","https://hz8g1ckzuq.cognition.run/","en-US,en;q=0.9","lmb0tk0qmwb5j6q","20","[""White""]","No","Male","1395987.8999999762","null","","<p></p>","null","rating","tcd","repulsion_2","2","washing machines","null","null","null","null","null","null","1","","","","","","","","","",""
"","","","","","rating_trial","survey-html-form","6","400525","0.0-3.0-1.1","158","1","2025-04-14 14:17:00","bb671e3ae32f654b8954ea4c4635f915","","Mozilla/5.0 (Windows NT 10.0; Win64; x64) AppleWebKit/537.36 (KHTML, like Gecko) Chrome/135.0.0.0 Safari/537.36","WebKit","Chrome","135.0.0.0","Windows","10.0","https://hz8g1ckzuq.cognition.run/","en-US,en;q=0.9","lmb0tk0qmwb5j6q","20","[""White""]","No","Male","1395987.8999999762","22308","","","{""price_1"":""100"",""price_2"":""80"",""price_3"":""70""}","rating","tcd","repulsion_2","2","washing machines","null","null","null","null","null","null","1","30","40","20","100","90","100","Average lifespan","Energy savings","",""
"","","","","","rating_trial_setup","html-keyboard-response","7","400827","0.0-3.0-0.2","158","1","2025-04-14 14:17:00","bb671e3ae32f654b8954ea4c4635f915","","Mozilla/5.0 (Windows NT 10.0; Win64; x64) AppleWebKit/537.36 (KHTML, like Gecko) Chrome/135.0.0.0 Safari/537.36","WebKit","Chrome","135.0.0.0","Windows","10.0","https://hz8g1ckzuq.cognition.run/","en-US,en;q=0.9","lmb0tk0qmwb5j6q","20","[""White""]","No","Male","1395987.8999999762","null","","<p></p>","null","rating","tcd","attraction_2","2","washing machines","null","null","null","null","null","null","2","","","","","","","","","",""
"","","","","","rating_trial","survey-html-form","8","422705","0.0-3.0-1.2","158","1","2025-04-14 14:17:00","bb671e3ae32f654b8954ea4c4635f915","","Mozilla/5.0 (Windows NT 10.0; Win64; x64) AppleWebKit/537.36 (KHTML, like Gecko) Chrome/135.0.0.0 Safari/537.36","WebKit","Chrome","135.0.0.0","Windows","10.0","https://hz8g1ckzuq.cognition.run/","en-US,en;q=0.9","lmb0tk0qmwb5j6q","20","[""White""]","No","Male","1395987.8999999762","21872","","","{""price_1"":""50"",""price_2"":""56"",""price_3"":""55""}","rating","tcd","attraction_2","2","washing machines","null","null","null","null","null","null","2","50","60","40","60","50","60","Average lifespan","Energy savings","",""
"","","","","","rating_trial_setup","html-keyboard-response","9","423009","0.0-3.0-0.3","158","1","2025-04-14 14:17:00","bb671e3ae32f654b8954ea4c4635f915","","Mozilla/5.0 (Windows NT 10.0; Win64; x64) AppleWebKit/537.36 (KHTML, like Gecko) Chrome/135.0.0.0 Safari/537.36","WebKit","Chrome","135.0.0.0","Windows","10.0","https://hz8g1ckzuq.cognition.run/","en-US,en;q=0.9","lmb0tk0qmwb5j6q","20","[""White""]","No","Male","1395987.8999999762","null","","<p></p>","null","rating","dct","attraction_1","2","microwave ovens","null","null","null","null","null","null","1","","","","","","","","","",""
"","","","","","rating_trial","survey-html-form","10","441561","0.0-3.0-1.3","158","1","2025-04-14 14:17:00","bb671e3ae32f654b8954ea4c4635f915","","Mozilla/5.0 (Windows NT 10.0; Win64; x64) AppleWebKit/537.36 (KHTML, like Gecko) Chrome/135.0.0.0 Safari/537.36","WebKit","Chrome","135.0.0.0","Windows","10.0","https://hz8g1ckzuq.cognition.run/","en-US,en;q=0.9","lmb0tk0qmwb5j6q","20","[""White""]","No","Male","1395987.8999999762","18546","","","{""price_1"":""70"",""price_2"":""51"",""price_3"":""60""}","rating","dct","attraction_1","2","microwave ovens","null","null","null","null","null","null","1","50","60","45","60","50","60","Warranty","Cooking power","",""
"","","","","","rating_trial_setup","html-keyboard-response","11","441864","0.0-3.0-0.4","158","1","2025-04-14 14:17:00","bb671e3ae32f654b8954ea4c4635f915","","Mozilla/5.0 (Windows NT 10.0; Win64; x64) AppleWebKit/537.36 (KHTML, like Gecko) Chrome/135.0.0.0 Safari/537.36","WebKit","Chrome","135.0.0.0","Windows","10.0","https://hz8g1ckzuq.cognition.run/","en-US,en;q=0.9","lmb0tk0qmwb5j6q","20","[""White""]","No","Male","1395987.8999999762","null","","<p></p>","null","rating","cdt","repulsion_1","2","washing machines","null","null","null","null","null","null","1","","","","","","","","","",""
"","","","","","rating_trial","survey-html-form","12","456951","0.0-3.0-1.4","158","1","2025-04-14 14:17:00","bb671e3ae32f654b8954ea4c4635f915","","Mozilla/5.0 (Windows NT 10.0; Win64; x64) AppleWebKit/537.36 (KHTML, like Gecko) Chrome/135.0.0.0 Safari/537.36","WebKit","Chrome","135.0.0.0","Windows","10.0","https://hz8g1ckzuq.cognition.run/","en-US,en;q=0.9","lmb0tk0qmwb5j6q","20","[""White""]","No","Male","1395987.8999999762","15081","","","{""price_1"":""90"",""price_2"":""75"",""price_3"":""70""}","rating","cdt","repulsion_1","2","washing machines","null","null","null","null","null","null","1","30","40","25","100","90","100","Average lifespan","Energy savings","",""
"","","","","","rating_trial_setup","html-keyboard-response","13","457255","0.0-3.0-0.5","158","1","2025-04-14 14:17:00","bb671e3ae32f654b8954ea4c4635f915","","Mozilla/5.0 (Windows NT 10.0; Win64; x64) AppleWebKit/537.36 (KHTML, like Gecko) Chrome/135.0.0.0 Safari/537.36","WebKit","Chrome","135.0.0.0","Windows","10.0","https://hz8g1ckzuq.cognition.run/","en-US,en;q=0.9","lmb0tk0qmwb5j6q","20","[""White""]","No","Male","1395987.8999999762","null","","<p></p>","null","rating","wbw","catch","null","laptops","80","95","40","30","15","10","2","","","","","","","","","",""
"","","","","","rating_trial","survey-html-form","14","477516","0.0-3.0-1.5","158","1","2025-04-14 14:17:00","bb671e3ae32f654b8954ea4c4635f915","","Mozilla/5.0 (Windows NT 10.0; Win64; x64) AppleWebKit/537.36 (KHTML, like Gecko) Chrome/135.0.0.0 Safari/537.36","WebKit","Chrome","135.0.0.0","Windows","10.0","https://hz8g1ckzuq.cognition.run/","en-US,en;q=0.9","lmb0tk0qmwb5j6q","20","[""White""]","No","Male","1395987.8999999762","20254","","","{""price_1"":""70"",""price_2"":""100"",""price_3"":""40""}","rating","wbw","catch","null","laptops","80","95","40","30","15","10","2","null","null","null","null","null","null","Processing speed","Memory (RAM)","",""
"","","","","","rating_trial_setup","html-keyboard-response","15","477819","0.0-3.0-0.6","158","1","2025-04-14 14:17:00","bb671e3ae32f654b8954ea4c4635f915","","Mozilla/5.0 (Windows NT 10.0; Win64; x64) AppleWebKit/537.36 (KHTML, like Gecko) Chrome/135.0.0.0 Safari/537.36","WebKit","Chrome","135.0.0.0","Windows","10.0","https://hz8g1ckzuq.cognition.run/","en-US,en;q=0.9","lmb0tk0qmwb5j6q","20","[""White""]","No","Male","1395987.8999999762","null","","<p></p>","null","rating","dct","attraction_2","2","televisions","null","null","null","null","null","null","1","","","","","","","","","",""
"","","","","","rating_trial","survey-html-form","16","493847","0.0-3.0-1.6","158","1","2025-04-14 14:17:00","bb671e3ae32f654b8954ea4c4635f915","","Mozilla/5.0 (Windows NT 10.0; Win64; x64) AppleWebKit/537.36 (KHTML, like Gecko) Chrome/135.0.0.0 Safari/537.36","WebKit","Chrome","135.0.0.0","Windows","10.0","https://hz8g1ckzuq.cognition.run/","en-US,en;q=0.9","lmb0tk0qmwb5j6q","20","[""White""]","No","Male","1395987.8999999762","16021","","","{""price_1"":""100"",""price_2"":""100"",""price_3"":""120""}","rating","dct","attraction_2","2","televisions","null","null","null","null","null","null","1","50","60","40","60","50","60","Screen size","Average lifespan","",""
"","","","","","rating_trial_setup","html-keyboard-response","17","494150","0.0-3.0-0.7","158","1","2025-04-14 14:17:00","bb671e3ae32f654b8954ea4c4635f915","","Mozilla/5.0 (Windows NT 10.0; Win64; x64) AppleWebKit/537.36 (KHTML, like Gecko) Chrome/135.0.0.0 Safari/537.36","WebKit","Chrome","135.0.0.0","Windows","10.0","https://hz8g1ckzuq.cognition.run/","en-US,en;q=0.9","lmb0tk0qmwb5j6q","20","[""White""]","No","Male","1395987.8999999762","null","","<p></p>","null","rating","wbw","catch","null","laptops","95","80","15","20","15","10","2","","","","","","","","","",""
"","","","","","rating_trial","survey-html-form","18","519021","0.0-3.0-1.7","158","1","2025-04-14 14:17:00","bb671e3ae32f654b8954ea4c4635f915","","Mozilla/5.0 (Windows NT 10.0; Win64; x64) AppleWebKit/537.36 (KHTML, like Gecko) Chrome/135.0.0.0 Safari/537.36","WebKit","Chrome","135.0.0.0","Windows","10.0","https://hz8g1ckzuq.cognition.run/","en-US,en;q=0.9","lmb0tk0qmwb5j6q","20","[""White""]","No","Male","1395987.8999999762","24865","","","{""price_1"":""35"",""price_2"":""170"",""price_3"":""25""}","rating","wbw","catch","null","laptops","95","80","15","20","15","10","2","null","null","null","null","null","null","Processing speed","Memory (RAM)","",""
"","","","","","rating_trial_setup","html-keyboard-response","19","519325","0.0-3.0-0.8","158","1","2025-04-14 14:17:00","bb671e3ae32f654b8954ea4c4635f915","","Mozilla/5.0 (Windows NT 10.0; Win64; x64) AppleWebKit/537.36 (KHTML, like Gecko) Chrome/135.0.0.0 Safari/537.36","WebKit","Chrome","135.0.0.0","Windows","10.0","https://hz8g1ckzuq.cognition.run/","en-US,en;q=0.9","lmb0tk0qmwb5j6q","20","[""White""]","No","Male","1395987.8999999762","null","","<p></p>","null","rating","dtc","attraction_1","1","washing machines","null","null","null","null","null","null","1","","","","","","","","","",""
"","","","","","rating_trial","survey-html-form","20","536523","0.0-3.0-1.8","158","1","2025-04-14 14:17:00","bb671e3ae32f654b8954ea4c4635f915","","Mozilla/5.0 (Windows NT 10.0; Win64; x64) AppleWebKit/537.36 (KHTML, like Gecko) Chrome/135.0.0.0 Safari/537.36","WebKit","Chrome","135.0.0.0","Windows","10.0","https://hz8g1ckzuq.cognition.run/","en-US,en;q=0.9","lmb0tk0qmwb5j6q","20","[""White""]","No","Male","1395987.8999999762","17191","","","{""price_1"":""60"",""price_2"":""60"",""price_3"":""50""}","rating","dtc","attraction_1","1","washing machines","null","null","null","null","null","null","1","60","50","60","50","60","45","Average lifespan","Energy savings","",""
"","","","","","rating_trial_setup","html-keyboard-response","21","536827","0.0-3.0-0.9","158","1","2025-04-14 14:17:00","bb671e3ae32f654b8954ea4c4635f915","","Mozilla/5.0 (Windows NT 10.0; Win64; x64) AppleWebKit/537.36 (KHTML, like Gecko) Chrome/135.0.0.0 Safari/537.36","WebKit","Chrome","135.0.0.0","Windows","10.0","https://hz8g1ckzuq.cognition.run/","en-US,en;q=0.9","lmb0tk0qmwb5j6q","20","[""White""]","No","Male","1395987.8999999762","null","","<p></p>","null","rating","wwb","catch","null","microwave ovens","90","65","40","35","40","50","1","","","","","","","","","",""
"","","","","","rating_trial","survey-html-form","22","550849","0.0-3.0-1.9","158","1","2025-04-14 14:17:00","bb671e3ae32f654b8954ea4c4635f915","","Mozilla/5.0 (Windows NT 10.0; Win64; x64) AppleWebKit/537.36 (KHTML, like Gecko) Chrome/135.0.0.0 Safari/537.36","WebKit","Chrome","135.0.0.0","Windows","10.0","https://hz8g1ckzuq.cognition.run/","en-US,en;q=0.9","lmb0tk0qmwb5j6q","20","[""White""]","No","Male","1395987.8999999762","14017","","","{""price_1"":""75"",""price_2"":""90"",""price_3"":""100""}","rating","wwb","catch","null","microwave ovens","90","65","40","35","40","50","1","null","null","null","null","null","null","Warranty","Cooking power","",""
"","","","","","rating_trial_setup","html-keyboard-response","23","551151","0.0-3.0-0.10","158","1","2025-04-14 14:17:00","bb671e3ae32f654b8954ea4c4635f915","","Mozilla/5.0 (Windows NT 10.0; Win64; x64) AppleWebKit/537.36 (KHTML, like Gecko) Chrome/135.0.0.0 Safari/537.36","WebKit","Chrome","135.0.0.0","Windows","10.0","https://hz8g1ckzuq.cognition.run/","en-US,en;q=0.9","lmb0tk0qmwb5j6q","20","[""White""]","No","Male","1395987.8999999762","null","","<p></p>","null","rating","wwb","catch","null","microwave ovens","85","80","15","40","45","45","2","","","","","","","","","",""
"","","","","","rating_trial","survey-html-form","24","566640","0.0-3.0-1.10","158","1","2025-04-14 14:17:00","bb671e3ae32f654b8954ea4c4635f915","","Mozilla/5.0 (Windows NT 10.0; Win64; x64) AppleWebKit/537.36 (KHTML, like Gecko) Chrome/135.0.0.0 Safari/537.36","WebKit","Chrome","135.0.0.0","Windows","10.0","https://hz8g1ckzuq.cognition.run/","en-US,en;q=0.9","lmb0tk0qmwb5j6q","20","[""White""]","No","Male","1395987.8999999762","15482","","","{""price_1"":""65"",""price_2"":""90"",""price_3"":""80""}","rating","wwb","catch","null","microwave ovens","85","80","15","40","45","45","2","null","null","null","null","null","null","Warranty","Cooking power","",""
"","","","","","rating_trial_setup","html-keyboard-response","25","566943","0.0-3.0-0.11","158","1","2025-04-14 14:17:00","bb671e3ae32f654b8954ea4c4635f915","","Mozilla/5.0 (Windows NT 10.0; Win64; x64) AppleWebKit/537.36 (KHTML, like Gecko) Chrome/135.0.0.0 Safari/537.36","WebKit","Chrome","135.0.0.0","Windows","10.0","https://hz8g1ckzuq.cognition.run/","en-US,en;q=0.9","lmb0tk0qmwb5j6q","20","[""White""]","No","Male","1395987.8999999762","null","","<p></p>","null","rating","cdt","repulsion_1","1","microwave ovens","null","null","null","null","null","null","2","","","","","","","","","",""
"","","","","","rating_trial","survey-html-form","26","581157","0.0-3.0-1.11","158","1","2025-04-14 14:17:00","bb671e3ae32f654b8954ea4c4635f915","","Mozilla/5.0 (Windows NT 10.0; Win64; x64) AppleWebKit/537.36 (KHTML, like Gecko) Chrome/135.0.0.0 Safari/537.36","WebKit","Chrome","135.0.0.0","Windows","10.0","https://hz8g1ckzuq.cognition.run/","en-US,en;q=0.9","lmb0tk0qmwb5j6q","20","[""White""]","No","Male","1395987.8999999762","14206","","","{""price_1"":""90"",""price_2"":""150"",""price_3"":""150""}","rating","cdt","repulsion_1","1","microwave ovens","null","null","null","null","null","null","2","100","90","100","30","40","25","Warranty","Cooking power","",""
"","","","","","rating_trial_setup","html-keyboard-response","27","581461","0.0-3.0-0.12","158","1","2025-04-14 14:17:00","bb671e3ae32f654b8954ea4c4635f915","","Mozilla/5.0 (Windows NT 10.0; Win64; x64) AppleWebKit/537.36 (KHTML, like Gecko) Chrome/135.0.0.0 Safari/537.36","WebKit","Chrome","135.0.0.0","Windows","10.0","https://hz8g1ckzuq.cognition.run/","en-US,en;q=0.9","lmb0tk0qmwb5j6q","20","[""White""]","No","Male","1395987.8999999762","null","","<p></p>","null","rating","wbw","catch","null","televisions","65","70","45","5","50","40","2","","","","","","","","","",""
"","","","","","rating_trial","survey-html-form","28","603067","0.0-3.0-1.12","158","1","2025-04-14 14:17:00","bb671e3ae32f654b8954ea4c4635f915","","Mozilla/5.0 (Windows NT 10.0; Win64; x64) AppleWebKit/537.36 (KHTML, like Gecko) Chrome/135.0.0.0 Safari/537.36","WebKit","Chrome","135.0.0.0","Windows","10.0","https://hz8g1ckzuq.cognition.run/","en-US,en;q=0.9","lmb0tk0qmwb5j6q","20","[""White""]","No","Male","1395987.8999999762","21598","","","{""price_1"":""50"",""price_2"":""70"",""price_3"":""50""}","rating","wbw","catch","null","televisions","65","70","45","5","50","40","2","null","null","null","null","null","null","Screen size","Average lifespan","",""
"","","","","","rating_trial_setup","html-keyboard-response","29","603369","0.0-3.0-0.13","158","1","2025-04-14 14:17:00","bb671e3ae32f654b8954ea4c4635f915","","Mozilla/5.0 (Windows NT 10.0; Win64; x64) AppleWebKit/537.36 (KHTML, like Gecko) Chrome/135.0.0.0 Safari/537.36","WebKit","Chrome","135.0.0.0","Windows","10.0","https://hz8g1ckzuq.cognition.run/","en-US,en;q=0.9","lmb0tk0qmwb5j6q","20","[""White""]","No","Male","1395987.8999999762","null","","<p></p>","null","rating","cdt","repulsion_1","2","televisions","null","null","null","null","null","null","1","","","","","","","","","",""
"","","","","","rating_trial","survey-html-form","30","618282","0.0-3.0-1.13","158","1","2025-04-14 14:17:00","bb671e3ae32f654b8954ea4c4635f915","","Mozilla/5.0 (Windows NT 10.0; Win64; x64) AppleWebKit/537.36 (KHTML, like Gecko) Chrome/135.0.0.0 Safari/537.36","WebKit","Chrome","135.0.0.0","Windows","10.0","https://hz8g1ckzuq.cognition.run/","en-US,en;q=0.9","lmb0tk0qmwb5j6q","20","[""White""]","No","Male","1395987.8999999762","14906","","","{""price_1"":""90"",""price_2"":""75"",""price_3"":""70""}","rating","cdt","repulsion_1","2","televisions","null","null","null","null","null","null","1","30","40","25","100","90","100","Screen size","Average lifespan","",""
"","","","","","rating_trial_setup","html-keyboard-response","31","618585","0.0-3.0-0.14","158","1","2025-04-14 14:17:00","bb671e3ae32f654b8954ea4c4635f915","","Mozilla/5.0 (Windows NT 10.0; Win64; x64) AppleWebKit/537.36 (KHTML, like Gecko) Chrome/135.0.0.0 Safari/537.36","WebKit","Chrome","135.0.0.0","Windows","10.0","https://hz8g1ckzuq.cognition.run/","en-US,en;q=0.9","lmb0tk0qmwb5j6q","20","[""White""]","No","Male","1395987.8999999762","null","","<p></p>","null","rating","ctd","attraction_2","1","microwave ovens","null","null","null","null","null","null","2","","","","","","","","","",""
"","","","","","rating_trial","survey-html-form","32","628789","0.0-3.0-1.14","158","1","2025-04-14 14:17:00","bb671e3ae32f654b8954ea4c4635f915","","Mozilla/5.0 (Windows NT 10.0; Win64; x64) AppleWebKit/537.36 (KHTML, like Gecko) Chrome/135.0.0.0 Safari/537.36","WebKit","Chrome","135.0.0.0","Windows","10.0","https://hz8g1ckzuq.cognition.run/","en-US,en;q=0.9","lmb0tk0qmwb5j6q","20","[""White""]","No","Male","1395987.8999999762","10195","","","{""price_1"":""50"",""price_2"":""60"",""price_3"":""60""}","rating","ctd","attraction_2","1","microwave ovens","null","null","null","null","null","null","2","60","50","60","50","60","40","Warranty","Cooking power","",""
"","","","","","rating_trial_setup","html-keyboard-response","33","629094","0.0-3.0-0.15","158","1","2025-04-14 14:17:00","bb671e3ae32f654b8954ea4c4635f915","","Mozilla/5.0 (Windows NT 10.0; Win64; x64) AppleWebKit/537.36 (KHTML, like Gecko) Chrome/135.0.0.0 Safari/537.36","WebKit","Chrome","135.0.0.0","Windows","10.0","https://hz8g1ckzuq.cognition.run/","en-US,en;q=0.9","lmb0tk0qmwb5j6q","20","[""White""]","No","Male","1395987.8999999762","null","","<p></p>","null","rating","tdc","repulsion_2","1","laptops","null","null","null","null","null","null","1","","","","","","","","","",""
"","","","","","rating_trial","survey-html-form","34","645309","0.0-3.0-1.15","158","1","2025-04-14 14:17:00","bb671e3ae32f654b8954ea4c4635f915","","Mozilla/5.0 (Windows NT 10.0; Win64; x64) AppleWebKit/537.36 (KHTML, like Gecko) Chrome/135.0.0.0 Safari/537.36","WebKit","Chrome","135.0.0.0","Windows","10.0","https://hz8g1ckzuq.cognition.run/","en-US,en;q=0.9","lmb0tk0qmwb5j6q","20","[""White""]","No","Male","1395987.8999999762","16207","","","{""price_1"":""70"",""price_2"":""80"",""price_3"":""50""}","rating","tdc","repulsion_2","1","laptops","null","null","null","null","null","null","1","100","90","100","30","40","20","Processing speed","Memory (RAM)","",""
"","","","","","rating_trial_setup","html-keyboard-response","35","645613","0.0-3.0-0.16","158","1","2025-04-14 14:17:00","bb671e3ae32f654b8954ea4c4635f915","","Mozilla/5.0 (Windows NT 10.0; Win64; x64) AppleWebKit/537.36 (KHTML, like Gecko) Chrome/135.0.0.0 Safari/537.36","WebKit","Chrome","135.0.0.0","Windows","10.0","https://hz8g1ckzuq.cognition.run/","en-US,en;q=0.9","lmb0tk0qmwb5j6q","20","[""White""]","No","Male","1395987.8999999762","null","","<p></p>","null","rating","bww","catch","null","washing machines","50","55","40","10","20","50","1","","","","","","","","","",""
"","","","","","rating_trial","survey-html-form","36","671145","0.0-3.0-1.16","158","1","2025-04-14 14:17:00","bb671e3ae32f654b8954ea4c4635f915","","Mozilla/5.0 (Windows NT 10.0; Win64; x64) AppleWebKit/537.36 (KHTML, like Gecko) Chrome/135.0.0.0 Safari/537.36","WebKit","Chrome","135.0.0.0","Windows","10.0","https://hz8g1ckzuq.cognition.run/","en-US,en;q=0.9","lmb0tk0qmwb5j6q","20","[""White""]","No","Male","1395987.8999999762","25528","","","{""price_1"":""60"",""price_2"":""50"",""price_3"":""40""}","rating","bww","catch","null","washing machines","50","55","40","10","20","50","1","null","null","null","null","null","null","Average lifespan","Energy savings","",""
"","","","","","rating_trial_setup","html-keyboard-response","37","671449","0.0-3.0-0.17","158","1","2025-04-14 14:17:00","bb671e3ae32f654b8954ea4c4635f915","","Mozilla/5.0 (Windows NT 10.0; Win64; x64) AppleWebKit/537.36 (KHTML, like Gecko) Chrome/135.0.0.0 Safari/537.36","WebKit","Chrome","135.0.0.0","Windows","10.0","https://hz8g1ckzuq.cognition.run/","en-US,en;q=0.9","lmb0tk0qmwb5j6q","20","[""White""]","No","Male","1395987.8999999762","null","","<p></p>","null","rating","tdc","repulsion_2","2","televisions","null","null","null","null","null","null","2","","","","","","","","","",""
"","","","","","rating_trial","survey-html-form","38","687377","0.0-3.0-1.17","158","1","2025-04-14 14:17:00","bb671e3ae32f654b8954ea4c4635f915","","Mozilla/5.0 (Windows NT 10.0; Win64; x64) AppleWebKit/537.36 (KHTML, like Gecko) Chrome/135.0.0.0 Safari/537.36","WebKit","Chrome","135.0.0.0","Windows","10.0","https://hz8g1ckzuq.cognition.run/","en-US,en;q=0.9","lmb0tk0qmwb5j6q","20","[""White""]","No","Male","1395987.8999999762","15918","","","{""price_1"":""70"",""price_2"":""80"",""price_3"":""50""}","rating","tdc","repulsion_2","2","televisions","null","null","null","null","null","null","2","30","40","20","100","90","100","Screen size","Average lifespan","",""
"","","","","","rating_trial_setup","html-keyboard-response","39","687681","0.0-3.0-0.18","158","1","2025-04-14 14:17:00","bb671e3ae32f654b8954ea4c4635f915","","Mozilla/5.0 (Windows NT 10.0; Win64; x64) AppleWebKit/537.36 (KHTML, like Gecko) Chrome/135.0.0.0 Safari/537.36","WebKit","Chrome","135.0.0.0","Windows","10.0","https://hz8g1ckzuq.cognition.run/","en-US,en;q=0.9","lmb0tk0qmwb5j6q","20","[""White""]","No","Male","1395987.8999999762","null","","<p></p>","null","rating","dct","repulsion_2","1","televisions","null","null","null","null","null","null","1","","","","","","","","","",""
"","","","","","rating_trial","survey-html-form","40","700423","0.0-3.0-1.18","158","1","2025-04-14 14:17:00","bb671e3ae32f654b8954ea4c4635f915","","Mozilla/5.0 (Windows NT 10.0; Win64; x64) AppleWebKit/537.36 (KHTML, like Gecko) Chrome/135.0.0.0 Safari/537.36","WebKit","Chrome","135.0.0.0","Windows","10.0","https://hz8g1ckzuq.cognition.run/","en-US,en;q=0.9","lmb0tk0qmwb5j6q","20","[""White""]","No","Male","1395987.8999999762","12734","","","{""price_1"":""80"",""price_2"":""50"",""price_3"":""70""}","rating","dct","repulsion_2","1","televisions","null","null","null","null","null","null","1","100","90","100","30","40","20","Screen size","Average lifespan","",""
"","","","","","rating_trial_setup","html-keyboard-response","41","700727","0.0-3.0-0.19","158","1","2025-04-14 14:17:00","bb671e3ae32f654b8954ea4c4635f915","","Mozilla/5.0 (Windows NT 10.0; Win64; x64) AppleWebKit/537.36 (KHTML, like Gecko) Chrome/135.0.0.0 Safari/537.36","WebKit","Chrome","135.0.0.0","Windows","10.0","https://hz8g1ckzuq.cognition.run/","en-US,en;q=0.9","lmb0tk0qmwb5j6q","20","[""White""]","No","Male","1395987.8999999762","null","","<p></p>","null","rating","dtc","repulsion_1","2","laptops","null","null","null","null","null","null","1","","","","","","","","","",""
"","","","","","rating_trial","survey-html-form","42","713991","0.0-3.0-1.19","158","1","2025-04-14 14:17:00","bb671e3ae32f654b8954ea4c4635f915","","Mozilla/5.0 (Windows NT 10.0; Win64; x64) AppleWebKit/537.36 (KHTML, like Gecko) Chrome/135.0.0.0 Safari/537.36","WebKit","Chrome","135.0.0.0","Windows","10.0","https://hz8g1ckzuq.cognition.run/","en-US,en;q=0.9","lmb0tk0qmwb5j6q","20","[""White""]","No","Male","1395987.8999999762","13254","","","{""price_1"":""75"",""price_2"":""70"",""price_3"":""50""}","rating","dtc","repulsion_1","2","laptops","null","null","null","null","null","null","1","30","40","25","100","90","100","Processing speed","Memory (RAM)","",""
"","","","","","rating_trial_setup","html-keyboard-response","43","714296","0.0-3.0-0.20","158","1","2025-04-14 14:17:00","bb671e3ae32f654b8954ea4c4635f915","","Mozilla/5.0 (Windows NT 10.0; Win64; x64) AppleWebKit/537.36 (KHTML, like Gecko) Chrome/135.0.0.0 Safari/537.36","WebKit","Chrome","135.0.0.0","Windows","10.0","https://hz8g1ckzuq.cognition.run/","en-US,en;q=0.9","lmb0tk0qmwb5j6q","20","[""White""]","No","Male","1395987.8999999762","null","","<p></p>","null","rating","ctd","attraction_2","1","televisions","null","null","null","null","null","null","1","","","","","","","","","",""
"","","","","","rating_trial","survey-html-form","44","724524","0.0-3.0-1.20","158","1","2025-04-14 14:17:00","bb671e3ae32f654b8954ea4c4635f915","","Mozilla/5.0 (Windows NT 10.0; Win64; x64) AppleWebKit/537.36 (KHTML, like Gecko) Chrome/135.0.0.0 Safari/537.36","WebKit","Chrome","135.0.0.0","Windows","10.0","https://hz8g1ckzuq.cognition.run/","en-US,en;q=0.9","lmb0tk0qmwb5j6q","20","[""White""]","No","Male","1395987.8999999762","10217","","","{""price_1"":""60"",""price_2"":""50"",""price_3"":""60""}","rating","ctd","attraction_2","1","televisions","null","null","null","null","null","null","1","60","50","60","50","60","40","Screen size","Average lifespan","",""
"","","","","","rating_trial_setup","html-keyboard-response","45","724828","0.0-3.0-0.21","158","1","2025-04-14 14:17:00","bb671e3ae32f654b8954ea4c4635f915","","Mozilla/5.0 (Windows NT 10.0; Win64; x64) AppleWebKit/537.36 (KHTML, like Gecko) Chrome/135.0.0.0 Safari/537.36","WebKit","Chrome","135.0.0.0","Windows","10.0","https://hz8g1ckzuq.cognition.run/","en-US,en;q=0.9","lmb0tk0qmwb5j6q","20","[""White""]","No","Male","1395987.8999999762","null","","<p></p>","null","rating","dct","attraction_2","1","washing machines","null","null","null","null","null","null","2","","","","","","","","","",""
"","","","","","rating_trial","survey-html-form","46","739595","0.0-3.0-1.21","158","1","2025-04-14 14:17:00","bb671e3ae32f654b8954ea4c4635f915","","Mozilla/5.0 (Windows NT 10.0; Win64; x64) AppleWebKit/537.36 (KHTML, like Gecko) Chrome/135.0.0.0 Safari/537.36","WebKit","Chrome","135.0.0.0","Windows","10.0","https://hz8g1ckzuq.cognition.run/","en-US,en;q=0.9","lmb0tk0qmwb5j6q","20","[""White""]","No","Male","1395987.8999999762","14758","","","{""price_1"":""60"",""price_2"":""50"",""price_3"":""60""}","rating","dct","attraction_2","1","washing machines","null","null","null","null","null","null","2","60","50","60","50","60","40","Average lifespan","Energy savings","",""
"","","","","","rating_trial_setup","html-keyboard-response","47","739899","0.0-3.0-0.22","158","1","2025-04-14 14:17:00","bb671e3ae32f654b8954ea4c4635f915","","Mozilla/5.0 (Windows NT 10.0; Win64; x64) AppleWebKit/537.36 (KHTML, like Gecko) Chrome/135.0.0.0 Safari/537.36","WebKit","Chrome","135.0.0.0","Windows","10.0","https://hz8g1ckzuq.cognition.run/","en-US,en;q=0.9","lmb0tk0qmwb5j6q","20","[""White""]","No","Male","1395987.8999999762","null","","<p></p>","null","rating","dtc","attraction_1","2","washing machines","null","null","null","null","null","null","1","","","","","","","","","",""
"","","","","","rating_trial","survey-html-form","48","755300","0.0-3.0-1.22","158","1","2025-04-14 14:17:00","bb671e3ae32f654b8954ea4c4635f915","","Mozilla/5.0 (Windows NT 10.0; Win64; x64) AppleWebKit/537.36 (KHTML, like Gecko) Chrome/135.0.0.0 Safari/537.36","WebKit","Chrome","135.0.0.0","Windows","10.0","https://hz8g1ckzuq.cognition.run/","en-US,en;q=0.9","lmb0tk0qmwb5j6q","20","[""White""]","No","Male","1395987.8999999762","15390","","","{""price_1"":""40"",""price_2"":""50"",""price_3"":""55""}","rating","dtc","attraction_1","2","washing machines","null","null","null","null","null","null","1","50","60","45","60","50","60","Average lifespan","Energy savings","",""
"","","","","","rating_trial_setup","html-keyboard-response","49","755605","0.0-3.0-0.23","158","1","2025-04-14 14:17:00","bb671e3ae32f654b8954ea4c4635f915","","Mozilla/5.0 (Windows NT 10.0; Win64; x64) AppleWebKit/537.36 (KHTML, like Gecko) Chrome/135.0.0.0 Safari/537.36","WebKit","Chrome","135.0.0.0","Windows","10.0","https://hz8g1ckzuq.cognition.run/","en-US,en;q=0.9","lmb0tk0qmwb5j6q","20","[""White""]","No","Male","1395987.8999999762","null","","<p></p>","null","rating","tcd","repulsion_1","2","microwave ovens","null","null","null","null","null","null","2","","","","","","","","","",""
"","","","","","rating_trial","survey-html-form","50","766278","0.0-3.0-1.23","158","1","2025-04-14 14:17:00","bb671e3ae32f654b8954ea4c4635f915","","Mozilla/5.0 (Windows NT 10.0; Win64; x64) AppleWebKit/537.36 (KHTML, like Gecko) Chrome/135.0.0.0 Safari/537.36","WebKit","Chrome","135.0.0.0","Windows","10.0","https://hz8g1ckzuq.cognition.run/","en-US,en;q=0.9","lmb0tk0qmwb5j6q","20","[""White""]","No","Male","1395987.8999999762","10662","","","{""price_1"":""70"",""price_2"":""50"",""price_3"":""75""}","rating","tcd","repulsion_1","2","microwave ovens","null","null","null","null","null","null","2","30","40","25","100","90","100","Warranty","Cooking power","",""
"","","","","","rating_trial_setup","html-keyboard-response","51","766583","0.0-3.0-0.24","158","1","2025-04-14 14:17:00","bb671e3ae32f654b8954ea4c4635f915","","Mozilla/5.0 (Windows NT 10.0; Win64; x64) AppleWebKit/537.36 (KHTML, like Gecko) Chrome/135.0.0.0 Safari/537.36","WebKit","Chrome","135.0.0.0","Windows","10.0","https://hz8g1ckzuq.cognition.run/","en-US,en;q=0.9","lmb0tk0qmwb5j6q","20","[""White""]","No","Male","1395987.8999999762","null","","<p></p>","null","rating","dtc","attraction_1","1","televisions","null","null","null","null","null","null","1","","","","","","","","","",""
"","","","","","rating_trial","survey-html-form","52","779820","0.0-3.0-1.24","158","1","2025-04-14 14:17:00","bb671e3ae32f654b8954ea4c4635f915","","Mozilla/5.0 (Windows NT 10.0; Win64; x64) AppleWebKit/537.36 (KHTML, like Gecko) Chrome/135.0.0.0 Safari/537.36","WebKit","Chrome","135.0.0.0","Windows","10.0","https://hz8g1ckzuq.cognition.run/","en-US,en;q=0.9","lmb0tk0qmwb5j6q","20","[""White""]","No","Male","1395987.8999999762","13227","","","{""price_1"":""55"",""price_2"":""60"",""price_3"":""60""}","rating","dtc","attraction_1","1","televisions","null","null","null","null","null","null","1","60","50","60","50","60","45","Screen size","Average lifespan","",""
"","","","","","rating_trial_setup","html-keyboard-response","53","780125","0.0-3.0-0.25","158","1","2025-04-14 14:17:00","bb671e3ae32f654b8954ea4c4635f915","","Mozilla/5.0 (Windows NT 10.0; Win64; x64) AppleWebKit/537.36 (KHTML, like Gecko) Chrome/135.0.0.0 Safari/537.36","WebKit","Chrome","135.0.0.0","Windows","10.0","https://hz8g1ckzuq.cognition.run/","en-US,en;q=0.9","lmb0tk0qmwb5j6q","20","[""White""]","No","Male","1395987.8999999762","null","","<p></p>","null","rating","ctd","repulsion_1","1","laptops","null","null","null","null","null","null","2","","","","","","","","","",""
"","","","","","rating_trial","survey-html-form","54","792508","0.0-3.0-1.25","158","1","2025-04-14 14:17:00","bb671e3ae32f654b8954ea4c4635f915","","Mozilla/5.0 (Windows NT 10.0; Win64; x64) AppleWebKit/537.36 (KHTML, like Gecko) Chrome/135.0.0.0 Safari/537.36","WebKit","Chrome","135.0.0.0","Windows","10.0","https://hz8g1ckzuq.cognition.run/","en-US,en;q=0.9","lmb0tk0qmwb5j6q","20","[""White""]","No","Male","1395987.8999999762","12374","","","{""price_1"":""50"",""price_2"":""70"",""price_3"":""75""}","rating","ctd","repulsion_1","1","laptops","null","null","null","null","null","null","2","100","90","100","30","40","25","Processing speed","Memory (RAM)","",""
"","","","","","rating_trial_setup","html-keyboard-response","55","792813","0.0-3.0-0.26","158","1","2025-04-14 14:17:00","bb671e3ae32f654b8954ea4c4635f915","","Mozilla/5.0 (Windows NT 10.0; Win64; x64) AppleWebKit/537.36 (KHTML, like Gecko) Chrome/135.0.0.0 Safari/537.36","WebKit","Chrome","135.0.0.0","Windows","10.0","https://hz8g1ckzuq.cognition.run/","en-US,en;q=0.9","lmb0tk0qmwb5j6q","20","[""White""]","No","Male","1395987.8999999762","null","","<p></p>","null","rating","tcd","attraction_1","1","laptops","null","null","null","null","null","null","1","","","","","","","","","",""
"","","","","","rating_trial","survey-html-form","56","807767","0.0-3.0-1.26","158","1","2025-04-14 14:17:00","bb671e3ae32f654b8954ea4c4635f915","","Mozilla/5.0 (Windows NT 10.0; Win64; x64) AppleWebKit/537.36 (KHTML, like Gecko) Chrome/135.0.0.0 Safari/537.36","WebKit","Chrome","135.0.0.0","Windows","10.0","https://hz8g1ckzuq.cognition.run/","en-US,en;q=0.9","lmb0tk0qmwb5j6q","20","[""White""]","No","Male","1395987.8999999762","14945","","","{""price_1"":""60"",""price_2"":""60"",""price_3"":""60""}","rating","tcd","attraction_1","1","laptops","null","null","null","null","null","null","1","60","50","60","50","60","45","Processing speed","Memory (RAM)","",""
"","","","","","rating_trial_setup","html-keyboard-response","57","808071","0.0-3.0-0.27","158","1","2025-04-14 14:17:00","bb671e3ae32f654b8954ea4c4635f915","","Mozilla/5.0 (Windows NT 10.0; Win64; x64) AppleWebKit/537.36 (KHTML, like Gecko) Chrome/135.0.0.0 Safari/537.36","WebKit","Chrome","135.0.0.0","Windows","10.0","https://hz8g1ckzuq.cognition.run/","en-US,en;q=0.9","lmb0tk0qmwb5j6q","20","[""White""]","No","Male","1395987.8999999762","null","","<p></p>","null","rating","dtc","repulsion_2","1","washing machines","null","null","null","null","null","null","2","","","","","","","","","",""
"","","","","","rating_trial","survey-html-form","58","853466","0.0-3.0-1.27","158","1","2025-04-14 14:17:00","bb671e3ae32f654b8954ea4c4635f915","","Mozilla/5.0 (Windows NT 10.0; Win64; x64) AppleWebKit/537.36 (KHTML, like Gecko) Chrome/135.0.0.0 Safari/537.36","WebKit","Chrome","135.0.0.0","Windows","10.0","https://hz8g1ckzuq.cognition.run/","en-US,en;q=0.9","lmb0tk0qmwb5j6q","20","[""White""]","No","Male","1395987.8999999762","45384","","","{""price_1"":""80"",""price_2"":""70"",""price_3"":""50""}","rating","dtc","repulsion_2","1","washing machines","null","null","null","null","null","null","2","100","90","100","30","40","20","Average lifespan","Energy savings","",""
"","","","","","rating_trial_setup","html-keyboard-response","59","853771","0.0-3.0-0.28","158","1","2025-04-14 14:17:00","bb671e3ae32f654b8954ea4c4635f915","","Mozilla/5.0 (Windows NT 10.0; Win64; x64) AppleWebKit/537.36 (KHTML, like Gecko) Chrome/135.0.0.0 Safari/537.36","WebKit","Chrome","135.0.0.0","Windows","10.0","https://hz8g1ckzuq.cognition.run/","en-US,en;q=0.9","lmb0tk0qmwb5j6q","20","[""White""]","No","Male","1395987.8999999762","null","","<p></p>","null","rating","dct","attraction_2","2","microwave ovens","null","null","null","null","null","null","1","","","","","","","","","",""
"","","","","","rating_trial","survey-html-form","60","863983","0.0-3.0-1.28","158","1","2025-04-14 14:17:00","bb671e3ae32f654b8954ea4c4635f915","","Mozilla/5.0 (Windows NT 10.0; Win64; x64) AppleWebKit/537.36 (KHTML, like Gecko) Chrome/135.0.0.0 Safari/537.36","WebKit","Chrome","135.0.0.0","Windows","10.0","https://hz8g1ckzuq.cognition.run/","en-US,en;q=0.9","lmb0tk0qmwb5j6q","20","[""White""]","No","Male","1395987.8999999762","10200","","","{""price_1"":""60"",""price_2"":""50"",""price_3"":""60""}","rating","dct","attraction_2","2","microwave ovens","null","null","null","null","null","null","1","50","60","40","60","50","60","Warranty","Cooking power","",""
"","","","","","rating_trial_setup","html-keyboard-response","61","864287","0.0-3.0-0.29","158","1","2025-04-14 14:17:00","bb671e3ae32f654b8954ea4c4635f915","","Mozilla/5.0 (Windows NT 10.0; Win64; x64) AppleWebKit/537.36 (KHTML, like Gecko) Chrome/135.0.0.0 Safari/537.36","WebKit","Chrome","135.0.0.0","Windows","10.0","https://hz8g1ckzuq.cognition.run/","en-US,en;q=0.9","lmb0tk0qmwb5j6q","20","[""White""]","No","Male","1395987.8999999762","null","","<p></p>","null","rating","tdc","repulsion_2","2","microwave ovens","null","null","null","null","null","null","1","","","","","","","","","",""
"","","","","","rating_trial","survey-html-form","62","876149","0.0-3.0-1.29","158","1","2025-04-14 14:17:00","bb671e3ae32f654b8954ea4c4635f915","","Mozilla/5.0 (Windows NT 10.0; Win64; x64) AppleWebKit/537.36 (KHTML, like Gecko) Chrome/135.0.0.0 Safari/537.36","WebKit","Chrome","135.0.0.0","Windows","10.0","https://hz8g1ckzuq.cognition.run/","en-US,en;q=0.9","lmb0tk0qmwb5j6q","20","[""White""]","No","Male","1395987.8999999762","11849","","","{""price_1"":""70"",""price_2"":""80"",""price_3"":""50""}","rating","tdc","repulsion_2","2","microwave ovens","null","null","null","null","null","null","1","30","40","20","100","90","100","Warranty","Cooking power","",""
"","","","","","rating_trial_setup","html-keyboard-response","63","876453","0.0-3.0-0.30","158","1","2025-04-14 14:17:00","bb671e3ae32f654b8954ea4c4635f915","","Mozilla/5.0 (Windows NT 10.0; Win64; x64) AppleWebKit/537.36 (KHTML, like Gecko) Chrome/135.0.0.0 Safari/537.36","WebKit","Chrome","135.0.0.0","Windows","10.0","https://hz8g1ckzuq.cognition.run/","en-US,en;q=0.9","lmb0tk0qmwb5j6q","20","[""White""]","No","Male","1395987.8999999762","null","","<p></p>","null","rating","tdc","attraction_2","1","laptops","null","null","null","null","null","null","1","","","","","","","","","",""
"","","","","","rating_trial","survey-html-form","64","888015","0.0-3.0-1.30","158","1","2025-04-14 14:17:00","bb671e3ae32f654b8954ea4c4635f915","","Mozilla/5.0 (Windows NT 10.0; Win64; x64) AppleWebKit/537.36 (KHTML, like Gecko) Chrome/135.0.0.0 Safari/537.36","WebKit","Chrome","135.0.0.0","Windows","10.0","https://hz8g1ckzuq.cognition.run/","en-US,en;q=0.9","lmb0tk0qmwb5j6q","20","[""White""]","No","Male","1395987.8999999762","11557","","","{""price_1"":""50"",""price_2"":""60"",""price_3"":""60""}","rating","tdc","attraction_2","1","laptops","null","null","null","null","null","null","1","60","50","60","50","60","40","Processing speed","Memory (RAM)","",""
"","","","","","rating_trial_setup","html-keyboard-response","65","888320","0.0-3.0-0.31","158","1","2025-04-14 14:17:00","bb671e3ae32f654b8954ea4c4635f915","","Mozilla/5.0 (Windows NT 10.0; Win64; x64) AppleWebKit/537.36 (KHTML, like Gecko) Chrome/135.0.0.0 Safari/537.36","WebKit","Chrome","135.0.0.0","Windows","10.0","https://hz8g1ckzuq.cognition.run/","en-US,en;q=0.9","lmb0tk0qmwb5j6q","20","[""White""]","No","Male","1395987.8999999762","null","","<p></p>","null","rating","tdc","repulsion_2","2","laptops","null","null","null","null","null","null","2","","","","","","","","","",""
"","","","","","rating_trial","survey-html-form","66","901763","0.0-3.0-1.31","158","1","2025-04-14 14:17:00","bb671e3ae32f654b8954ea4c4635f915","","Mozilla/5.0 (Windows NT 10.0; Win64; x64) AppleWebKit/537.36 (KHTML, like Gecko) Chrome/135.0.0.0 Safari/537.36","WebKit","Chrome","135.0.0.0","Windows","10.0","https://hz8g1ckzuq.cognition.run/","en-US,en;q=0.9","lmb0tk0qmwb5j6q","20","[""White""]","No","Male","1395987.8999999762","13430","","","{""price_1"":""70"",""price_2"":""80"",""price_3"":""50""}","rating","tdc","repulsion_2","2","laptops","null","null","null","null","null","null","2","30","40","20","100","90","100","Processing speed","Memory (RAM)","",""
"","","","","","rating_trial_setup","html-keyboard-response","67","902068","0.0-3.0-0.32","158","1","2025-04-14 14:17:00","bb671e3ae32f654b8954ea4c4635f915","","Mozilla/5.0 (Windows NT 10.0; Win64; x64) AppleWebKit/537.36 (KHTML, like Gecko) Chrome/135.0.0.0 Safari/537.36","WebKit","Chrome","135.0.0.0","Windows","10.0","https://hz8g1ckzuq.cognition.run/","en-US,en;q=0.9","lmb0tk0qmwb5j6q","20","[""White""]","No","Male","1395987.8999999762","null","","<p></p>","null","rating","dct","attraction_1","1","microwave ovens","null","null","null","null","null","null","1","","","","","","","","","",""
"","","","","","rating_trial","survey-html-form","68","913647","0.0-3.0-1.32","158","1","2025-04-14 14:17:00","bb671e3ae32f654b8954ea4c4635f915","","Mozilla/5.0 (Windows NT 10.0; Win64; x64) AppleWebKit/537.36 (KHTML, like Gecko) Chrome/135.0.0.0 Safari/537.36","WebKit","Chrome","135.0.0.0","Windows","10.0","https://hz8g1ckzuq.cognition.run/","en-US,en;q=0.9","lmb0tk0qmwb5j6q","20","[""White""]","No","Male","1395987.8999999762","11573","","","{""price_1"":""55"",""price_2"":""60"",""price_3"":""50""}","rating","dct","attraction_1","1","microwave ovens","null","null","null","null","null","null","1","60","50","60","50","60","45","Warranty","Cooking power","",""
"","","","","","rating_trial_setup","html-keyboard-response","69","913953","0.0-3.0-0.33","158","1","2025-04-14 14:17:00","bb671e3ae32f654b8954ea4c4635f915","","Mozilla/5.0 (Windows NT 10.0; Win64; x64) AppleWebKit/537.36 (KHTML, like Gecko) Chrome/135.0.0.0 Safari/537.36","WebKit","Chrome","135.0.0.0","Windows","10.0","https://hz8g1ckzuq.cognition.run/","en-US,en;q=0.9","lmb0tk0qmwb5j6q","20","[""White""]","No","Male","1395987.8999999762","null","","<p></p>","null","rating","tdc","attraction_1","2","laptops","null","null","null","null","null","null","1","","","","","","","","","",""
"","","","","","rating_trial","survey-html-form","70","924899","0.0-3.0-1.33","158","1","2025-04-14 14:17:00","bb671e3ae32f654b8954ea4c4635f915","","Mozilla/5.0 (Windows NT 10.0; Win64; x64) AppleWebKit/537.36 (KHTML, like Gecko) Chrome/135.0.0.0 Safari/537.36","WebKit","Chrome","135.0.0.0","Windows","10.0","https://hz8g1ckzuq.cognition.run/","en-US,en;q=0.9","lmb0tk0qmwb5j6q","20","[""White""]","No","Male","1395987.8999999762","10940","","","{""price_1"":""60"",""price_2"":""60"",""price_3"":""50""}","rating","tdc","attraction_1","2","laptops","null","null","null","null","null","null","1","50","60","45","60","50","60","Processing speed","Memory (RAM)","",""
"","","","","","rating_trial_setup","html-keyboard-response","71","925205","0.0-3.0-0.34","158","1","2025-04-14 14:17:00","bb671e3ae32f654b8954ea4c4635f915","","Mozilla/5.0 (Windows NT 10.0; Win64; x64) AppleWebKit/537.36 (KHTML, like Gecko) Chrome/135.0.0.0 Safari/537.36","WebKit","Chrome","135.0.0.0","Windows","10.0","https://hz8g1ckzuq.cognition.run/","en-US,en;q=0.9","lmb0tk0qmwb5j6q","20","[""White""]","No","Male","1395987.8999999762","null","","<p></p>","null","rating","ctd","attraction_1","2","televisions","null","null","null","null","null","null","2","","","","","","","","","",""
"","","","","","rating_trial","survey-html-form","72","956300","0.0-3.0-1.34","158","1","2025-04-14 14:17:00","bb671e3ae32f654b8954ea4c4635f915","","Mozilla/5.0 (Windows NT 10.0; Win64; x64) AppleWebKit/537.36 (KHTML, like Gecko) Chrome/135.0.0.0 Safari/537.36","WebKit","Chrome","135.0.0.0","Windows","10.0","https://hz8g1ckzuq.cognition.run/","en-US,en;q=0.9","lmb0tk0qmwb5j6q","20","[""White""]","No","Male","1395987.8999999762","31083","","","{""price_1"":""60"",""price_2"":""50"",""price_3"":""55""}","rating","ctd","attraction_1","2","televisions","null","null","null","null","null","null","2","50","60","45","60","50","60","Screen size","Average lifespan","",""
"","","","","","rating_trial_setup","html-keyboard-response","73","956606","0.0-3.0-0.35","158","1","2025-04-14 14:17:00","bb671e3ae32f654b8954ea4c4635f915","","Mozilla/5.0 (Windows NT 10.0; Win64; x64) AppleWebKit/537.36 (KHTML, like Gecko) Chrome/135.0.0.0 Safari/537.36","WebKit","Chrome","135.0.0.0","Windows","10.0","https://hz8g1ckzuq.cognition.run/","en-US,en;q=0.9","lmb0tk0qmwb5j6q","20","[""White""]","No","Male","1395987.8999999762","null","","<p></p>","null","rating","cdt","repulsion_1","1","washing machines","null","null","null","null","null","null","2","","","","","","","","","",""
"","","","","","rating_trial","survey-html-form","74","969062","0.0-3.0-1.35","158","1","2025-04-14 14:17:00","bb671e3ae32f654b8954ea4c4635f915","","Mozilla/5.0 (Windows NT 10.0; Win64; x64) AppleWebKit/537.36 (KHTML, like Gecko) Chrome/135.0.0.0 Safari/537.36","WebKit","Chrome","135.0.0.0","Windows","10.0","https://hz8g1ckzuq.cognition.run/","en-US,en;q=0.9","lmb0tk0qmwb5j6q","20","[""White""]","No","Male","1395987.8999999762","12444","","","{""price_1"":""57"",""price_2"":""75"",""price_3"":""70""}","rating","cdt","repulsion_1","1","washing machines","null","null","null","null","null","null","2","100","90","100","30","40","25","Average lifespan","Energy savings","",""
"","","","","","rating_trial_setup","html-keyboard-response","75","969368","0.0-3.0-0.36","158","1","2025-04-14 14:17:00","bb671e3ae32f654b8954ea4c4635f915","","Mozilla/5.0 (Windows NT 10.0; Win64; x64) AppleWebKit/537.36 (KHTML, like Gecko) Chrome/135.0.0.0 Safari/537.36","WebKit","Chrome","135.0.0.0","Windows","10.0","https://hz8g1ckzuq.cognition.run/","en-US,en;q=0.9","lmb0tk0qmwb5j6q","20","[""White""]","No","Male","1395987.8999999762","null","","<p></p>","null","rating","cdt","repulsion_2","1","microwave ovens","null","null","null","null","null","null","2","","","","","","","","","",""
"","","","","","rating_trial","survey-html-form","76","987656","0.0-3.0-1.36","158","1","2025-04-14 14:17:00","bb671e3ae32f654b8954ea4c4635f915","","Mozilla/5.0 (Windows NT 10.0; Win64; x64) AppleWebKit/537.36 (KHTML, like Gecko) Chrome/135.0.0.0 Safari/537.36","WebKit","Chrome","135.0.0.0","Windows","10.0","https://hz8g1ckzuq.cognition.run/","en-US,en;q=0.9","lmb0tk0qmwb5j6q","20","[""White""]","No","Male","1395987.8999999762","18276","","","{""price_1"":""50"",""price_2"":""80"",""price_3"":""70""}","rating","cdt","repulsion_2","1","microwave ovens","null","null","null","null","null","null","2","100","90","100","30","40","20","Warranty","Cooking power","",""
"","","","","","rating_trial_setup","html-keyboard-response","77","987962","0.0-3.0-0.37","158","1","2025-04-14 14:17:00","bb671e3ae32f654b8954ea4c4635f915","","Mozilla/5.0 (Windows NT 10.0; Win64; x64) AppleWebKit/537.36 (KHTML, like Gecko) Chrome/135.0.0.0 Safari/537.36","WebKit","Chrome","135.0.0.0","Windows","10.0","https://hz8g1ckzuq.cognition.run/","en-US,en;q=0.9","lmb0tk0qmwb5j6q","20","[""White""]","No","Male","1395987.8999999762","null","","<p></p>","null","rating","wwb","catch","null","televisions","50","70","45","30","20","50","1","","","","","","","","","",""
"","","","","","rating_trial","survey-html-form","78","1001438","0.0-3.0-1.37","158","1","2025-04-14 14:17:00","bb671e3ae32f654b8954ea4c4635f915","","Mozilla/5.0 (Windows NT 10.0; Win64; x64) AppleWebKit/537.36 (KHTML, like Gecko) Chrome/135.0.0.0 Safari/537.36","WebKit","Chrome","135.0.0.0","Windows","10.0","https://hz8g1ckzuq.cognition.run/","en-US,en;q=0.9","lmb0tk0qmwb5j6q","20","[""White""]","No","Male","1395987.8999999762","13469","","","{""price_1"":""55"",""price_2"":""50"",""price_3"":""80""}","rating","wwb","catch","null","televisions","50","70","45","30","20","50","1","null","null","null","null","null","null","Screen size","Average lifespan","",""
"","","","","","rating_trial_setup","html-keyboard-response","79","1001744","0.0-3.0-0.38","158","1","2025-04-14 14:17:00","bb671e3ae32f654b8954ea4c4635f915","","Mozilla/5.0 (Windows NT 10.0; Win64; x64) AppleWebKit/537.36 (KHTML, like Gecko) Chrome/135.0.0.0 Safari/537.36","WebKit","Chrome","135.0.0.0","Windows","10.0","https://hz8g1ckzuq.cognition.run/","en-US,en;q=0.9","lmb0tk0qmwb5j6q","20","[""White""]","No","Male","1395987.8999999762","null","","<p></p>","null","rating","dtc","repulsion_1","1","televisions","null","null","null","null","null","null","2","","","","","","","","","",""
"","","","","","rating_trial","survey-html-form","80","1013130","0.0-3.0-1.38","158","1","2025-04-14 14:17:00","bb671e3ae32f654b8954ea4c4635f915","","Mozilla/5.0 (Windows NT 10.0; Win64; x64) AppleWebKit/537.36 (KHTML, like Gecko) Chrome/135.0.0.0 Safari/537.36","WebKit","Chrome","135.0.0.0","Windows","10.0","https://hz8g1ckzuq.cognition.run/","en-US,en;q=0.9","lmb0tk0qmwb5j6q","20","[""White""]","No","Male","1395987.8999999762","11378","","","{""price_1"":""75"",""price_2"":""70"",""price_3"":""50""}","rating","dtc","repulsion_1","1","televisions","null","null","null","null","null","null","2","100","90","100","30","40","25","Screen size","Average lifespan","",""
"","","","","","rating_trial_setup","html-keyboard-response","81","1013436","0.0-3.0-0.39","158","1","2025-04-14 14:17:00","bb671e3ae32f654b8954ea4c4635f915","","Mozilla/5.0 (Windows NT 10.0; Win64; x64) AppleWebKit/537.36 (KHTML, like Gecko) Chrome/135.0.0.0 Safari/537.36","WebKit","Chrome","135.0.0.0","Windows","10.0","https://hz8g1ckzuq.cognition.run/","en-US,en;q=0.9","lmb0tk0qmwb5j6q","20","[""White""]","No","Male","1395987.8999999762","null","","<p></p>","null","rating","ctd","attraction_2","2","laptops","null","null","null","null","null","null","2","","","","","","","","","",""
"","","","","","rating_trial","survey-html-form","82","1037368","0.0-3.0-1.39","158","1","2025-04-14 14:17:00","bb671e3ae32f654b8954ea4c4635f915","","Mozilla/5.0 (Windows NT 10.0; Win64; x64) AppleWebKit/537.36 (KHTML, like Gecko) Chrome/135.0.0.0 Safari/537.36","WebKit","Chrome","135.0.0.0","Windows","10.0","https://hz8g1ckzuq.cognition.run/","en-US,en;q=0.9","lmb0tk0qmwb5j6q","20","[""White""]","No","Male","1395987.8999999762","23918","","","{""price_1"":""55"",""price_2"":""67"",""price_3"":""55""}","rating","ctd","attraction_2","2","laptops","null","null","null","null","null","null","2","50","60","40","60","50","60","Processing speed","Memory (RAM)","",""
"","","","","","","instructions","83","1157399","0.0-4.0","158","1","2025-04-14 14:17:00","bb671e3ae32f654b8954ea4c4635f915","","Mozilla/5.0 (Windows NT 10.0; Win64; x64) AppleWebKit/537.36 (KHTML, like Gecko) Chrome/135.0.0.0 Safari/537.36","WebKit","Chrome","135.0.0.0","Windows","10.0","https://hz8g1ckzuq.cognition.run/","en-US,en;q=0.9","lmb0tk0qmwb5j6q","20","[""White""]","No","Male","1395987.8999999762","120026","[{""page_index"":0,""viewing_time"":5591},{""page_index"":1,""viewing_time"":4760},{""page_index"":2,""viewing_time"":7202},{""page_index"":3,""viewing_time"":6278},{""page_index"":4,""viewing_time"":9660},{""page_index"":5,""viewing_time"":6948},{""page_index"":6,""viewing_time"":71631},{""page_index"":7,""viewing_time"":7957}]","","","","","","","","","","","","","","","","","","","","","","","",""
"","","","","","choice_trial_setup","html-keyboard-response","84","1157704","0.0-5.0-0.0","158","1","2025-04-14 14:17:00","bb671e3ae32f654b8954ea4c4635f915","","Mozilla/5.0 (Windows NT 10.0; Win64; x64) AppleWebKit/537.36 (KHTML, like Gecko) Chrome/135.0.0.0 Safari/537.36","WebKit","Chrome","135.0.0.0","Windows","10.0","https://hz8g1ckzuq.cognition.run/","en-US,en;q=0.9","lmb0tk0qmwb5j6q","20","[""White""]","No","Male","1395987.8999999762","null","","<p></p>","null","choice","ctd","repulsion_1","2","washing machines","null","null","null","null","null","null","1","","","","","","","","","",""
"","","","","","choice_trial","survey-html-form","85","1161953","0.0-5.0-1.0","158","1","2025-04-14 14:17:00","bb671e3ae32f654b8954ea4c4635f915","","Mozilla/5.0 (Windows NT 10.0; Win64; x64) AppleWebKit/537.36 (KHTML, like Gecko) Chrome/135.0.0.0 Safari/537.36","WebKit","Chrome","135.0.0.0","Windows","10.0","https://hz8g1ckzuq.cognition.run/","en-US,en;q=0.9","lmb0tk0qmwb5j6q","20","[""White""]","No","Male","1395987.8999999762","4244","","","{""product_choice"":""B""}","choice","ctd","repulsion_1","2","washing machines","null","null","null","null","null","null","1","30","40","25","100","90","100","Average lifespan","Energy savings","",""
"","","","","","choice_trial_setup","html-keyboard-response","86","1162260","0.0-5.0-0.1","158","1","2025-04-14 14:17:00","bb671e3ae32f654b8954ea4c4635f915","","Mozilla/5.0 (Windows NT 10.0; Win64; x64) AppleWebKit/537.36 (KHTML, like Gecko) Chrome/135.0.0.0 Safari/537.36","WebKit","Chrome","135.0.0.0","Windows","10.0","https://hz8g1ckzuq.cognition.run/","en-US,en;q=0.9","lmb0tk0qmwb5j6q","20","[""White""]","No","Male","1395987.8999999762","null","","<p></p>","null","choice","wbw","catch","null","televisions","55","85","20","45","10","45","1","","","","","","","","","",""
"","","","","","choice_trial","survey-html-form","87","1167324","0.0-5.0-1.1","158","1","2025-04-14 14:17:00","bb671e3ae32f654b8954ea4c4635f915","","Mozilla/5.0 (Windows NT 10.0; Win64; x64) AppleWebKit/537.36 (KHTML, like Gecko) Chrome/135.0.0.0 Safari/537.36","WebKit","Chrome","135.0.0.0","Windows","10.0","https://hz8g1ckzuq.cognition.run/","en-US,en;q=0.9","lmb0tk0qmwb5j6q","20","[""White""]","No","Male","1395987.8999999762","5049","","","{""product_choice"":""A""}","choice","wbw","catch","null","televisions","55","85","20","45","10","45","1","null","null","null","null","null","null","Screen size","Average lifespan","",""
"","","","","","choice_trial_setup","html-keyboard-response","88","1167629","0.0-5.0-0.2","158","1","2025-04-14 14:17:00","bb671e3ae32f654b8954ea4c4635f915","","Mozilla/5.0 (Windows NT 10.0; Win64; x64) AppleWebKit/537.36 (KHTML, like Gecko) Chrome/135.0.0.0 Safari/537.36","WebKit","Chrome","135.0.0.0","Windows","10.0","https://hz8g1ckzuq.cognition.run/","en-US,en;q=0.9","lmb0tk0qmwb5j6q","20","[""White""]","No","Male","1395987.8999999762","null","","<p></p>","null","choice","wbw","catch","null","televisions","50","80","15","35","30","30","2","","","","","","","","","",""
"","","","","","choice_trial","survey-html-form","89","1170049","0.0-5.0-1.2","158","1","2025-04-14 14:17:00","bb671e3ae32f654b8954ea4c4635f915","","Mozilla/5.0 (Windows NT 10.0; Win64; x64) AppleWebKit/537.36 (KHTML, like Gecko) Chrome/135.0.0.0 Safari/537.36","WebKit","Chrome","135.0.0.0","Windows","10.0","https://hz8g1ckzuq.cognition.run/","en-US,en;q=0.9","lmb0tk0qmwb5j6q","20","[""White""]","No","Male","1395987.8999999762","2408","","","{""product_choice"":""B""}","choice","wbw","catch","null","televisions","50","80","15","35","30","30","2","null","null","null","null","null","null","Screen size","Average lifespan","",""
"","","","","","choice_trial_setup","html-keyboard-response","90","1170356","0.0-5.0-0.3","158","1","2025-04-14 14:17:00","bb671e3ae32f654b8954ea4c4635f915","","Mozilla/5.0 (Windows NT 10.0; Win64; x64) AppleWebKit/537.36 (KHTML, like Gecko) Chrome/135.0.0.0 Safari/537.36","WebKit","Chrome","135.0.0.0","Windows","10.0","https://hz8g1ckzuq.cognition.run/","en-US,en;q=0.9","lmb0tk0qmwb5j6q","20","[""White""]","No","Male","1395987.8999999762","null","","<p></p>","null","choice","ctd","repulsion_1","1","laptops","null","null","null","null","null","null","1","","","","","","","","","",""
"","","","","","choice_trial","survey-html-form","91","1174266","0.0-5.0-1.3","158","1","2025-04-14 14:17:00","bb671e3ae32f654b8954ea4c4635f915","","Mozilla/5.0 (Windows NT 10.0; Win64; x64) AppleWebKit/537.36 (KHTML, like Gecko) Chrome/135.0.0.0 Safari/537.36","WebKit","Chrome","135.0.0.0","Windows","10.0","https://hz8g1ckzuq.cognition.run/","en-US,en;q=0.9","lmb0tk0qmwb5j6q","20","[""White""]","No","Male","1395987.8999999762","3899","","","{""product_choice"":""A""}","choice","ctd","repulsion_1","1","laptops","null","null","null","null","null","null","1","100","90","100","30","40","25","Processing speed","Memory (RAM)","",""
"","","","","","choice_trial_setup","html-keyboard-response","92","1174571","0.0-5.0-0.4","158","1","2025-04-14 14:17:00","bb671e3ae32f654b8954ea4c4635f915","","Mozilla/5.0 (Windows NT 10.0; Win64; x64) AppleWebKit/537.36 (KHTML, like Gecko) Chrome/135.0.0.0 Safari/537.36","WebKit","Chrome","135.0.0.0","Windows","10.0","https://hz8g1ckzuq.cognition.run/","en-US,en;q=0.9","lmb0tk0qmwb5j6q","20","[""White""]","No","Male","1395987.8999999762","null","","<p></p>","null","choice","ctd","attraction_1","2","washing machines","null","null","null","null","null","null","1","","","","","","","","","",""
"","","","","","choice_trial","survey-html-form","93","1179092","0.0-5.0-1.4","158","1","2025-04-14 14:17:00","bb671e3ae32f654b8954ea4c4635f915","","Mozilla/5.0 (Windows NT 10.0; Win64; x64) AppleWebKit/537.36 (KHTML, like Gecko) Chrome/135.0.0.0 Safari/537.36","WebKit","Chrome","135.0.0.0","Windows","10.0","https://hz8g1ckzuq.cognition.run/","en-US,en;q=0.9","lmb0tk0qmwb5j6q","20","[""White""]","No","Male","1395987.8999999762","4512","","","{""product_choice"":""B""}","choice","ctd","attraction_1","2","washing machines","null","null","null","null","null","null","1","50","60","45","60","50","60","Average lifespan","Energy savings","",""
"","","","","","choice_trial_setup","html-keyboard-response","94","1179398","0.0-5.0-0.5","158","1","2025-04-14 14:17:00","bb671e3ae32f654b8954ea4c4635f915","","Mozilla/5.0 (Windows NT 10.0; Win64; x64) AppleWebKit/537.36 (KHTML, like Gecko) Chrome/135.0.0.0 Safari/537.36","WebKit","Chrome","135.0.0.0","Windows","10.0","https://hz8g1ckzuq.cognition.run/","en-US,en;q=0.9","lmb0tk0qmwb5j6q","20","[""White""]","No","Male","1395987.8999999762","null","","<p></p>","null","choice","bww","catch","null","microwave ovens","80","65","20","45","5","45","2","","","","","","","","","",""
"","","","","","choice_trial","survey-html-form","95","1182719","0.0-5.0-1.5","158","1","2025-04-14 14:17:00","bb671e3ae32f654b8954ea4c4635f915","","Mozilla/5.0 (Windows NT 10.0; Win64; x64) AppleWebKit/537.36 (KHTML, like Gecko) Chrome/135.0.0.0 Safari/537.36","WebKit","Chrome","135.0.0.0","Windows","10.0","https://hz8g1ckzuq.cognition.run/","en-US,en;q=0.9","lmb0tk0qmwb5j6q","20","[""White""]","No","Male","1395987.8999999762","3308","","","{""product_choice"":""A""}","choice","bww","catch","null","microwave ovens","80","65","20","45","5","45","2","null","null","null","null","null","null","Warranty","Cooking power","",""
"","","","","","choice_trial_setup","html-keyboard-response","96","1183024","0.0-5.0-0.6","158","1","2025-04-14 14:17:00","bb671e3ae32f654b8954ea4c4635f915","","Mozilla/5.0 (Windows NT 10.0; Win64; x64) AppleWebKit/537.36 (KHTML, like Gecko) Chrome/135.0.0.0 Safari/537.36","WebKit","Chrome","135.0.0.0","Windows","10.0","https://hz8g1ckzuq.cognition.run/","en-US,en;q=0.9","lmb0tk0qmwb5j6q","20","[""White""]","No","Male","1395987.8999999762","null","","<p></p>","null","choice","cdt","repulsion_1","1","microwave ovens","null","null","null","null","null","null","1","","","","","","","","","",""
"","","","","","choice_trial","survey-html-form","97","1185340","0.0-5.0-1.6","158","1","2025-04-14 14:17:00","bb671e3ae32f654b8954ea4c4635f915","","Mozilla/5.0 (Windows NT 10.0; Win64; x64) AppleWebKit/537.36 (KHTML, like Gecko) Chrome/135.0.0.0 Safari/537.36","WebKit","Chrome","135.0.0.0","Windows","10.0","https://hz8g1ckzuq.cognition.run/","en-US,en;q=0.9","lmb0tk0qmwb5j6q","20","[""White""]","No","Male","1395987.8999999762","2308","","","{""product_choice"":""C""}","choice","cdt","repulsion_1","1","microwave ovens","null","null","null","null","null","null","1","100","90","100","30","40","25","Warranty","Cooking power","",""
"","","","","","choice_trial_setup","html-keyboard-response","98","1185645","0.0-5.0-0.7","158","1","2025-04-14 14:17:00","bb671e3ae32f654b8954ea4c4635f915","","Mozilla/5.0 (Windows NT 10.0; Win64; x64) AppleWebKit/537.36 (KHTML, like Gecko) Chrome/135.0.0.0 Safari/537.36","WebKit","Chrome","135.0.0.0","Windows","10.0","https://hz8g1ckzuq.cognition.run/","en-US,en;q=0.9","lmb0tk0qmwb5j6q","20","[""White""]","No","Male","1395987.8999999762","null","","<p></p>","null","choice","dct","attraction_2","2","televisions","null","null","null","null","null","null","2","","","","","","","","","",""
"","","","","","choice_trial","survey-html-form","99","1187766","0.0-5.0-1.7","158","1","2025-04-14 14:17:00","bb671e3ae32f654b8954ea4c4635f915","","Mozilla/5.0 (Windows NT 10.0; Win64; x64) AppleWebKit/537.36 (KHTML, like Gecko) Chrome/135.0.0.0 Safari/537.36","WebKit","Chrome","135.0.0.0","Windows","10.0","https://hz8g1ckzuq.cognition.run/","en-US,en;q=0.9","lmb0tk0qmwb5j6q","20","[""White""]","No","Male","1395987.8999999762","2108","","","{""product_choice"":""B""}","choice","dct","attraction_2","2","televisions","null","null","null","null","null","null","2","50","60","40","60","50","60","Screen size","Average lifespan","",""
"","","","","","choice_trial_setup","html-keyboard-response","100","1188071","0.0-5.0-0.8","158","1","2025-04-14 14:17:00","bb671e3ae32f654b8954ea4c4635f915","","Mozilla/5.0 (Windows NT 10.0; Win64; x64) AppleWebKit/537.36 (KHTML, like Gecko) Chrome/135.0.0.0 Safari/537.36","WebKit","Chrome","135.0.0.0","Windows","10.0","https://hz8g1ckzuq.cognition.run/","en-US,en;q=0.9","lmb0tk0qmwb5j6q","20","[""White""]","No","Male","1395987.8999999762","null","","<p></p>","null","choice","dct","attraction_2","1","televisions","null","null","null","null","null","null","2","","","","","","","","","",""
"","","","","","choice_trial","survey-html-form","101","1191748","0.0-5.0-1.8","158","1","2025-04-14 14:17:00","bb671e3ae32f654b8954ea4c4635f915","","Mozilla/5.0 (Windows NT 10.0; Win64; x64) AppleWebKit/537.36 (KHTML, like Gecko) Chrome/135.0.0.0 Safari/537.36","WebKit","Chrome","135.0.0.0","Windows","10.0","https://hz8g1ckzuq.cognition.run/","en-US,en;q=0.9","lmb0tk0qmwb5j6q","20","[""White""]","No","Male","1395987.8999999762","3665","","","{""product_choice"":""A""}","choice","dct","attraction_2","1","televisions","null","null","null","null","null","null","2","60","50","60","50","60","40","Screen size","Average lifespan","",""
"","","","","","choice_trial_setup","html-keyboard-response","102","1192055","0.0-5.0-0.9","158","1","2025-04-14 14:17:00","bb671e3ae32f654b8954ea4c4635f915","","Mozilla/5.0 (Windows NT 10.0; Win64; x64) AppleWebKit/537.36 (KHTML, like Gecko) Chrome/135.0.0.0 Safari/537.36","WebKit","Chrome","135.0.0.0","Windows","10.0","https://hz8g1ckzuq.cognition.run/","en-US,en;q=0.9","lmb0tk0qmwb5j6q","20","[""White""]","No","Male","1395987.8999999762","null","","<p></p>","null","choice","tcd","attraction_1","2","laptops","null","null","null","null","null","null","1","","","","","","","","","",""
"","","","","","choice_trial","survey-html-form","103","1195569","0.0-5.0-1.9","158","1","2025-04-14 14:17:00","bb671e3ae32f654b8954ea4c4635f915","","Mozilla/5.0 (Windows NT 10.0; Win64; x64) AppleWebKit/537.36 (KHTML, like Gecko) Chrome/135.0.0.0 Safari/537.36","WebKit","Chrome","135.0.0.0","Windows","10.0","https://hz8g1ckzuq.cognition.run/","en-US,en;q=0.9","lmb0tk0qmwb5j6q","20","[""White""]","No","Male","1395987.8999999762","3503","","","{""product_choice"":""A""}","choice","tcd","attraction_1","2","laptops","null","null","null","null","null","null","1","50","60","45","60","50","60","Processing speed","Memory (RAM)","",""
"","","","","","choice_trial_setup","html-keyboard-response","104","1195875","0.0-5.0-0.10","158","1","2025-04-14 14:17:00","bb671e3ae32f654b8954ea4c4635f915","","Mozilla/5.0 (Windows NT 10.0; Win64; x64) AppleWebKit/537.36 (KHTML, like Gecko) Chrome/135.0.0.0 Safari/537.36","WebKit","Chrome","135.0.0.0","Windows","10.0","https://hz8g1ckzuq.cognition.run/","en-US,en;q=0.9","lmb0tk0qmwb5j6q","20","[""White""]","No","Male","1395987.8999999762","null","","<p></p>","null","choice","dct","repulsion_2","2","washing machines","null","null","null","null","null","null","1","","","","","","","","","",""
"","","","","","choice_trial","survey-html-form","105","1200805","0.0-5.0-1.10","158","1","2025-04-14 14:17:00","bb671e3ae32f654b8954ea4c4635f915","","Mozilla/5.0 (Windows NT 10.0; Win64; x64) AppleWebKit/537.36 (KHTML, like Gecko) Chrome/135.0.0.0 Safari/537.36","WebKit","Chrome","135.0.0.0","Windows","10.0","https://hz8g1ckzuq.cognition.run/","en-US,en;q=0.9","lmb0tk0qmwb5j6q","20","[""White""]","No","Male","1395987.8999999762","4915","","","{""product_choice"":""A""}","choice","dct","repulsion_2","2","washing machines","null","null","null","null","null","null","1","30","40","20","100","90","100","Average lifespan","Energy savings","",""
"","","","","","choice_trial_setup","html-keyboard-response","106","1201111","0.0-5.0-0.11","158","1","2025-04-14 14:17:00","bb671e3ae32f654b8954ea4c4635f915","","Mozilla/5.0 (Windows NT 10.0; Win64; x64) AppleWebKit/537.36 (KHTML, like Gecko) Chrome/135.0.0.0 Safari/537.36","WebKit","Chrome","135.0.0.0","Windows","10.0","https://hz8g1ckzuq.cognition.run/","en-US,en;q=0.9","lmb0tk0qmwb5j6q","20","[""White""]","No","Male","1395987.8999999762","null","","<p></p>","null","choice","dtc","attraction_1","1","washing machines","null","null","null","null","null","null","1","","","","","","","","","",""
"","","","","","choice_trial","survey-html-form","107","1205031","0.0-5.0-1.11","158","1","2025-04-14 14:17:00","bb671e3ae32f654b8954ea4c4635f915","","Mozilla/5.0 (Windows NT 10.0; Win64; x64) AppleWebKit/537.36 (KHTML, like Gecko) Chrome/135.0.0.0 Safari/537.36","WebKit","Chrome","135.0.0.0","Windows","10.0","https://hz8g1ckzuq.cognition.run/","en-US,en;q=0.9","lmb0tk0qmwb5j6q","20","[""White""]","No","Male","1395987.8999999762","3912","","","{""product_choice"":""B""}","choice","dtc","attraction_1","1","washing machines","null","null","null","null","null","null","1","60","50","60","50","60","45","Average lifespan","Energy savings","",""
"","","","","","choice_trial_setup","html-keyboard-response","108","1205338","0.0-5.0-0.12","158","1","2025-04-14 14:17:00","bb671e3ae32f654b8954ea4c4635f915","","Mozilla/5.0 (Windows NT 10.0; Win64; x64) AppleWebKit/537.36 (KHTML, like Gecko) Chrome/135.0.0.0 Safari/537.36","WebKit","Chrome","135.0.0.0","Windows","10.0","https://hz8g1ckzuq.cognition.run/","en-US,en;q=0.9","lmb0tk0qmwb5j6q","20","[""White""]","No","Male","1395987.8999999762","null","","<p></p>","null","choice","cdt","attraction_1","1","televisions","null","null","null","null","null","null","1","","","","","","","","","",""
"","","","","","choice_trial","survey-html-form","109","1208584","0.0-5.0-1.12","158","1","2025-04-14 14:17:00","bb671e3ae32f654b8954ea4c4635f915","","Mozilla/5.0 (Windows NT 10.0; Win64; x64) AppleWebKit/537.36 (KHTML, like Gecko) Chrome/135.0.0.0 Safari/537.36","WebKit","Chrome","135.0.0.0","Windows","10.0","https://hz8g1ckzuq.cognition.run/","en-US,en;q=0.9","lmb0tk0qmwb5j6q","20","[""White""]","No","Male","1395987.8999999762","3240","","","{""product_choice"":""A""}","choice","cdt","attraction_1","1","televisions","null","null","null","null","null","null","1","60","50","60","50","60","45","Screen size","Average lifespan","",""
"","","","","","choice_trial_setup","html-keyboard-response","110","1208890","0.0-5.0-0.13","158","1","2025-04-14 14:17:00","bb671e3ae32f654b8954ea4c4635f915","","Mozilla/5.0 (Windows NT 10.0; Win64; x64) AppleWebKit/537.36 (KHTML, like Gecko) Chrome/135.0.0.0 Safari/537.36","WebKit","Chrome","135.0.0.0","Windows","10.0","https://hz8g1ckzuq.cognition.run/","en-US,en;q=0.9","lmb0tk0qmwb5j6q","20","[""White""]","No","Male","1395987.8999999762","null","","<p></p>","null","choice","dtc","repulsion_1","2","televisions","null","null","null","null","null","null","2","","","","","","","","","",""
"","","","","","choice_trial","survey-html-form","111","1212737","0.0-5.0-1.13","158","1","2025-04-14 14:17:00","bb671e3ae32f654b8954ea4c4635f915","","Mozilla/5.0 (Windows NT 10.0; Win64; x64) AppleWebKit/537.36 (KHTML, like Gecko) Chrome/135.0.0.0 Safari/537.36","WebKit","Chrome","135.0.0.0","Windows","10.0","https://hz8g1ckzuq.cognition.run/","en-US,en;q=0.9","lmb0tk0qmwb5j6q","20","[""White""]","No","Male","1395987.8999999762","3834","","","{""product_choice"":""A""}","choice","dtc","repulsion_1","2","televisions","null","null","null","null","null","null","2","30","40","25","100","90","100","Screen size","Average lifespan","",""
"","","","","","choice_trial_setup","html-keyboard-response","112","1213043","0.0-5.0-0.14","158","1","2025-04-14 14:17:00","bb671e3ae32f654b8954ea4c4635f915","","Mozilla/5.0 (Windows NT 10.0; Win64; x64) AppleWebKit/537.36 (KHTML, like Gecko) Chrome/135.0.0.0 Safari/537.36","WebKit","Chrome","135.0.0.0","Windows","10.0","https://hz8g1ckzuq.cognition.run/","en-US,en;q=0.9","lmb0tk0qmwb5j6q","20","[""White""]","No","Male","1395987.8999999762","null","","<p></p>","null","choice","dtc","repulsion_1","1","washing machines","null","null","null","null","null","null","2","","","","","","","","","",""
"","","","","","choice_trial","survey-html-form","113","1215386","0.0-5.0-1.14","158","1","2025-04-14 14:17:00","bb671e3ae32f654b8954ea4c4635f915","","Mozilla/5.0 (Windows NT 10.0; Win64; x64) AppleWebKit/537.36 (KHTML, like Gecko) Chrome/135.0.0.0 Safari/537.36","WebKit","Chrome","135.0.0.0","Windows","10.0","https://hz8g1ckzuq.cognition.run/","en-US,en;q=0.9","lmb0tk0qmwb5j6q","20","[""White""]","No","Male","1395987.8999999762","2335","","","{""product_choice"":""A""}","choice","dtc","repulsion_1","1","washing machines","null","null","null","null","null","null","2","100","90","100","30","40","25","Average lifespan","Energy savings","",""
"","","","","","choice_trial_setup","html-keyboard-response","114","1215692","0.0-5.0-0.15","158","1","2025-04-14 14:17:00","bb671e3ae32f654b8954ea4c4635f915","","Mozilla/5.0 (Windows NT 10.0; Win64; x64) AppleWebKit/537.36 (KHTML, like Gecko) Chrome/135.0.0.0 Safari/537.36","WebKit","Chrome","135.0.0.0","Windows","10.0","https://hz8g1ckzuq.cognition.run/","en-US,en;q=0.9","lmb0tk0qmwb5j6q","20","[""White""]","No","Male","1395987.8999999762","null","","<p></p>","null","choice","tdc","repulsion_2","2","televisions","null","null","null","null","null","null","1","","","","","","","","","",""
"","","","","","choice_trial","survey-html-form","115","1228188","0.0-5.0-1.15","158","1","2025-04-14 14:17:00","bb671e3ae32f654b8954ea4c4635f915","","Mozilla/5.0 (Windows NT 10.0; Win64; x64) AppleWebKit/537.36 (KHTML, like Gecko) Chrome/135.0.0.0 Safari/537.36","WebKit","Chrome","135.0.0.0","Windows","10.0","https://hz8g1ckzuq.cognition.run/","en-US,en;q=0.9","lmb0tk0qmwb5j6q","20","[""White""]","No","Male","1395987.8999999762","12491","","","{""product_choice"":""C""}","choice","tdc","repulsion_2","2","televisions","null","null","null","null","null","null","1","30","40","20","100","90","100","Screen size","Average lifespan","",""
"","","","","","choice_trial_setup","html-keyboard-response","116","1228493","0.0-5.0-0.16","158","1","2025-04-14 14:17:00","bb671e3ae32f654b8954ea4c4635f915","","Mozilla/5.0 (Windows NT 10.0; Win64; x64) AppleWebKit/537.36 (KHTML, like Gecko) Chrome/135.0.0.0 Safari/537.36","WebKit","Chrome","135.0.0.0","Windows","10.0","https://hz8g1ckzuq.cognition.run/","en-US,en;q=0.9","lmb0tk0qmwb5j6q","20","[""White""]","No","Male","1395987.8999999762","null","","<p></p>","null","choice","cdt","attraction_1","1","microwave ovens","null","null","null","null","null","null","2","","","","","","","","","",""
"","","","","","choice_trial","survey-html-form","117","1233367","0.0-5.0-1.16","158","1","2025-04-14 14:17:00","bb671e3ae32f654b8954ea4c4635f915","","Mozilla/5.0 (Windows NT 10.0; Win64; x64) AppleWebKit/537.36 (KHTML, like Gecko) Chrome/135.0.0.0 Safari/537.36","WebKit","Chrome","135.0.0.0","Windows","10.0","https://hz8g1ckzuq.cognition.run/","en-US,en;q=0.9","lmb0tk0qmwb5j6q","20","[""White""]","No","Male","1395987.8999999762","4865","","","{""product_choice"":""B""}","choice","cdt","attraction_1","1","microwave ovens","null","null","null","null","null","null","2","60","50","60","50","60","45","Warranty","Cooking power","",""
"","","","","","choice_trial_setup","html-keyboard-response","118","1233675","0.0-5.0-0.17","158","1","2025-04-14 14:17:00","bb671e3ae32f654b8954ea4c4635f915","","Mozilla/5.0 (Windows NT 10.0; Win64; x64) AppleWebKit/537.36 (KHTML, like Gecko) Chrome/135.0.0.0 Safari/537.36","WebKit","Chrome","135.0.0.0","Windows","10.0","https://hz8g1ckzuq.cognition.run/","en-US,en;q=0.9","lmb0tk0qmwb5j6q","20","[""White""]","No","Male","1395987.8999999762","null","","<p></p>","null","choice","tcd","attraction_1","1","laptops","null","null","null","null","null","null","1","","","","","","","","","",""
"","","","","","choice_trial","survey-html-form","119","1236376","0.0-5.0-1.17","158","1","2025-04-14 14:17:00","bb671e3ae32f654b8954ea4c4635f915","","Mozilla/5.0 (Windows NT 10.0; Win64; x64) AppleWebKit/537.36 (KHTML, like Gecko) Chrome/135.0.0.0 Safari/537.36","WebKit","Chrome","135.0.0.0","Windows","10.0","https://hz8g1ckzuq.cognition.run/","en-US,en;q=0.9","lmb0tk0qmwb5j6q","20","[""White""]","No","Male","1395987.8999999762","2689","","","{""product_choice"":""B""}","choice","tcd","attraction_1","1","laptops","null","null","null","null","null","null","1","60","50","60","50","60","45","Processing speed","Memory (RAM)","",""
"","","","","","choice_trial_setup","html-keyboard-response","120","1236683","0.0-5.0-0.18","158","1","2025-04-14 14:17:00","bb671e3ae32f654b8954ea4c4635f915","","Mozilla/5.0 (Windows NT 10.0; Win64; x64) AppleWebKit/537.36 (KHTML, like Gecko) Chrome/135.0.0.0 Safari/537.36","WebKit","Chrome","135.0.0.0","Windows","10.0","https://hz8g1ckzuq.cognition.run/","en-US,en;q=0.9","lmb0tk0qmwb5j6q","20","[""White""]","No","Male","1395987.8999999762","null","","<p></p>","null","choice","cdt","attraction_2","2","washing machines","null","null","null","null","null","null","1","","","","","","","","","",""
"","","","","","choice_trial","survey-html-form","121","1239286","0.0-5.0-1.18","158","1","2025-04-14 14:17:00","bb671e3ae32f654b8954ea4c4635f915","","Mozilla/5.0 (Windows NT 10.0; Win64; x64) AppleWebKit/537.36 (KHTML, like Gecko) Chrome/135.0.0.0 Safari/537.36","WebKit","Chrome","135.0.0.0","Windows","10.0","https://hz8g1ckzuq.cognition.run/","en-US,en;q=0.9","lmb0tk0qmwb5j6q","20","[""White""]","No","Male","1395987.8999999762","2593","","","{""product_choice"":""C""}","choice","cdt","attraction_2","2","washing machines","null","null","null","null","null","null","1","50","60","40","60","50","60","Average lifespan","Energy savings","",""
"","","","","","choice_trial_setup","html-keyboard-response","122","1239593","0.0-5.0-0.19","158","1","2025-04-14 14:17:00","bb671e3ae32f654b8954ea4c4635f915","","Mozilla/5.0 (Windows NT 10.0; Win64; x64) AppleWebKit/537.36 (KHTML, like Gecko) Chrome/135.0.0.0 Safari/537.36","WebKit","Chrome","135.0.0.0","Windows","10.0","https://hz8g1ckzuq.cognition.run/","en-US,en;q=0.9","lmb0tk0qmwb5j6q","20","[""White""]","No","Male","1395987.8999999762","null","","<p></p>","null","choice","ctd","attraction_1","2","microwave ovens","null","null","null","null","null","null","1","","","","","","","","","",""
"","","","","","choice_trial","survey-html-form","123","1248169","0.0-5.0-1.19","158","1","2025-04-14 14:17:00","bb671e3ae32f654b8954ea4c4635f915","","Mozilla/5.0 (Windows NT 10.0; Win64; x64) AppleWebKit/537.36 (KHTML, like Gecko) Chrome/135.0.0.0 Safari/537.36","WebKit","Chrome","135.0.0.0","Windows","10.0","https://hz8g1ckzuq.cognition.run/","en-US,en;q=0.9","lmb0tk0qmwb5j6q","20","[""White""]","No","Male","1395987.8999999762","8562","","","{""product_choice"":""B""}","choice","ctd","attraction_1","2","microwave ovens","null","null","null","null","null","null","1","50","60","45","60","50","60","Warranty","Cooking power","",""
"","","","","","choice_trial_setup","html-keyboard-response","124","1248476","0.0-5.0-0.20","158","1","2025-04-14 14:17:00","bb671e3ae32f654b8954ea4c4635f915","","Mozilla/5.0 (Windows NT 10.0; Win64; x64) AppleWebKit/537.36 (KHTML, like Gecko) Chrome/135.0.0.0 Safari/537.36","WebKit","Chrome","135.0.0.0","Windows","10.0","https://hz8g1ckzuq.cognition.run/","en-US,en;q=0.9","lmb0tk0qmwb5j6q","20","[""White""]","No","Male","1395987.8999999762","null","","<p></p>","null","choice","bww","catch","null","laptops","50","65","30","20","50","5","2","","","","","","","","","",""
"","","","","","choice_trial","survey-html-form","125","1251692","0.0-5.0-1.20","158","1","2025-04-14 14:17:00","bb671e3ae32f654b8954ea4c4635f915","","Mozilla/5.0 (Windows NT 10.0; Win64; x64) AppleWebKit/537.36 (KHTML, like Gecko) Chrome/135.0.0.0 Safari/537.36","WebKit","Chrome","135.0.0.0","Windows","10.0","https://hz8g1ckzuq.cognition.run/","en-US,en;q=0.9","lmb0tk0qmwb5j6q","20","[""White""]","No","Male","1395987.8999999762","3200","","","{""product_choice"":""A""}","choice","bww","catch","null","laptops","50","65","30","20","50","5","2","null","null","null","null","null","null","Processing speed","Memory (RAM)","",""
"","","","","","choice_trial_setup","html-keyboard-response","126","1252000","0.0-5.0-0.21","158","1","2025-04-14 14:17:00","bb671e3ae32f654b8954ea4c4635f915","","Mozilla/5.0 (Windows NT 10.0; Win64; x64) AppleWebKit/537.36 (KHTML, like Gecko) Chrome/135.0.0.0 Safari/537.36","WebKit","Chrome","135.0.0.0","Windows","10.0","https://hz8g1ckzuq.cognition.run/","en-US,en;q=0.9","lmb0tk0qmwb5j6q","20","[""White""]","No","Male","1395987.8999999762","null","","<p></p>","null","choice","tcd","attraction_2","1","microwave ovens","null","null","null","null","null","null","2","","","","","","","","","",""
"","","","","","choice_trial","survey-html-form","127","1254811","0.0-5.0-1.21","158","1","2025-04-14 14:17:00","bb671e3ae32f654b8954ea4c4635f915","","Mozilla/5.0 (Windows NT 10.0; Win64; x64) AppleWebKit/537.36 (KHTML, like Gecko) Chrome/135.0.0.0 Safari/537.36","WebKit","Chrome","135.0.0.0","Windows","10.0","https://hz8g1ckzuq.cognition.run/","en-US,en;q=0.9","lmb0tk0qmwb5j6q","20","[""White""]","No","Male","1395987.8999999762","2803","","","{""product_choice"":""A""}","choice","tcd","attraction_2","1","microwave ovens","null","null","null","null","null","null","2","60","50","60","50","60","40","Warranty","Cooking power","",""
"","","","","","choice_trial_setup","html-keyboard-response","128","1255118","0.0-5.0-0.22","158","1","2025-04-14 14:17:00","bb671e3ae32f654b8954ea4c4635f915","","Mozilla/5.0 (Windows NT 10.0; Win64; x64) AppleWebKit/537.36 (KHTML, like Gecko) Chrome/135.0.0.0 Safari/537.36","WebKit","Chrome","135.0.0.0","Windows","10.0","https://hz8g1ckzuq.cognition.run/","en-US,en;q=0.9","lmb0tk0qmwb5j6q","20","[""White""]","No","Male","1395987.8999999762","null","","<p></p>","null","choice","cdt","repulsion_1","2","microwave ovens","null","null","null","null","null","null","2","","","","","","","","","",""
"","","","","","choice_trial","survey-html-form","129","1264727","0.0-5.0-1.22","158","1","2025-04-14 14:17:00","bb671e3ae32f654b8954ea4c4635f915","","Mozilla/5.0 (Windows NT 10.0; Win64; x64) AppleWebKit/537.36 (KHTML, like Gecko) Chrome/135.0.0.0 Safari/537.36","WebKit","Chrome","135.0.0.0","Windows","10.0","https://hz8g1ckzuq.cognition.run/","en-US,en;q=0.9","lmb0tk0qmwb5j6q","20","[""White""]","No","Male","1395987.8999999762","9593","","","{""product_choice"":""C""}","choice","cdt","repulsion_1","2","microwave ovens","null","null","null","null","null","null","2","30","40","25","100","90","100","Warranty","Cooking power","",""
"","","","","","choice_trial_setup","html-keyboard-response","130","1265033","0.0-5.0-0.23","158","1","2025-04-14 14:17:00","bb671e3ae32f654b8954ea4c4635f915","","Mozilla/5.0 (Windows NT 10.0; Win64; x64) AppleWebKit/537.36 (KHTML, like Gecko) Chrome/135.0.0.0 Safari/537.36","WebKit","Chrome","135.0.0.0","Windows","10.0","https://hz8g1ckzuq.cognition.run/","en-US,en;q=0.9","lmb0tk0qmwb5j6q","20","[""White""]","No","Male","1395987.8999999762","null","","<p></p>","null","choice","ctd","repulsion_2","1","televisions","null","null","null","null","null","null","1","","","","","","","","","",""
"","","","","","choice_trial","survey-html-form","131","1268815","0.0-5.0-1.23","158","1","2025-04-14 14:17:00","bb671e3ae32f654b8954ea4c4635f915","","Mozilla/5.0 (Windows NT 10.0; Win64; x64) AppleWebKit/537.36 (KHTML, like Gecko) Chrome/135.0.0.0 Safari/537.36","WebKit","Chrome","135.0.0.0","Windows","10.0","https://hz8g1ckzuq.cognition.run/","en-US,en;q=0.9","lmb0tk0qmwb5j6q","20","[""White""]","No","Male","1395987.8999999762","3773","","","{""product_choice"":""B""}","choice","ctd","repulsion_2","1","televisions","null","null","null","null","null","null","1","100","90","100","30","40","20","Screen size","Average lifespan","",""
"","","","","","choice_trial_setup","html-keyboard-response","132","1269122","0.0-5.0-0.24","158","1","2025-04-14 14:17:00","bb671e3ae32f654b8954ea4c4635f915","","Mozilla/5.0 (Windows NT 10.0; Win64; x64) AppleWebKit/537.36 (KHTML, like Gecko) Chrome/135.0.0.0 Safari/537.36","WebKit","Chrome","135.0.0.0","Windows","10.0","https://hz8g1ckzuq.cognition.run/","en-US,en;q=0.9","lmb0tk0qmwb5j6q","20","[""White""]","No","Male","1395987.8999999762","null","","<p></p>","null","choice","dct","attraction_2","1","laptops","null","null","null","null","null","null","2","","","","","","","","","",""
"","","","","","choice_trial","survey-html-form","133","1271639","0.0-5.0-1.24","158","1","2025-04-14 14:17:00","bb671e3ae32f654b8954ea4c4635f915","","Mozilla/5.0 (Windows NT 10.0; Win64; x64) AppleWebKit/537.36 (KHTML, like Gecko) Chrome/135.0.0.0 Safari/537.36","WebKit","Chrome","135.0.0.0","Windows","10.0","https://hz8g1ckzuq.cognition.run/","en-US,en;q=0.9","lmb0tk0qmwb5j6q","20","[""White""]","No","Male","1395987.8999999762","2510","","","{""product_choice"":""A""}","choice","dct","attraction_2","1","laptops","null","null","null","null","null","null","2","60","50","60","50","60","40","Processing speed","Memory (RAM)","",""
"","","","","","choice_trial_setup","html-keyboard-response","134","1271946","0.0-5.0-0.25","158","1","2025-04-14 14:17:00","bb671e3ae32f654b8954ea4c4635f915","","Mozilla/5.0 (Windows NT 10.0; Win64; x64) AppleWebKit/537.36 (KHTML, like Gecko) Chrome/135.0.0.0 Safari/537.36","WebKit","Chrome","135.0.0.0","Windows","10.0","https://hz8g1ckzuq.cognition.run/","en-US,en;q=0.9","lmb0tk0qmwb5j6q","20","[""White""]","No","Male","1395987.8999999762","null","","<p></p>","null","choice","dtc","attraction_2","2","laptops","null","null","null","null","null","null","2","","","","","","","","","",""
"","","","","","choice_trial","survey-html-form","135","1278368","0.0-5.0-1.25","158","1","2025-04-14 14:17:00","bb671e3ae32f654b8954ea4c4635f915","","Mozilla/5.0 (Windows NT 10.0; Win64; x64) AppleWebKit/537.36 (KHTML, like Gecko) Chrome/135.0.0.0 Safari/537.36","WebKit","Chrome","135.0.0.0","Windows","10.0","https://hz8g1ckzuq.cognition.run/","en-US,en;q=0.9","lmb0tk0qmwb5j6q","20","[""White""]","No","Male","1395987.8999999762","6408","","","{""product_choice"":""B""}","choice","dtc","attraction_2","2","laptops","null","null","null","null","null","null","2","50","60","40","60","50","60","Processing speed","Memory (RAM)","",""
"","","","","","choice_trial_setup","html-keyboard-response","136","1278679","0.0-5.0-0.26","158","1","2025-04-14 14:17:00","bb671e3ae32f654b8954ea4c4635f915","","Mozilla/5.0 (Windows NT 10.0; Win64; x64) AppleWebKit/537.36 (KHTML, like Gecko) Chrome/135.0.0.0 Safari/537.36","WebKit","Chrome","135.0.0.0","Windows","10.0","https://hz8g1ckzuq.cognition.run/","en-US,en;q=0.9","lmb0tk0qmwb5j6q","20","[""White""]","No","Male","1395987.8999999762","null","","<p></p>","null","choice","ctd","repulsion_2","2","microwave ovens","null","null","null","null","null","null","2","","","","","","","","","",""
"","","","","","choice_trial","survey-html-form","137","1281920","0.0-5.0-1.26","158","1","2025-04-14 14:17:00","bb671e3ae32f654b8954ea4c4635f915","","Mozilla/5.0 (Windows NT 10.0; Win64; x64) AppleWebKit/537.36 (KHTML, like Gecko) Chrome/135.0.0.0 Safari/537.36","WebKit","Chrome","135.0.0.0","Windows","10.0","https://hz8g1ckzuq.cognition.run/","en-US,en;q=0.9","lmb0tk0qmwb5j6q","20","[""White""]","No","Male","1395987.8999999762","3228","","","{""product_choice"":""B""}","choice","ctd","repulsion_2","2","microwave ovens","null","null","null","null","null","null","2","30","40","20","100","90","100","Warranty","Cooking power","",""
"","","","","","choice_trial_setup","html-keyboard-response","138","1282228","0.0-5.0-0.27","158","1","2025-04-14 14:17:00","bb671e3ae32f654b8954ea4c4635f915","","Mozilla/5.0 (Windows NT 10.0; Win64; x64) AppleWebKit/537.36 (KHTML, like Gecko) Chrome/135.0.0.0 Safari/537.36","WebKit","Chrome","135.0.0.0","Windows","10.0","https://hz8g1ckzuq.cognition.run/","en-US,en;q=0.9","lmb0tk0qmwb5j6q","20","[""White""]","No","Male","1395987.8999999762","null","","<p></p>","null","choice","bww","catch","null","washing machines","60","95","30","45","5","30","2","","","","","","","","","",""
"","","","","","choice_trial","survey-html-form","139","1284529","0.0-5.0-1.27","158","1","2025-04-14 14:17:00","bb671e3ae32f654b8954ea4c4635f915","","Mozilla/5.0 (Windows NT 10.0; Win64; x64) AppleWebKit/537.36 (KHTML, like Gecko) Chrome/135.0.0.0 Safari/537.36","WebKit","Chrome","135.0.0.0","Windows","10.0","https://hz8g1ckzuq.cognition.run/","en-US,en;q=0.9","lmb0tk0qmwb5j6q","20","[""White""]","No","Male","1395987.8999999762","2294","","","{""product_choice"":""A""}","choice","bww","catch","null","washing machines","60","95","30","45","5","30","2","null","null","null","null","null","null","Average lifespan","Energy savings","",""
"","","","","","choice_trial_setup","html-keyboard-response","140","1284833","0.0-5.0-0.28","158","1","2025-04-14 14:17:00","bb671e3ae32f654b8954ea4c4635f915","","Mozilla/5.0 (Windows NT 10.0; Win64; x64) AppleWebKit/537.36 (KHTML, like Gecko) Chrome/135.0.0.0 Safari/537.36","WebKit","Chrome","135.0.0.0","Windows","10.0","https://hz8g1ckzuq.cognition.run/","en-US,en;q=0.9","lmb0tk0qmwb5j6q","20","[""White""]","No","Male","1395987.8999999762","null","","<p></p>","null","choice","wwb","catch","null","laptops","65","90","45","35","30","15","2","","","","","","","","","",""
"","","","","","choice_trial","survey-html-form","141","1289286","0.0-5.0-1.28","158","1","2025-04-14 14:17:00","bb671e3ae32f654b8954ea4c4635f915","","Mozilla/5.0 (Windows NT 10.0; Win64; x64) AppleWebKit/537.36 (KHTML, like Gecko) Chrome/135.0.0.0 Safari/537.36","WebKit","Chrome","135.0.0.0","Windows","10.0","https://hz8g1ckzuq.cognition.run/","en-US,en;q=0.9","lmb0tk0qmwb5j6q","20","[""White""]","No","Male","1395987.8999999762","4441","","","{""product_choice"":""C""}","choice","wwb","catch","null","laptops","65","90","45","35","30","15","2","null","null","null","null","null","null","Processing speed","Memory (RAM)","",""
"","","","","","choice_trial_setup","html-keyboard-response","142","1289595","0.0-5.0-0.29","158","1","2025-04-14 14:17:00","bb671e3ae32f654b8954ea4c4635f915","","Mozilla/5.0 (Windows NT 10.0; Win64; x64) AppleWebKit/537.36 (KHTML, like Gecko) Chrome/135.0.0.0 Safari/537.36","WebKit","Chrome","135.0.0.0","Windows","10.0","https://hz8g1ckzuq.cognition.run/","en-US,en;q=0.9","lmb0tk0qmwb5j6q","20","[""White""]","No","Male","1395987.8999999762","null","","<p></p>","null","choice","dtc","attraction_2","2","microwave ovens","null","null","null","null","null","null","1","","","","","","","","","",""
"","","","","","choice_trial","survey-html-form","143","1292369","0.0-5.0-1.29","158","1","2025-04-14 14:17:00","bb671e3ae32f654b8954ea4c4635f915","","Mozilla/5.0 (Windows NT 10.0; Win64; x64) AppleWebKit/537.36 (KHTML, like Gecko) Chrome/135.0.0.0 Safari/537.36","WebKit","Chrome","135.0.0.0","Windows","10.0","https://hz8g1ckzuq.cognition.run/","en-US,en;q=0.9","lmb0tk0qmwb5j6q","20","[""White""]","No","Male","1395987.8999999762","2766","","","{""product_choice"":""A""}","choice","dtc","attraction_2","2","microwave ovens","null","null","null","null","null","null","1","50","60","40","60","50","60","Warranty","Cooking power","",""
"","","","","","choice_trial_setup","html-keyboard-response","144","1292677","0.0-5.0-0.30","158","1","2025-04-14 14:17:00","bb671e3ae32f654b8954ea4c4635f915","","Mozilla/5.0 (Windows NT 10.0; Win64; x64) AppleWebKit/537.36 (KHTML, like Gecko) Chrome/135.0.0.0 Safari/537.36","WebKit","Chrome","135.0.0.0","Windows","10.0","https://hz8g1ckzuq.cognition.run/","en-US,en;q=0.9","lmb0tk0qmwb5j6q","20","[""White""]","No","Male","1395987.8999999762","null","","<p></p>","null","choice","ctd","attraction_2","1","washing machines","null","null","null","null","null","null","1","","","","","","","","","",""
"","","","","","choice_trial","survey-html-form","145","1306684","0.0-5.0-1.30","158","1","2025-04-14 14:17:00","bb671e3ae32f654b8954ea4c4635f915","","Mozilla/5.0 (Windows NT 10.0; Win64; x64) AppleWebKit/537.36 (KHTML, like Gecko) Chrome/135.0.0.0 Safari/537.36","WebKit","Chrome","135.0.0.0","Windows","10.0","https://hz8g1ckzuq.cognition.run/","en-US,en;q=0.9","lmb0tk0qmwb5j6q","20","[""White""]","No","Male","1395987.8999999762","13996","","","{""product_choice"":""B""}","choice","ctd","attraction_2","1","washing machines","null","null","null","null","null","null","1","60","50","60","50","60","40","Average lifespan","Energy savings","",""
"","","","","","choice_trial_setup","html-keyboard-response","146","1306994","0.0-5.0-0.31","158","1","2025-04-14 14:17:00","bb671e3ae32f654b8954ea4c4635f915","","Mozilla/5.0 (Windows NT 10.0; Win64; x64) AppleWebKit/537.36 (KHTML, like Gecko) Chrome/135.0.0.0 Safari/537.36","WebKit","Chrome","135.0.0.0","Windows","10.0","https://hz8g1ckzuq.cognition.run/","en-US,en;q=0.9","lmb0tk0qmwb5j6q","20","[""White""]","No","Male","1395987.8999999762","null","","<p></p>","null","choice","ctd","attraction_1","2","televisions","null","null","null","null","null","null","1","","","","","","","","","",""
"","","","","","choice_trial","survey-html-form","147","1309815","0.0-5.0-1.31","158","1","2025-04-14 14:17:00","bb671e3ae32f654b8954ea4c4635f915","","Mozilla/5.0 (Windows NT 10.0; Win64; x64) AppleWebKit/537.36 (KHTML, like Gecko) Chrome/135.0.0.0 Safari/537.36","WebKit","Chrome","135.0.0.0","Windows","10.0","https://hz8g1ckzuq.cognition.run/","en-US,en;q=0.9","lmb0tk0qmwb5j6q","20","[""White""]","No","Male","1395987.8999999762","2808","","","{""product_choice"":""A""}","choice","ctd","attraction_1","2","televisions","null","null","null","null","null","null","1","50","60","45","60","50","60","Screen size","Average lifespan","",""
"","","","","","choice_trial_setup","html-keyboard-response","148","1310123","0.0-5.0-0.32","158","1","2025-04-14 14:17:00","bb671e3ae32f654b8954ea4c4635f915","","Mozilla/5.0 (Windows NT 10.0; Win64; x64) AppleWebKit/537.36 (KHTML, like Gecko) Chrome/135.0.0.0 Safari/537.36","WebKit","Chrome","135.0.0.0","Windows","10.0","https://hz8g1ckzuq.cognition.run/","en-US,en;q=0.9","lmb0tk0qmwb5j6q","20","[""White""]","No","Male","1395987.8999999762","null","","<p></p>","null","choice","tcd","repulsion_2","2","laptops","null","null","null","null","null","null","2","","","","","","","","","",""
"","","","","","choice_trial","survey-html-form","149","1312936","0.0-5.0-1.32","158","1","2025-04-14 14:17:00","bb671e3ae32f654b8954ea4c4635f915","","Mozilla/5.0 (Windows NT 10.0; Win64; x64) AppleWebKit/537.36 (KHTML, like Gecko) Chrome/135.0.0.0 Safari/537.36","WebKit","Chrome","135.0.0.0","Windows","10.0","https://hz8g1ckzuq.cognition.run/","en-US,en;q=0.9","lmb0tk0qmwb5j6q","20","[""White""]","No","Male","1395987.8999999762","2803","","","{""product_choice"":""B""}","choice","tcd","repulsion_2","2","laptops","null","null","null","null","null","null","2","30","40","20","100","90","100","Processing speed","Memory (RAM)","",""
"","","","","","choice_trial_setup","html-keyboard-response","150","1313245","0.0-5.0-0.33","158","1","2025-04-14 14:17:00","bb671e3ae32f654b8954ea4c4635f915","","Mozilla/5.0 (Windows NT 10.0; Win64; x64) AppleWebKit/537.36 (KHTML, like Gecko) Chrome/135.0.0.0 Safari/537.36","WebKit","Chrome","135.0.0.0","Windows","10.0","https://hz8g1ckzuq.cognition.run/","en-US,en;q=0.9","lmb0tk0qmwb5j6q","20","[""White""]","No","Male","1395987.8999999762","null","","<p></p>","null","choice","dct","repulsion_2","1","washing machines","null","null","null","null","null","null","2","","","","","","","","","",""
"","","","","","choice_trial","survey-html-form","151","1318276","0.0-5.0-1.33","158","1","2025-04-14 14:17:00","bb671e3ae32f654b8954ea4c4635f915","","Mozilla/5.0 (Windows NT 10.0; Win64; x64) AppleWebKit/537.36 (KHTML, like Gecko) Chrome/135.0.0.0 Safari/537.36","WebKit","Chrome","135.0.0.0","Windows","10.0","https://hz8g1ckzuq.cognition.run/","en-US,en;q=0.9","lmb0tk0qmwb5j6q","20","[""White""]","No","Male","1395987.8999999762","5016","","","{""product_choice"":""C""}","choice","dct","repulsion_2","1","washing machines","null","null","null","null","null","null","2","100","90","100","30","40","20","Average lifespan","Energy savings","",""
"","","","","","choice_trial_setup","html-keyboard-response","152","1318586","0.0-5.0-0.34","158","1","2025-04-14 14:17:00","bb671e3ae32f654b8954ea4c4635f915","","Mozilla/5.0 (Windows NT 10.0; Win64; x64) AppleWebKit/537.36 (KHTML, like Gecko) Chrome/135.0.0.0 Safari/537.36","WebKit","Chrome","135.0.0.0","Windows","10.0","https://hz8g1ckzuq.cognition.run/","en-US,en;q=0.9","lmb0tk0qmwb5j6q","20","[""White""]","No","Male","1395987.8999999762","null","","<p></p>","null","choice","tcd","repulsion_2","1","laptops","null","null","null","null","null","null","2","","","","","","","","","",""
"","","","","","choice_trial","survey-html-form","153","1320964","0.0-5.0-1.34","158","1","2025-04-14 14:17:00","bb671e3ae32f654b8954ea4c4635f915","","Mozilla/5.0 (Windows NT 10.0; Win64; x64) AppleWebKit/537.36 (KHTML, like Gecko) Chrome/135.0.0.0 Safari/537.36","WebKit","Chrome","135.0.0.0","Windows","10.0","https://hz8g1ckzuq.cognition.run/","en-US,en;q=0.9","lmb0tk0qmwb5j6q","20","[""White""]","No","Male","1395987.8999999762","2367","","","{""product_choice"":""A""}","choice","tcd","repulsion_2","1","laptops","null","null","null","null","null","null","2","100","90","100","30","40","20","Processing speed","Memory (RAM)","",""
"","","","","","choice_trial_setup","html-keyboard-response","154","1321273","0.0-5.0-0.35","158","1","2025-04-14 14:17:00","bb671e3ae32f654b8954ea4c4635f915","","Mozilla/5.0 (Windows NT 10.0; Win64; x64) AppleWebKit/537.36 (KHTML, like Gecko) Chrome/135.0.0.0 Safari/537.36","WebKit","Chrome","135.0.0.0","Windows","10.0","https://hz8g1ckzuq.cognition.run/","en-US,en;q=0.9","lmb0tk0qmwb5j6q","20","[""White""]","No","Male","1395987.8999999762","null","","<p></p>","null","choice","bww","catch","null","microwave ovens","95","80","35","20","30","10","2","","","","","","","","","",""
"","","","","","choice_trial","survey-html-form","155","1324027","0.0-5.0-1.35","158","1","2025-04-14 14:17:00","bb671e3ae32f654b8954ea4c4635f915","","Mozilla/5.0 (Windows NT 10.0; Win64; x64) AppleWebKit/537.36 (KHTML, like Gecko) Chrome/135.0.0.0 Safari/537.36","WebKit","Chrome","135.0.0.0","Windows","10.0","https://hz8g1ckzuq.cognition.run/","en-US,en;q=0.9","lmb0tk0qmwb5j6q","20","[""White""]","No","Male","1395987.8999999762","2745","","","{""product_choice"":""A""}","choice","bww","catch","null","microwave ovens","95","80","35","20","30","10","2","null","null","null","null","null","null","Warranty","Cooking power","",""
"","","","","","choice_trial_setup","html-keyboard-response","156","1324336","0.0-5.0-0.36","158","1","2025-04-14 14:17:00","bb671e3ae32f654b8954ea4c4635f915","","Mozilla/5.0 (Windows NT 10.0; Win64; x64) AppleWebKit/537.36 (KHTML, like Gecko) Chrome/135.0.0.0 Safari/537.36","WebKit","Chrome","135.0.0.0","Windows","10.0","https://hz8g1ckzuq.cognition.run/","en-US,en;q=0.9","lmb0tk0qmwb5j6q","20","[""White""]","No","Male","1395987.8999999762","null","","<p></p>","null","choice","dct","repulsion_1","1","televisions","null","null","null","null","null","null","1","","","","","","","","","",""
"","","","","","choice_trial","survey-html-form","157","1327217","0.0-5.0-1.36","158","1","2025-04-14 14:17:00","bb671e3ae32f654b8954ea4c4635f915","","Mozilla/5.0 (Windows NT 10.0; Win64; x64) AppleWebKit/537.36 (KHTML, like Gecko) Chrome/135.0.0.0 Safari/537.36","WebKit","Chrome","135.0.0.0","Windows","10.0","https://hz8g1ckzuq.cognition.run/","en-US,en;q=0.9","lmb0tk0qmwb5j6q","20","[""White""]","No","Male","1395987.8999999762","2867","","","{""product_choice"":""B""}","choice","dct","repulsion_1","1","televisions","null","null","null","null","null","null","1","100","90","100","30","40","25","Screen size","Average lifespan","",""
