"success","timeout","failed_images","failed_audio","failed_video","screen_id","trial_type","trial_index","time_elapsed","internal_node_id","run_id","condition","recorded_at","source_code_version","ip","user_agent","device","browser","browser_version","platform","platform_version","referer","accept_language","ppt_id","age","race","ethnicity","gender","exp_duration","rt","view_history","stimulus","response","phase","order","effect","t_high","category","d1_best","d2_best","d1_worst1","d2_worst1","d1_worst2","d2_worst2","first_dim","d1_t","d1_c","d1_d","d2_t","d2_c","d2_d","d1_name","d2_name","strategy_response","question_order"
"true","false","[]","[]","[]","img preload","preload","0","6851","0.0-0.0","161","1","2025-04-14 14:20:53","bb671e3ae32f654b8954ea4c4635f915","","Mozilla/5.0 (Windows NT 10.0; Win64; x64) AppleWebKit/537.36 (KHTML, like Gecko) Chrome/134.0.0.0 Safari/537.36","WebKit","Chrome","134.0.0.0","Windows","10.0","https://hz8g1ckzuq.cognition.run/","en-US,en;q=0.9","yrb1mld0jaecl1h","58","[""White""]","No","Male","2244024.400000006","","","","","","","","","","","","","","","","","","","","","","","","","",""
"true","","","","","","fullscreen","1","12564","0.0-1.0","161","1","2025-04-14 14:20:53","bb671e3ae32f654b8954ea4c4635f915","","Mozilla/5.0 (Windows NT 10.0; Win64; x64) AppleWebKit/537.36 (KHTML, like Gecko) Chrome/134.0.0.0 Safari/537.36","WebKit","Chrome","134.0.0.0","Windows","10.0","https://hz8g1ckzuq.cognition.run/","en-US,en;q=0.9","yrb1mld0jaecl1h","58","[""White""]","No","Male","2244024.400000006","4694","","","","","","","","","","","","","","","","","","","","","","","","",""
"","","","","","","instructions","2","243462","0.0-2.0","161","1","2025-04-14 14:20:53","bb671e3ae32f654b8954ea4c4635f915","","Mozilla/5.0 (Windows NT 10.0; Win64; x64) AppleWebKit/537.36 (KHTML, like Gecko) Chrome/134.0.0.0 Safari/537.36","WebKit","Chrome","134.0.0.0","Windows","10.0","https://hz8g1ckzuq.cognition.run/","en-US,en;q=0.9","yrb1mld0jaecl1h","58","[""White""]","No","Male","2244024.400000006","230896","[{""page_index"":0,""viewing_time"":3487},{""page_index"":1,""viewing_time"":7379},{""page_index"":2,""viewing_time"":7476},{""page_index"":3,""viewing_time"":6037},{""page_index"":4,""viewing_time"":6407},{""page_index"":5,""viewing_time"":88309},{""page_index"":6,""viewing_time"":52293},{""page_index"":7,""viewing_time"":41851},{""page_index"":8,""viewing_time"":10866},{""page_index"":9,""viewing_time"":6790}]","","","","","","","","","","","","","","","","","","","","","","","",""
"","","","","","rating_trial_setup","html-keyboard-response","3","243777","0.0-3.0-0.0","161","1","2025-04-14 14:20:53","bb671e3ae32f654b8954ea4c4635f915","","Mozilla/5.0 (Windows NT 10.0; Win64; x64) AppleWebKit/537.36 (KHTML, like Gecko) Chrome/134.0.0.0 Safari/537.36","WebKit","Chrome","134.0.0.0","Windows","10.0","https://hz8g1ckzuq.cognition.run/","en-US,en;q=0.9","yrb1mld0jaecl1h","58","[""White""]","No","Male","2244024.400000006","null","","<p></p>","null","rating","wwb","catch","null","washing machines","80","55","5","20","50","45","1","","","","","","","","","",""
"","","","","","rating_trial","survey-html-form","4","352812","0.0-3.0-1.0","161","1","2025-04-14 14:20:53","bb671e3ae32f654b8954ea4c4635f915","","Mozilla/5.0 (Windows NT 10.0; Win64; x64) AppleWebKit/537.36 (KHTML, like Gecko) Chrome/134.0.0.0 Safari/537.36","WebKit","Chrome","134.0.0.0","Windows","10.0","https://hz8g1ckzuq.cognition.run/","en-US,en;q=0.9","yrb1mld0jaecl1h","58","[""White""]","No","Male","2244024.400000006","109029","","","{""price_1"":""450"",""price_2"":""600"",""price_3"":""800""}","rating","wwb","catch","null","washing machines","80","55","5","20","50","45","1","null","null","null","null","null","null","Average lifespan","Energy savings","",""
"","","","","","rating_trial_setup","html-keyboard-response","5","353125","0.0-3.0-0.1","161","1","2025-04-14 14:20:53","bb671e3ae32f654b8954ea4c4635f915","","Mozilla/5.0 (Windows NT 10.0; Win64; x64) AppleWebKit/537.36 (KHTML, like Gecko) Chrome/134.0.0.0 Safari/537.36","WebKit","Chrome","134.0.0.0","Windows","10.0","https://hz8g1ckzuq.cognition.run/","en-US,en;q=0.9","yrb1mld0jaecl1h","58","[""White""]","No","Male","2244024.400000006","null","","<p></p>","null","rating","tdc","attraction_1","2","televisions","null","null","null","null","null","null","1","","","","","","","","","",""
"","","","","","rating_trial","survey-html-form","6","403150","0.0-3.0-1.1","161","1","2025-04-14 14:20:53","bb671e3ae32f654b8954ea4c4635f915","","Mozilla/5.0 (Windows NT 10.0; Win64; x64) AppleWebKit/537.36 (KHTML, like Gecko) Chrome/134.0.0.0 Safari/537.36","WebKit","Chrome","134.0.0.0","Windows","10.0","https://hz8g1ckzuq.cognition.run/","en-US,en;q=0.9","yrb1mld0jaecl1h","58","[""White""]","No","Male","2244024.400000006","50020","","","{""price_1"":""900"",""price_2"":""800"",""price_3"":""900""}","rating","tdc","attraction_1","2","televisions","null","null","null","null","null","null","1","50","60","45","60","50","60","Screen size","Average lifespan","",""
"","","","","","rating_trial_setup","html-keyboard-response","7","403452","0.0-3.0-0.2","161","1","2025-04-14 14:20:53","bb671e3ae32f654b8954ea4c4635f915","","Mozilla/5.0 (Windows NT 10.0; Win64; x64) AppleWebKit/537.36 (KHTML, like Gecko) Chrome/134.0.0.0 Safari/537.36","WebKit","Chrome","134.0.0.0","Windows","10.0","https://hz8g1ckzuq.cognition.run/","en-US,en;q=0.9","yrb1mld0jaecl1h","58","[""White""]","No","Male","2244024.400000006","null","","<p></p>","null","rating","tdc","repulsion_1","1","washing machines","null","null","null","null","null","null","2","","","","","","","","","",""
"","","","","","rating_trial","survey-html-form","8","454122","0.0-3.0-1.2","161","1","2025-04-14 14:20:53","bb671e3ae32f654b8954ea4c4635f915","","Mozilla/5.0 (Windows NT 10.0; Win64; x64) AppleWebKit/537.36 (KHTML, like Gecko) Chrome/134.0.0.0 Safari/537.36","WebKit","Chrome","134.0.0.0","Windows","10.0","https://hz8g1ckzuq.cognition.run/","en-US,en;q=0.9","yrb1mld0jaecl1h","58","[""White""]","No","Male","2244024.400000006","50667","","","{""price_1"":""750"",""price_2"":""700"",""price_3"":""800""}","rating","tdc","repulsion_1","1","washing machines","null","null","null","null","null","null","2","100","90","100","30","40","25","Average lifespan","Energy savings","",""
"","","","","","rating_trial_setup","html-keyboard-response","9","454425","0.0-3.0-0.3","161","1","2025-04-14 14:20:53","bb671e3ae32f654b8954ea4c4635f915","","Mozilla/5.0 (Windows NT 10.0; Win64; x64) AppleWebKit/537.36 (KHTML, like Gecko) Chrome/134.0.0.0 Safari/537.36","WebKit","Chrome","134.0.0.0","Windows","10.0","https://hz8g1ckzuq.cognition.run/","en-US,en;q=0.9","yrb1mld0jaecl1h","58","[""White""]","No","Male","2244024.400000006","null","","<p></p>","null","rating","wbw","catch","null","laptops","65","60","40","30","50","5","2","","","","","","","","","",""
"","","","","","rating_trial","survey-html-form","10","542215","0.0-3.0-1.3","161","1","2025-04-14 14:20:53","bb671e3ae32f654b8954ea4c4635f915","","Mozilla/5.0 (Windows NT 10.0; Win64; x64) AppleWebKit/537.36 (KHTML, like Gecko) Chrome/134.0.0.0 Safari/537.36","WebKit","Chrome","134.0.0.0","Windows","10.0","https://hz8g1ckzuq.cognition.run/","en-US,en;q=0.9","yrb1mld0jaecl1h","58","[""White""]","No","Male","2244024.400000006","87786","","","{""price_1"":""500"",""price_2"":""700"",""price_3"":""300""}","rating","wbw","catch","null","laptops","65","60","40","30","50","5","2","null","null","null","null","null","null","Processing speed","Memory (RAM)","",""
"","","","","","rating_trial_setup","html-keyboard-response","11","542519","0.0-3.0-0.4","161","1","2025-04-14 14:20:53","bb671e3ae32f654b8954ea4c4635f915","","Mozilla/5.0 (Windows NT 10.0; Win64; x64) AppleWebKit/537.36 (KHTML, like Gecko) Chrome/134.0.0.0 Safari/537.36","WebKit","Chrome","134.0.0.0","Windows","10.0","https://hz8g1ckzuq.cognition.run/","en-US,en;q=0.9","yrb1mld0jaecl1h","58","[""White""]","No","Male","2244024.400000006","null","","<p></p>","null","rating","tdc","attraction_1","2","washing machines","null","null","null","null","null","null","2","","","","","","","","","",""
"","","","","","rating_trial","survey-html-form","12","562059","0.0-3.0-1.4","161","1","2025-04-14 14:20:53","bb671e3ae32f654b8954ea4c4635f915","","Mozilla/5.0 (Windows NT 10.0; Win64; x64) AppleWebKit/537.36 (KHTML, like Gecko) Chrome/134.0.0.0 Safari/537.36","WebKit","Chrome","134.0.0.0","Windows","10.0","https://hz8g1ckzuq.cognition.run/","en-US,en;q=0.9","yrb1mld0jaecl1h","58","[""White""]","No","Male","2244024.400000006","19538","","","{""price_1"":""600"",""price_2"":""500"",""price_3"":""450""}","rating","tdc","attraction_1","2","washing machines","null","null","null","null","null","null","2","50","60","45","60","50","60","Average lifespan","Energy savings","",""
"","","","","","rating_trial_setup","html-keyboard-response","13","562362","0.0-3.0-0.5","161","1","2025-04-14 14:20:53","bb671e3ae32f654b8954ea4c4635f915","","Mozilla/5.0 (Windows NT 10.0; Win64; x64) AppleWebKit/537.36 (KHTML, like Gecko) Chrome/134.0.0.0 Safari/537.36","WebKit","Chrome","134.0.0.0","Windows","10.0","https://hz8g1ckzuq.cognition.run/","en-US,en;q=0.9","yrb1mld0jaecl1h","58","[""White""]","No","Male","2244024.400000006","null","","<p></p>","null","rating","cdt","repulsion_2","2","microwave ovens","null","null","null","null","null","null","1","","","","","","","","","",""
"","","","","","rating_trial","survey-html-form","14","606353","0.0-3.0-1.5","161","1","2025-04-14 14:20:53","bb671e3ae32f654b8954ea4c4635f915","","Mozilla/5.0 (Windows NT 10.0; Win64; x64) AppleWebKit/537.36 (KHTML, like Gecko) Chrome/134.0.0.0 Safari/537.36","WebKit","Chrome","134.0.0.0","Windows","10.0","https://hz8g1ckzuq.cognition.run/","en-US,en;q=0.9","yrb1mld0jaecl1h","58","[""White""]","No","Male","2244024.400000006","43989","","","{""price_1"":""150"",""price_2"":""100"",""price_3"":""110""}","rating","cdt","repulsion_2","2","microwave ovens","null","null","null","null","null","null","1","30","40","20","100","90","100","Warranty","Cooking power","",""
"","","","","","rating_trial_setup","html-keyboard-response","15","606656","0.0-3.0-0.6","161","1","2025-04-14 14:20:53","bb671e3ae32f654b8954ea4c4635f915","","Mozilla/5.0 (Windows NT 10.0; Win64; x64) AppleWebKit/537.36 (KHTML, like Gecko) Chrome/134.0.0.0 Safari/537.36","WebKit","Chrome","134.0.0.0","Windows","10.0","https://hz8g1ckzuq.cognition.run/","en-US,en;q=0.9","yrb1mld0jaecl1h","58","[""White""]","No","Male","2244024.400000006","null","","<p></p>","null","rating","ctd","repulsion_2","1","laptops","null","null","null","null","null","null","1","","","","","","","","","",""
"","","","","","rating_trial","survey-html-form","16","643647","0.0-3.0-1.6","161","1","2025-04-14 14:20:53","bb671e3ae32f654b8954ea4c4635f915","","Mozilla/5.0 (Windows NT 10.0; Win64; x64) AppleWebKit/537.36 (KHTML, like Gecko) Chrome/134.0.0.0 Safari/537.36","WebKit","Chrome","134.0.0.0","Windows","10.0","https://hz8g1ckzuq.cognition.run/","en-US,en;q=0.9","yrb1mld0jaecl1h","58","[""White""]","No","Male","2244024.400000006","36985","","","{""price_1"":""1000"",""price_2"":""900"",""price_3"":""800""}","rating","ctd","repulsion_2","1","laptops","null","null","null","null","null","null","1","100","90","100","30","40","20","Processing speed","Memory (RAM)","",""
"","","","","","rating_trial_setup","html-keyboard-response","17","643949","0.0-3.0-0.7","161","1","2025-04-14 14:20:53","bb671e3ae32f654b8954ea4c4635f915","","Mozilla/5.0 (Windows NT 10.0; Win64; x64) AppleWebKit/537.36 (KHTML, like Gecko) Chrome/134.0.0.0 Safari/537.36","WebKit","Chrome","134.0.0.0","Windows","10.0","https://hz8g1ckzuq.cognition.run/","en-US,en;q=0.9","yrb1mld0jaecl1h","58","[""White""]","No","Male","2244024.400000006","null","","<p></p>","null","rating","dct","attraction_2","1","televisions","null","null","null","null","null","null","1","","","","","","","","","",""
"","","","","","rating_trial","survey-html-form","18","707348","0.0-3.0-1.7","161","1","2025-04-14 14:20:53","bb671e3ae32f654b8954ea4c4635f915","","Mozilla/5.0 (Windows NT 10.0; Win64; x64) AppleWebKit/537.36 (KHTML, like Gecko) Chrome/134.0.0.0 Safari/537.36","WebKit","Chrome","134.0.0.0","Windows","10.0","https://hz8g1ckzuq.cognition.run/","en-US,en;q=0.9","yrb1mld0jaecl1h","58","[""White""]","No","Male","2244024.400000006","63396","","","{""price_1"":""700"",""price_2"":""800"",""price_3"":""750""}","rating","dct","attraction_2","1","televisions","null","null","null","null","null","null","1","60","50","60","50","60","40","Screen size","Average lifespan","",""
"","","","","","rating_trial_setup","html-keyboard-response","19","707651","0.0-3.0-0.8","161","1","2025-04-14 14:20:53","bb671e3ae32f654b8954ea4c4635f915","","Mozilla/5.0 (Windows NT 10.0; Win64; x64) AppleWebKit/537.36 (KHTML, like Gecko) Chrome/134.0.0.0 Safari/537.36","WebKit","Chrome","134.0.0.0","Windows","10.0","https://hz8g1ckzuq.cognition.run/","en-US,en;q=0.9","yrb1mld0jaecl1h","58","[""White""]","No","Male","2244024.400000006","null","","<p></p>","null","rating","bww","catch","null","microwave ovens","65","90","20","20","10","50","1","","","","","","","","","",""
"","","","","","rating_trial","survey-html-form","20","749467","0.0-3.0-1.8","161","1","2025-04-14 14:20:53","bb671e3ae32f654b8954ea4c4635f915","","Mozilla/5.0 (Windows NT 10.0; Win64; x64) AppleWebKit/537.36 (KHTML, like Gecko) Chrome/134.0.0.0 Safari/537.36","WebKit","Chrome","134.0.0.0","Windows","10.0","https://hz8g1ckzuq.cognition.run/","en-US,en;q=0.9","yrb1mld0jaecl1h","58","[""White""]","No","Male","2244024.400000006","41810","","","{""price_1"":""200"",""price_2"":""75"",""price_3"":""105""}","rating","bww","catch","null","microwave ovens","65","90","20","20","10","50","1","null","null","null","null","null","null","Warranty","Cooking power","",""
"","","","","","rating_trial_setup","html-keyboard-response","21","749770","0.0-3.0-0.9","161","1","2025-04-14 14:20:53","bb671e3ae32f654b8954ea4c4635f915","","Mozilla/5.0 (Windows NT 10.0; Win64; x64) AppleWebKit/537.36 (KHTML, like Gecko) Chrome/134.0.0.0 Safari/537.36","WebKit","Chrome","134.0.0.0","Windows","10.0","https://hz8g1ckzuq.cognition.run/","en-US,en;q=0.9","yrb1mld0jaecl1h","58","[""White""]","No","Male","2244024.400000006","null","","<p></p>","null","rating","ctd","repulsion_1","2","televisions","null","null","null","null","null","null","2","","","","","","","","","",""
"","","","","","rating_trial","survey-html-form","22","790324","0.0-3.0-1.9","161","1","2025-04-14 14:20:53","bb671e3ae32f654b8954ea4c4635f915","","Mozilla/5.0 (Windows NT 10.0; Win64; x64) AppleWebKit/537.36 (KHTML, like Gecko) Chrome/134.0.0.0 Safari/537.36","WebKit","Chrome","134.0.0.0","Windows","10.0","https://hz8g1ckzuq.cognition.run/","en-US,en;q=0.9","yrb1mld0jaecl1h","58","[""White""]","No","Male","2244024.400000006","40548","","","{""price_1"":""750"",""price_2"":""700"",""price_3"":""650""}","rating","ctd","repulsion_1","2","televisions","null","null","null","null","null","null","2","30","40","25","100","90","100","Screen size","Average lifespan","",""
"","","","","","rating_trial_setup","html-keyboard-response","23","790628","0.0-3.0-0.10","161","1","2025-04-14 14:20:53","bb671e3ae32f654b8954ea4c4635f915","","Mozilla/5.0 (Windows NT 10.0; Win64; x64) AppleWebKit/537.36 (KHTML, like Gecko) Chrome/134.0.0.0 Safari/537.36","WebKit","Chrome","134.0.0.0","Windows","10.0","https://hz8g1ckzuq.cognition.run/","en-US,en;q=0.9","yrb1mld0jaecl1h","58","[""White""]","No","Male","2244024.400000006","null","","<p></p>","null","rating","tcd","attraction_1","1","microwave ovens","null","null","null","null","null","null","1","","","","","","","","","",""
"","","","","","rating_trial","survey-html-form","24","816705","0.0-3.0-1.10","161","1","2025-04-14 14:20:53","bb671e3ae32f654b8954ea4c4635f915","","Mozilla/5.0 (Windows NT 10.0; Win64; x64) AppleWebKit/537.36 (KHTML, like Gecko) Chrome/134.0.0.0 Safari/537.36","WebKit","Chrome","134.0.0.0","Windows","10.0","https://hz8g1ckzuq.cognition.run/","en-US,en;q=0.9","yrb1mld0jaecl1h","58","[""White""]","No","Male","2244024.400000006","26070","","","{""price_1"":""150"",""price_2"":""180"",""price_3"":""120""}","rating","tcd","attraction_1","1","microwave ovens","null","null","null","null","null","null","1","60","50","60","50","60","45","Warranty","Cooking power","",""
"","","","","","rating_trial_setup","html-keyboard-response","25","817010","0.0-3.0-0.11","161","1","2025-04-14 14:20:53","bb671e3ae32f654b8954ea4c4635f915","","Mozilla/5.0 (Windows NT 10.0; Win64; x64) AppleWebKit/537.36 (KHTML, like Gecko) Chrome/134.0.0.0 Safari/537.36","WebKit","Chrome","134.0.0.0","Windows","10.0","https://hz8g1ckzuq.cognition.run/","en-US,en;q=0.9","yrb1mld0jaecl1h","58","[""White""]","No","Male","2244024.400000006","null","","<p></p>","null","rating","tcd","repulsion_1","1","microwave ovens","null","null","null","null","null","null","1","","","","","","","","","",""
"","","","","","rating_trial","survey-html-form","26","831927","0.0-3.0-1.11","161","1","2025-04-14 14:20:53","bb671e3ae32f654b8954ea4c4635f915","","Mozilla/5.0 (Windows NT 10.0; Win64; x64) AppleWebKit/537.36 (KHTML, like Gecko) Chrome/134.0.0.0 Safari/537.36","WebKit","Chrome","134.0.0.0","Windows","10.0","https://hz8g1ckzuq.cognition.run/","en-US,en;q=0.9","yrb1mld0jaecl1h","58","[""White""]","No","Male","2244024.400000006","14913","","","{""price_1"":""100"",""price_2"":""100"",""price_3"":""80""}","rating","tcd","repulsion_1","1","microwave ovens","null","null","null","null","null","null","1","100","90","100","30","40","25","Warranty","Cooking power","",""
"","","","","","rating_trial_setup","html-keyboard-response","27","832231","0.0-3.0-0.12","161","1","2025-04-14 14:20:53","bb671e3ae32f654b8954ea4c4635f915","","Mozilla/5.0 (Windows NT 10.0; Win64; x64) AppleWebKit/537.36 (KHTML, like Gecko) Chrome/134.0.0.0 Safari/537.36","WebKit","Chrome","134.0.0.0","Windows","10.0","https://hz8g1ckzuq.cognition.run/","en-US,en;q=0.9","yrb1mld0jaecl1h","58","[""White""]","No","Male","2244024.400000006","null","","<p></p>","null","rating","dct","attraction_2","2","televisions","null","null","null","null","null","null","2","","","","","","","","","",""
"","","","","","rating_trial","survey-html-form","28","861446","0.0-3.0-1.12","161","1","2025-04-14 14:20:53","bb671e3ae32f654b8954ea4c4635f915","","Mozilla/5.0 (Windows NT 10.0; Win64; x64) AppleWebKit/537.36 (KHTML, like Gecko) Chrome/134.0.0.0 Safari/537.36","WebKit","Chrome","134.0.0.0","Windows","10.0","https://hz8g1ckzuq.cognition.run/","en-US,en;q=0.9","yrb1mld0jaecl1h","58","[""White""]","No","Male","2244024.400000006","29210","","","{""price_1"":""700"",""price_2"":""750"",""price_3"":""800""}","rating","dct","attraction_2","2","televisions","null","null","null","null","null","null","2","50","60","40","60","50","60","Screen size","Average lifespan","",""
"","","","","","rating_trial_setup","html-keyboard-response","29","861749","0.0-3.0-0.13","161","1","2025-04-14 14:20:53","bb671e3ae32f654b8954ea4c4635f915","","Mozilla/5.0 (Windows NT 10.0; Win64; x64) AppleWebKit/537.36 (KHTML, like Gecko) Chrome/134.0.0.0 Safari/537.36","WebKit","Chrome","134.0.0.0","Windows","10.0","https://hz8g1ckzuq.cognition.run/","en-US,en;q=0.9","yrb1mld0jaecl1h","58","[""White""]","No","Male","2244024.400000006","null","","<p></p>","null","rating","ctd","attraction_1","1","televisions","null","null","null","null","null","null","1","","","","","","","","","",""
"","","","","","rating_trial","survey-html-form","30","884952","0.0-3.0-1.13","161","1","2025-04-14 14:20:53","bb671e3ae32f654b8954ea4c4635f915","","Mozilla/5.0 (Windows NT 10.0; Win64; x64) AppleWebKit/537.36 (KHTML, like Gecko) Chrome/134.0.0.0 Safari/537.36","WebKit","Chrome","134.0.0.0","Windows","10.0","https://hz8g1ckzuq.cognition.run/","en-US,en;q=0.9","yrb1mld0jaecl1h","58","[""White""]","No","Male","2244024.400000006","23200","","","{""price_1"":""750"",""price_2"":""700"",""price_3"":""600""}","rating","ctd","attraction_1","1","televisions","null","null","null","null","null","null","1","60","50","60","50","60","45","Screen size","Average lifespan","",""
"","","","","","rating_trial_setup","html-keyboard-response","31","885255","0.0-3.0-0.14","161","1","2025-04-14 14:20:53","bb671e3ae32f654b8954ea4c4635f915","","Mozilla/5.0 (Windows NT 10.0; Win64; x64) AppleWebKit/537.36 (KHTML, like Gecko) Chrome/134.0.0.0 Safari/537.36","WebKit","Chrome","134.0.0.0","Windows","10.0","https://hz8g1ckzuq.cognition.run/","en-US,en;q=0.9","yrb1mld0jaecl1h","58","[""White""]","No","Male","2244024.400000006","null","","<p></p>","null","rating","dct","repulsion_1","1","laptops","null","null","null","null","null","null","2","","","","","","","","","",""
"","","","","","rating_trial","survey-html-form","32","902317","0.0-3.0-1.14","161","1","2025-04-14 14:20:53","bb671e3ae32f654b8954ea4c4635f915","","Mozilla/5.0 (Windows NT 10.0; Win64; x64) AppleWebKit/537.36 (KHTML, like Gecko) Chrome/134.0.0.0 Safari/537.36","WebKit","Chrome","134.0.0.0","Windows","10.0","https://hz8g1ckzuq.cognition.run/","en-US,en;q=0.9","yrb1mld0jaecl1h","58","[""White""]","No","Male","2244024.400000006","17056","","","{""price_1"":""800"",""price_2"":""800"",""price_3"":""800""}","rating","dct","repulsion_1","1","laptops","null","null","null","null","null","null","2","100","90","100","30","40","25","Processing speed","Memory (RAM)","",""
"","","","","","rating_trial_setup","html-keyboard-response","33","902619","0.0-3.0-0.15","161","1","2025-04-14 14:20:53","bb671e3ae32f654b8954ea4c4635f915","","Mozilla/5.0 (Windows NT 10.0; Win64; x64) AppleWebKit/537.36 (KHTML, like Gecko) Chrome/134.0.0.0 Safari/537.36","WebKit","Chrome","134.0.0.0","Windows","10.0","https://hz8g1ckzuq.cognition.run/","en-US,en;q=0.9","yrb1mld0jaecl1h","58","[""White""]","No","Male","2244024.400000006","null","","<p></p>","null","rating","wbw","catch","null","televisions","50","50","40","25","45","20","2","","","","","","","","","",""
"","","","","","rating_trial","survey-html-form","34","936887","0.0-3.0-1.15","161","1","2025-04-14 14:20:53","bb671e3ae32f654b8954ea4c4635f915","","Mozilla/5.0 (Windows NT 10.0; Win64; x64) AppleWebKit/537.36 (KHTML, like Gecko) Chrome/134.0.0.0 Safari/537.36","WebKit","Chrome","134.0.0.0","Windows","10.0","https://hz8g1ckzuq.cognition.run/","en-US,en;q=0.9","yrb1mld0jaecl1h","58","[""White""]","No","Male","2244024.400000006","34264","","","{""price_1"":""450"",""price_2"":""600"",""price_3"":""400""}","rating","wbw","catch","null","televisions","50","50","40","25","45","20","2","null","null","null","null","null","null","Screen size","Average lifespan","",""
"","","","","","rating_trial_setup","html-keyboard-response","35","937189","0.0-3.0-0.16","161","1","2025-04-14 14:20:53","bb671e3ae32f654b8954ea4c4635f915","","Mozilla/5.0 (Windows NT 10.0; Win64; x64) AppleWebKit/537.36 (KHTML, like Gecko) Chrome/134.0.0.0 Safari/537.36","WebKit","Chrome","134.0.0.0","Windows","10.0","https://hz8g1ckzuq.cognition.run/","en-US,en;q=0.9","yrb1mld0jaecl1h","58","[""White""]","No","Male","2244024.400000006","null","","<p></p>","null","rating","dtc","attraction_1","1","laptops","null","null","null","null","null","null","2","","","","","","","","","",""
"","","","","","rating_trial","survey-html-form","36","979352","0.0-3.0-1.16","161","1","2025-04-14 14:20:53","bb671e3ae32f654b8954ea4c4635f915","","Mozilla/5.0 (Windows NT 10.0; Win64; x64) AppleWebKit/537.36 (KHTML, like Gecko) Chrome/134.0.0.0 Safari/537.36","WebKit","Chrome","134.0.0.0","Windows","10.0","https://hz8g1ckzuq.cognition.run/","en-US,en;q=0.9","yrb1mld0jaecl1h","58","[""White""]","No","Male","2244024.400000006","42159","","","{""price_1"":""700"",""price_2"":""800"",""price_3"":""800""}","rating","dtc","attraction_1","1","laptops","null","null","null","null","null","null","2","60","50","60","50","60","45","Processing speed","Memory (RAM)","",""
"","","","","","rating_trial_setup","html-keyboard-response","37","979656","0.0-3.0-0.17","161","1","2025-04-14 14:20:53","bb671e3ae32f654b8954ea4c4635f915","","Mozilla/5.0 (Windows NT 10.0; Win64; x64) AppleWebKit/537.36 (KHTML, like Gecko) Chrome/134.0.0.0 Safari/537.36","WebKit","Chrome","134.0.0.0","Windows","10.0","https://hz8g1ckzuq.cognition.run/","en-US,en;q=0.9","yrb1mld0jaecl1h","58","[""White""]","No","Male","2244024.400000006","null","","<p></p>","null","rating","dct","attraction_2","1","laptops","null","null","null","null","null","null","1","","","","","","","","","",""
"","","","","","rating_trial","survey-html-form","38","1000367","0.0-3.0-1.17","161","1","2025-04-14 14:20:53","bb671e3ae32f654b8954ea4c4635f915","","Mozilla/5.0 (Windows NT 10.0; Win64; x64) AppleWebKit/537.36 (KHTML, like Gecko) Chrome/134.0.0.0 Safari/537.36","WebKit","Chrome","134.0.0.0","Windows","10.0","https://hz8g1ckzuq.cognition.run/","en-US,en;q=0.9","yrb1mld0jaecl1h","58","[""White""]","No","Male","2244024.400000006","20705","","","{""price_1"":""700"",""price_2"":""800"",""price_3"":""800""}","rating","dct","attraction_2","1","laptops","null","null","null","null","null","null","1","60","50","60","50","60","40","Processing speed","Memory (RAM)","",""
"","","","","","rating_trial_setup","html-keyboard-response","39","1000671","0.0-3.0-0.18","161","1","2025-04-14 14:20:53","bb671e3ae32f654b8954ea4c4635f915","","Mozilla/5.0 (Windows NT 10.0; Win64; x64) AppleWebKit/537.36 (KHTML, like Gecko) Chrome/134.0.0.0 Safari/537.36","WebKit","Chrome","134.0.0.0","Windows","10.0","https://hz8g1ckzuq.cognition.run/","en-US,en;q=0.9","yrb1mld0jaecl1h","58","[""White""]","No","Male","2244024.400000006","null","","<p></p>","null","rating","wbw","catch","null","microwave ovens","90","60","20","40","40","35","1","","","","","","","","","",""
"","","","","","rating_trial","survey-html-form","40","1028075","0.0-3.0-1.18","161","1","2025-04-14 14:20:53","bb671e3ae32f654b8954ea4c4635f915","","Mozilla/5.0 (Windows NT 10.0; Win64; x64) AppleWebKit/537.36 (KHTML, like Gecko) Chrome/134.0.0.0 Safari/537.36","WebKit","Chrome","134.0.0.0","Windows","10.0","https://hz8g1ckzuq.cognition.run/","en-US,en;q=0.9","yrb1mld0jaecl1h","58","[""White""]","No","Male","2244024.400000006","27401","","","{""price_1"":""120"",""price_2"":""200"",""price_3"":""140""}","rating","wbw","catch","null","microwave ovens","90","60","20","40","40","35","1","null","null","null","null","null","null","Warranty","Cooking power","",""
"","","","","","rating_trial_setup","html-keyboard-response","41","1028378","0.0-3.0-0.19","161","1","2025-04-14 14:20:53","bb671e3ae32f654b8954ea4c4635f915","","Mozilla/5.0 (Windows NT 10.0; Win64; x64) AppleWebKit/537.36 (KHTML, like Gecko) Chrome/134.0.0.0 Safari/537.36","WebKit","Chrome","134.0.0.0","Windows","10.0","https://hz8g1ckzuq.cognition.run/","en-US,en;q=0.9","yrb1mld0jaecl1h","58","[""White""]","No","Male","2244024.400000006","null","","<p></p>","null","rating","cdt","repulsion_2","1","microwave ovens","null","null","null","null","null","null","1","","","","","","","","","",""
"","","","","","rating_trial","survey-html-form","42","1047893","0.0-3.0-1.19","161","1","2025-04-14 14:20:53","bb671e3ae32f654b8954ea4c4635f915","","Mozilla/5.0 (Windows NT 10.0; Win64; x64) AppleWebKit/537.36 (KHTML, like Gecko) Chrome/134.0.0.0 Safari/537.36","WebKit","Chrome","134.0.0.0","Windows","10.0","https://hz8g1ckzuq.cognition.run/","en-US,en;q=0.9","yrb1mld0jaecl1h","58","[""White""]","No","Male","2244024.400000006","19509","","","{""price_1"":""150"",""price_2"":""120"",""price_3"":""130""}","rating","cdt","repulsion_2","1","microwave ovens","null","null","null","null","null","null","1","100","90","100","30","40","20","Warranty","Cooking power","",""
"","","","","","rating_trial_setup","html-keyboard-response","43","1048195","0.0-3.0-0.20","161","1","2025-04-14 14:20:53","bb671e3ae32f654b8954ea4c4635f915","","Mozilla/5.0 (Windows NT 10.0; Win64; x64) AppleWebKit/537.36 (KHTML, like Gecko) Chrome/134.0.0.0 Safari/537.36","WebKit","Chrome","134.0.0.0","Windows","10.0","https://hz8g1ckzuq.cognition.run/","en-US,en;q=0.9","yrb1mld0jaecl1h","58","[""White""]","No","Male","2244024.400000006","null","","<p></p>","null","rating","ctd","attraction_2","2","laptops","null","null","null","null","null","null","2","","","","","","","","","",""
"","","","","","rating_trial","survey-html-form","44","1067531","0.0-3.0-1.20","161","1","2025-04-14 14:20:53","bb671e3ae32f654b8954ea4c4635f915","","Mozilla/5.0 (Windows NT 10.0; Win64; x64) AppleWebKit/537.36 (KHTML, like Gecko) Chrome/134.0.0.0 Safari/537.36","WebKit","Chrome","134.0.0.0","Windows","10.0","https://hz8g1ckzuq.cognition.run/","en-US,en;q=0.9","yrb1mld0jaecl1h","58","[""White""]","No","Male","2244024.400000006","19332","","","{""price_1"":""800"",""price_2"":""800"",""price_3"":""700""}","rating","ctd","attraction_2","2","laptops","null","null","null","null","null","null","2","50","60","40","60","50","60","Processing speed","Memory (RAM)","",""
"","","","","","rating_trial_setup","html-keyboard-response","45","1067847","0.0-3.0-0.21","161","1","2025-04-14 14:20:53","bb671e3ae32f654b8954ea4c4635f915","","Mozilla/5.0 (Windows NT 10.0; Win64; x64) AppleWebKit/537.36 (KHTML, like Gecko) Chrome/134.0.0.0 Safari/537.36","WebKit","Chrome","134.0.0.0","Windows","10.0","https://hz8g1ckzuq.cognition.run/","en-US,en;q=0.9","yrb1mld0jaecl1h","58","[""White""]","No","Male","2244024.400000006","null","","<p></p>","null","rating","ctd","attraction_2","2","microwave ovens","null","null","null","null","null","null","2","","","","","","","","","",""
"","","","","","rating_trial","survey-html-form","46","1092034","0.0-3.0-1.21","161","1","2025-04-14 14:20:53","bb671e3ae32f654b8954ea4c4635f915","","Mozilla/5.0 (Windows NT 10.0; Win64; x64) AppleWebKit/537.36 (KHTML, like Gecko) Chrome/134.0.0.0 Safari/537.36","WebKit","Chrome","134.0.0.0","Windows","10.0","https://hz8g1ckzuq.cognition.run/","en-US,en;q=0.9","yrb1mld0jaecl1h","58","[""White""]","No","Male","2244024.400000006","24184","","","{""price_1"":""150"",""price_2"":""180"",""price_3"":""150""}","rating","ctd","attraction_2","2","microwave ovens","null","null","null","null","null","null","2","50","60","40","60","50","60","Warranty","Cooking power","",""
"","","","","","rating_trial_setup","html-keyboard-response","47","1092338","0.0-3.0-0.22","161","1","2025-04-14 14:20:53","bb671e3ae32f654b8954ea4c4635f915","","Mozilla/5.0 (Windows NT 10.0; Win64; x64) AppleWebKit/537.36 (KHTML, like Gecko) Chrome/134.0.0.0 Safari/537.36","WebKit","Chrome","134.0.0.0","Windows","10.0","https://hz8g1ckzuq.cognition.run/","en-US,en;q=0.9","yrb1mld0jaecl1h","58","[""White""]","No","Male","2244024.400000006","null","","<p></p>","null","rating","dct","repulsion_2","2","televisions","null","null","null","null","null","null","2","","","","","","","","","",""
"","","","","","rating_trial","survey-html-form","48","1121781","0.0-3.0-1.22","161","1","2025-04-14 14:20:53","bb671e3ae32f654b8954ea4c4635f915","","Mozilla/5.0 (Windows NT 10.0; Win64; x64) AppleWebKit/537.36 (KHTML, like Gecko) Chrome/134.0.0.0 Safari/537.36","WebKit","Chrome","134.0.0.0","Windows","10.0","https://hz8g1ckzuq.cognition.run/","en-US,en;q=0.9","yrb1mld0jaecl1h","58","[""White""]","No","Male","2244024.400000006","29437","","","{""price_1"":""400"",""price_2"":""500"",""price_3"":""450""}","rating","dct","repulsion_2","2","televisions","null","null","null","null","null","null","2","30","40","20","100","90","100","Screen size","Average lifespan","",""
"","","","","","rating_trial_setup","html-keyboard-response","49","1122085","0.0-3.0-0.23","161","1","2025-04-14 14:20:53","bb671e3ae32f654b8954ea4c4635f915","","Mozilla/5.0 (Windows NT 10.0; Win64; x64) AppleWebKit/537.36 (KHTML, like Gecko) Chrome/134.0.0.0 Safari/537.36","WebKit","Chrome","134.0.0.0","Windows","10.0","https://hz8g1ckzuq.cognition.run/","en-US,en;q=0.9","yrb1mld0jaecl1h","58","[""White""]","No","Male","2244024.400000006","null","","<p></p>","null","rating","ctd","repulsion_1","2","laptops","null","null","null","null","null","null","1","","","","","","","","","",""
"","","","","","rating_trial","survey-html-form","50","1161729","0.0-3.0-1.23","161","1","2025-04-14 14:20:53","bb671e3ae32f654b8954ea4c4635f915","","Mozilla/5.0 (Windows NT 10.0; Win64; x64) AppleWebKit/537.36 (KHTML, like Gecko) Chrome/134.0.0.0 Safari/537.36","WebKit","Chrome","134.0.0.0","Windows","10.0","https://hz8g1ckzuq.cognition.run/","en-US,en;q=0.9","yrb1mld0jaecl1h","58","[""White""]","No","Male","2244024.400000006","39637","","","{""price_1"":""800"",""price_2"":""800"",""price_3"":""750""}","rating","ctd","repulsion_1","2","laptops","null","null","null","null","null","null","1","30","40","25","100","90","100","Processing speed","Memory (RAM)","",""
"","","","","","rating_trial_setup","html-keyboard-response","51","1162032","0.0-3.0-0.24","161","1","2025-04-14 14:20:53","bb671e3ae32f654b8954ea4c4635f915","","Mozilla/5.0 (Windows NT 10.0; Win64; x64) AppleWebKit/537.36 (KHTML, like Gecko) Chrome/134.0.0.0 Safari/537.36","WebKit","Chrome","134.0.0.0","Windows","10.0","https://hz8g1ckzuq.cognition.run/","en-US,en;q=0.9","yrb1mld0jaecl1h","58","[""White""]","No","Male","2244024.400000006","null","","<p></p>","null","rating","cdt","attraction_1","1","washing machines","null","null","null","null","null","null","1","","","","","","","","","",""
"","","","","","rating_trial","survey-html-form","52","1351284","0.0-3.0-1.24","161","1","2025-04-14 14:20:53","bb671e3ae32f654b8954ea4c4635f915","","Mozilla/5.0 (Windows NT 10.0; Win64; x64) AppleWebKit/537.36 (KHTML, like Gecko) Chrome/134.0.0.0 Safari/537.36","WebKit","Chrome","134.0.0.0","Windows","10.0","https://hz8g1ckzuq.cognition.run/","en-US,en;q=0.9","yrb1mld0jaecl1h","58","[""White""]","No","Male","2244024.400000006","189243","","","{""price_1"":""700"",""price_2"":""600"",""price_3"":""650""}","rating","cdt","attraction_1","1","washing machines","null","null","null","null","null","null","1","60","50","60","50","60","45","Average lifespan","Energy savings","",""
"","","","","","rating_trial_setup","html-keyboard-response","53","1351590","0.0-3.0-0.25","161","1","2025-04-14 14:20:53","bb671e3ae32f654b8954ea4c4635f915","","Mozilla/5.0 (Windows NT 10.0; Win64; x64) AppleWebKit/537.36 (KHTML, like Gecko) Chrome/134.0.0.0 Safari/537.36","WebKit","Chrome","134.0.0.0","Windows","10.0","https://hz8g1ckzuq.cognition.run/","en-US,en;q=0.9","yrb1mld0jaecl1h","58","[""White""]","No","Male","2244024.400000006","null","","<p></p>","null","rating","ctd","repulsion_2","2","washing machines","null","null","null","null","null","null","1","","","","","","","","","",""
"","","","","","rating_trial","survey-html-form","54","1388957","0.0-3.0-1.25","161","1","2025-04-14 14:20:53","bb671e3ae32f654b8954ea4c4635f915","","Mozilla/5.0 (Windows NT 10.0; Win64; x64) AppleWebKit/537.36 (KHTML, like Gecko) Chrome/134.0.0.0 Safari/537.36","WebKit","Chrome","134.0.0.0","Windows","10.0","https://hz8g1ckzuq.cognition.run/","en-US,en;q=0.9","yrb1mld0jaecl1h","58","[""White""]","No","Male","2244024.400000006","37360","","","{""price_1"":""700"",""price_2"":""750"",""price_3"":""720""}","rating","ctd","repulsion_2","2","washing machines","null","null","null","null","null","null","1","30","40","20","100","90","100","Average lifespan","Energy savings","",""
"","","","","","rating_trial_setup","html-keyboard-response","55","1389263","0.0-3.0-0.26","161","1","2025-04-14 14:20:53","bb671e3ae32f654b8954ea4c4635f915","","Mozilla/5.0 (Windows NT 10.0; Win64; x64) AppleWebKit/537.36 (KHTML, like Gecko) Chrome/134.0.0.0 Safari/537.36","WebKit","Chrome","134.0.0.0","Windows","10.0","https://hz8g1ckzuq.cognition.run/","en-US,en;q=0.9","yrb1mld0jaecl1h","58","[""White""]","No","Male","2244024.400000006","null","","<p></p>","null","rating","dct","attraction_2","1","microwave ovens","null","null","null","null","null","null","1","","","","","","","","","",""
"","","","","","rating_trial","survey-html-form","56","1422785","0.0-3.0-1.26","161","1","2025-04-14 14:20:53","bb671e3ae32f654b8954ea4c4635f915","","Mozilla/5.0 (Windows NT 10.0; Win64; x64) AppleWebKit/537.36 (KHTML, like Gecko) Chrome/134.0.0.0 Safari/537.36","WebKit","Chrome","134.0.0.0","Windows","10.0","https://hz8g1ckzuq.cognition.run/","en-US,en;q=0.9","yrb1mld0jaecl1h","58","[""White""]","No","Male","2244024.400000006","33517","","","{""price_1"":""150"",""price_2"":""180"",""price_3"":""170""}","rating","dct","attraction_2","1","microwave ovens","null","null","null","null","null","null","1","60","50","60","50","60","40","Warranty","Cooking power","",""
"","","","","","rating_trial_setup","html-keyboard-response","57","1423090","0.0-3.0-0.27","161","1","2025-04-14 14:20:53","bb671e3ae32f654b8954ea4c4635f915","","Mozilla/5.0 (Windows NT 10.0; Win64; x64) AppleWebKit/537.36 (KHTML, like Gecko) Chrome/134.0.0.0 Safari/537.36","WebKit","Chrome","134.0.0.0","Windows","10.0","https://hz8g1ckzuq.cognition.run/","en-US,en;q=0.9","yrb1mld0jaecl1h","58","[""White""]","No","Male","2244024.400000006","null","","<p></p>","null","rating","tcd","repulsion_2","1","washing machines","null","null","null","null","null","null","1","","","","","","","","","",""
"","","","","","rating_trial","survey-html-form","58","1442997","0.0-3.0-1.27","161","1","2025-04-14 14:20:53","bb671e3ae32f654b8954ea4c4635f915","","Mozilla/5.0 (Windows NT 10.0; Win64; x64) AppleWebKit/537.36 (KHTML, like Gecko) Chrome/134.0.0.0 Safari/537.36","WebKit","Chrome","134.0.0.0","Windows","10.0","https://hz8g1ckzuq.cognition.run/","en-US,en;q=0.9","yrb1mld0jaecl1h","58","[""White""]","No","Male","2244024.400000006","19898","","","{""price_1"":""800"",""price_2"":""800"",""price_3"":""700""}","rating","tcd","repulsion_2","1","washing machines","null","null","null","null","null","null","1","100","90","100","30","40","20","Average lifespan","Energy savings","",""
"","","","","","rating_trial_setup","html-keyboard-response","59","1443302","0.0-3.0-0.28","161","1","2025-04-14 14:20:53","bb671e3ae32f654b8954ea4c4635f915","","Mozilla/5.0 (Windows NT 10.0; Win64; x64) AppleWebKit/537.36 (KHTML, like Gecko) Chrome/134.0.0.0 Safari/537.36","WebKit","Chrome","134.0.0.0","Windows","10.0","https://hz8g1ckzuq.cognition.run/","en-US,en;q=0.9","yrb1mld0jaecl1h","58","[""White""]","No","Male","2244024.400000006","null","","<p></p>","null","rating","wbw","catch","null","laptops","80","70","35","10","10","40","1","","","","","","","","","",""
"","","","","","rating_trial","survey-html-form","60","1493119","0.0-3.0-1.28","161","1","2025-04-14 14:20:53","bb671e3ae32f654b8954ea4c4635f915","","Mozilla/5.0 (Windows NT 10.0; Win64; x64) AppleWebKit/537.36 (KHTML, like Gecko) Chrome/134.0.0.0 Safari/537.36","WebKit","Chrome","134.0.0.0","Windows","10.0","https://hz8g1ckzuq.cognition.run/","en-US,en;q=0.9","yrb1mld0jaecl1h","58","[""White""]","No","Male","2244024.400000006","49811","","","{""price_1"":""300"",""price_2"":""1200"",""price_3"":""400""}","rating","wbw","catch","null","laptops","80","70","35","10","10","40","1","null","null","null","null","null","null","Processing speed","Memory (RAM)","",""
"","","","","","rating_trial_setup","html-keyboard-response","61","1493425","0.0-3.0-0.29","161","1","2025-04-14 14:20:53","bb671e3ae32f654b8954ea4c4635f915","","Mozilla/5.0 (Windows NT 10.0; Win64; x64) AppleWebKit/537.36 (KHTML, like Gecko) Chrome/134.0.0.0 Safari/537.36","WebKit","Chrome","134.0.0.0","Windows","10.0","https://hz8g1ckzuq.cognition.run/","en-US,en;q=0.9","yrb1mld0jaecl1h","58","[""White""]","No","Male","2244024.400000006","null","","<p></p>","null","rating","wwb","catch","null","washing machines","70","65","45","35","20","35","1","","","","","","","","","",""
"","","","","","rating_trial","survey-html-form","62","1516089","0.0-3.0-1.29","161","1","2025-04-14 14:20:53","bb671e3ae32f654b8954ea4c4635f915","","Mozilla/5.0 (Windows NT 10.0; Win64; x64) AppleWebKit/537.36 (KHTML, like Gecko) Chrome/134.0.0.0 Safari/537.36","WebKit","Chrome","134.0.0.0","Windows","10.0","https://hz8g1ckzuq.cognition.run/","en-US,en;q=0.9","yrb1mld0jaecl1h","58","[""White""]","No","Male","2244024.400000006","22653","","","{""price_1"":""700"",""price_2"":""600"",""price_3"":""800""}","rating","wwb","catch","null","washing machines","70","65","45","35","20","35","1","null","null","null","null","null","null","Average lifespan","Energy savings","",""
"","","","","","rating_trial_setup","html-keyboard-response","63","1516403","0.0-3.0-0.30","161","1","2025-04-14 14:20:53","bb671e3ae32f654b8954ea4c4635f915","","Mozilla/5.0 (Windows NT 10.0; Win64; x64) AppleWebKit/537.36 (KHTML, like Gecko) Chrome/134.0.0.0 Safari/537.36","WebKit","Chrome","134.0.0.0","Windows","10.0","https://hz8g1ckzuq.cognition.run/","en-US,en;q=0.9","yrb1mld0jaecl1h","58","[""White""]","No","Male","2244024.400000006","null","","<p></p>","null","rating","dct","repulsion_1","2","microwave ovens","null","null","null","null","null","null","2","","","","","","","","","",""
"","","","","","rating_trial","survey-html-form","64","1536933","0.0-3.0-1.30","161","1","2025-04-14 14:20:53","bb671e3ae32f654b8954ea4c4635f915","","Mozilla/5.0 (Windows NT 10.0; Win64; x64) AppleWebKit/537.36 (KHTML, like Gecko) Chrome/134.0.0.0 Safari/537.36","WebKit","Chrome","134.0.0.0","Windows","10.0","https://hz8g1ckzuq.cognition.run/","en-US,en;q=0.9","yrb1mld0jaecl1h","58","[""White""]","No","Male","2244024.400000006","20517","","","{""price_1"":""180"",""price_2"":""170"",""price_3"":""200""}","rating","dct","repulsion_1","2","microwave ovens","null","null","null","null","null","null","2","30","40","25","100","90","100","Warranty","Cooking power","",""
"","","","","","rating_trial_setup","html-keyboard-response","65","1537238","0.0-3.0-0.31","161","1","2025-04-14 14:20:53","bb671e3ae32f654b8954ea4c4635f915","","Mozilla/5.0 (Windows NT 10.0; Win64; x64) AppleWebKit/537.36 (KHTML, like Gecko) Chrome/134.0.0.0 Safari/537.36","WebKit","Chrome","134.0.0.0","Windows","10.0","https://hz8g1ckzuq.cognition.run/","en-US,en;q=0.9","yrb1mld0jaecl1h","58","[""White""]","No","Male","2244024.400000006","null","","<p></p>","null","rating","dtc","repulsion_2","1","televisions","null","null","null","null","null","null","1","","","","","","","","","",""
"","","","","","rating_trial","survey-html-form","66","1563498","0.0-3.0-1.31","161","1","2025-04-14 14:20:53","bb671e3ae32f654b8954ea4c4635f915","","Mozilla/5.0 (Windows NT 10.0; Win64; x64) AppleWebKit/537.36 (KHTML, like Gecko) Chrome/134.0.0.0 Safari/537.36","WebKit","Chrome","134.0.0.0","Windows","10.0","https://hz8g1ckzuq.cognition.run/","en-US,en;q=0.9","yrb1mld0jaecl1h","58","[""White""]","No","Male","2244024.400000006","26251","","","{""price_1"":""700"",""price_2"":""750"",""price_3"":""800""}","rating","dtc","repulsion_2","1","televisions","null","null","null","null","null","null","1","100","90","100","30","40","20","Screen size","Average lifespan","",""
"","","","","","rating_trial_setup","html-keyboard-response","67","1563803","0.0-3.0-0.32","161","1","2025-04-14 14:20:53","bb671e3ae32f654b8954ea4c4635f915","","Mozilla/5.0 (Windows NT 10.0; Win64; x64) AppleWebKit/537.36 (KHTML, like Gecko) Chrome/134.0.0.0 Safari/537.36","WebKit","Chrome","134.0.0.0","Windows","10.0","https://hz8g1ckzuq.cognition.run/","en-US,en;q=0.9","yrb1mld0jaecl1h","58","[""White""]","No","Male","2244024.400000006","null","","<p></p>","null","rating","ctd","repulsion_1","2","washing machines","null","null","null","null","null","null","2","","","","","","","","","",""
"","","","","","rating_trial","survey-html-form","68","1586878","0.0-3.0-1.32","161","1","2025-04-14 14:20:53","bb671e3ae32f654b8954ea4c4635f915","","Mozilla/5.0 (Windows NT 10.0; Win64; x64) AppleWebKit/537.36 (KHTML, like Gecko) Chrome/134.0.0.0 Safari/537.36","WebKit","Chrome","134.0.0.0","Windows","10.0","https://hz8g1ckzuq.cognition.run/","en-US,en;q=0.9","yrb1mld0jaecl1h","58","[""White""]","No","Male","2244024.400000006","23066","","","{""price_1"":""800"",""price_2"":""800"",""price_3"":""750""}","rating","ctd","repulsion_1","2","washing machines","null","null","null","null","null","null","2","30","40","25","100","90","100","Average lifespan","Energy savings","",""
"","","","","","rating_trial_setup","html-keyboard-response","69","1587198","0.0-3.0-0.33","161","1","2025-04-14 14:20:53","bb671e3ae32f654b8954ea4c4635f915","","Mozilla/5.0 (Windows NT 10.0; Win64; x64) AppleWebKit/537.36 (KHTML, like Gecko) Chrome/134.0.0.0 Safari/537.36","WebKit","Chrome","134.0.0.0","Windows","10.0","https://hz8g1ckzuq.cognition.run/","en-US,en;q=0.9","yrb1mld0jaecl1h","58","[""White""]","No","Male","2244024.400000006","null","","<p></p>","null","rating","tcd","attraction_2","2","washing machines","null","null","null","null","null","null","2","","","","","","","","","",""
"","","","","","rating_trial","survey-html-form","70","1616476","0.0-3.0-1.33","161","1","2025-04-14 14:20:53","bb671e3ae32f654b8954ea4c4635f915","","Mozilla/5.0 (Windows NT 10.0; Win64; x64) AppleWebKit/537.36 (KHTML, like Gecko) Chrome/134.0.0.0 Safari/537.36","WebKit","Chrome","134.0.0.0","Windows","10.0","https://hz8g1ckzuq.cognition.run/","en-US,en;q=0.9","yrb1mld0jaecl1h","58","[""White""]","No","Male","2244024.400000006","29273","","","{""price_1"":""700"",""price_2"":""700"",""price_3"":""700""}","rating","tcd","attraction_2","2","washing machines","null","null","null","null","null","null","2","50","60","40","60","50","60","Average lifespan","Energy savings","",""
"","","","","","rating_trial_setup","html-keyboard-response","71","1616781","0.0-3.0-0.34","161","1","2025-04-14 14:20:53","bb671e3ae32f654b8954ea4c4635f915","","Mozilla/5.0 (Windows NT 10.0; Win64; x64) AppleWebKit/537.36 (KHTML, like Gecko) Chrome/134.0.0.0 Safari/537.36","WebKit","Chrome","134.0.0.0","Windows","10.0","https://hz8g1ckzuq.cognition.run/","en-US,en;q=0.9","yrb1mld0jaecl1h","58","[""White""]","No","Male","2244024.400000006","null","","<p></p>","null","rating","dct","attraction_2","1","washing machines","null","null","null","null","null","null","1","","","","","","","","","",""
"","","","","","rating_trial","survey-html-form","72","1707392","0.0-3.0-1.34","161","1","2025-04-14 14:20:53","bb671e3ae32f654b8954ea4c4635f915","","Mozilla/5.0 (Windows NT 10.0; Win64; x64) AppleWebKit/537.36 (KHTML, like Gecko) Chrome/134.0.0.0 Safari/537.36","WebKit","Chrome","134.0.0.0","Windows","10.0","https://hz8g1ckzuq.cognition.run/","en-US,en;q=0.9","yrb1mld0jaecl1h","58","[""White""]","No","Male","2244024.400000006","90604","","","{""price_1"":""700"",""price_2"":""800"",""price_3"":""800""}","rating","dct","attraction_2","1","washing machines","null","null","null","null","null","null","1","60","50","60","50","60","40","Average lifespan","Energy savings","",""
"","","","","","rating_trial_setup","html-keyboard-response","73","1707697","0.0-3.0-0.35","161","1","2025-04-14 14:20:53","bb671e3ae32f654b8954ea4c4635f915","","Mozilla/5.0 (Windows NT 10.0; Win64; x64) AppleWebKit/537.36 (KHTML, like Gecko) Chrome/134.0.0.0 Safari/537.36","WebKit","Chrome","134.0.0.0","Windows","10.0","https://hz8g1ckzuq.cognition.run/","en-US,en;q=0.9","yrb1mld0jaecl1h","58","[""White""]","No","Male","2244024.400000006","null","","<p></p>","null","rating","tcd","repulsion_2","2","laptops","null","null","null","null","null","null","2","","","","","","","","","",""
"","","","","","rating_trial","survey-html-form","74","1738427","0.0-3.0-1.35","161","1","2025-04-14 14:20:53","bb671e3ae32f654b8954ea4c4635f915","","Mozilla/5.0 (Windows NT 10.0; Win64; x64) AppleWebKit/537.36 (KHTML, like Gecko) Chrome/134.0.0.0 Safari/537.36","WebKit","Chrome","134.0.0.0","Windows","10.0","https://hz8g1ckzuq.cognition.run/","en-US,en;q=0.9","yrb1mld0jaecl1h","58","[""White""]","No","Male","2244024.400000006","30724","","","{""price_1"":""700"",""price_2"":""750"",""price_3"":""600""}","rating","tcd","repulsion_2","2","laptops","null","null","null","null","null","null","2","30","40","20","100","90","100","Processing speed","Memory (RAM)","",""
"","","","","","rating_trial_setup","html-keyboard-response","75","1738731","0.0-3.0-0.36","161","1","2025-04-14 14:20:53","bb671e3ae32f654b8954ea4c4635f915","","Mozilla/5.0 (Windows NT 10.0; Win64; x64) AppleWebKit/537.36 (KHTML, like Gecko) Chrome/134.0.0.0 Safari/537.36","WebKit","Chrome","134.0.0.0","Windows","10.0","https://hz8g1ckzuq.cognition.run/","en-US,en;q=0.9","yrb1mld0jaecl1h","58","[""White""]","No","Male","2244024.400000006","null","","<p></p>","null","rating","dtc","attraction_1","2","laptops","null","null","null","null","null","null","1","","","","","","","","","",""
"","","","","","rating_trial","survey-html-form","76","1774845","0.0-3.0-1.36","161","1","2025-04-14 14:20:53","bb671e3ae32f654b8954ea4c4635f915","","Mozilla/5.0 (Windows NT 10.0; Win64; x64) AppleWebKit/537.36 (KHTML, like Gecko) Chrome/134.0.0.0 Safari/537.36","WebKit","Chrome","134.0.0.0","Windows","10.0","https://hz8g1ckzuq.cognition.run/","en-US,en;q=0.9","yrb1mld0jaecl1h","58","[""White""]","No","Male","2244024.400000006","36106","","","{""price_1"":""700"",""price_2"":""750"",""price_3"":""800""}","rating","dtc","attraction_1","2","laptops","null","null","null","null","null","null","1","50","60","45","60","50","60","Processing speed","Memory (RAM)","",""
"","","","","","rating_trial_setup","html-keyboard-response","77","1775151","0.0-3.0-0.37","161","1","2025-04-14 14:20:53","bb671e3ae32f654b8954ea4c4635f915","","Mozilla/5.0 (Windows NT 10.0; Win64; x64) AppleWebKit/537.36 (KHTML, like Gecko) Chrome/134.0.0.0 Safari/537.36","WebKit","Chrome","134.0.0.0","Windows","10.0","https://hz8g1ckzuq.cognition.run/","en-US,en;q=0.9","yrb1mld0jaecl1h","58","[""White""]","No","Male","2244024.400000006","null","","<p></p>","null","rating","dct","repulsion_1","1","televisions","null","null","null","null","null","null","1","","","","","","","","","",""
"","","","","","rating_trial","survey-html-form","78","1797963","0.0-3.0-1.37","161","1","2025-04-14 14:20:53","bb671e3ae32f654b8954ea4c4635f915","","Mozilla/5.0 (Windows NT 10.0; Win64; x64) AppleWebKit/537.36 (KHTML, like Gecko) Chrome/134.0.0.0 Safari/537.36","WebKit","Chrome","134.0.0.0","Windows","10.0","https://hz8g1ckzuq.cognition.run/","en-US,en;q=0.9","yrb1mld0jaecl1h","58","[""White""]","No","Male","2244024.400000006","22806","","","{""price_1"":""650"",""price_2"":""800"",""price_3"":""700""}","rating","dct","repulsion_1","1","televisions","null","null","null","null","null","null","1","100","90","100","30","40","25","Screen size","Average lifespan","",""
"","","","","","rating_trial_setup","html-keyboard-response","79","1798267","0.0-3.0-0.38","161","1","2025-04-14 14:20:53","bb671e3ae32f654b8954ea4c4635f915","","Mozilla/5.0 (Windows NT 10.0; Win64; x64) AppleWebKit/537.36 (KHTML, like Gecko) Chrome/134.0.0.0 Safari/537.36","WebKit","Chrome","134.0.0.0","Windows","10.0","https://hz8g1ckzuq.cognition.run/","en-US,en;q=0.9","yrb1mld0jaecl1h","58","[""White""]","No","Male","2244024.400000006","null","","<p></p>","null","rating","wbw","catch","null","televisions","95","90","25","25","10","35","2","","","","","","","","","",""
"","","","","","rating_trial","survey-html-form","80","1840640","0.0-3.0-1.38","161","1","2025-04-14 14:20:53","bb671e3ae32f654b8954ea4c4635f915","","Mozilla/5.0 (Windows NT 10.0; Win64; x64) AppleWebKit/537.36 (KHTML, like Gecko) Chrome/134.0.0.0 Safari/537.36","WebKit","Chrome","134.0.0.0","Windows","10.0","https://hz8g1ckzuq.cognition.run/","en-US,en;q=0.9","yrb1mld0jaecl1h","58","[""White""]","No","Male","2244024.400000006","42368","","","{""price_1"":""300"",""price_2"":""1000"",""price_3"":""300""}","rating","wbw","catch","null","televisions","95","90","25","25","10","35","2","null","null","null","null","null","null","Screen size","Average lifespan","",""
"","","","","","rating_trial_setup","html-keyboard-response","81","1840946","0.0-3.0-0.39","161","1","2025-04-14 14:20:53","bb671e3ae32f654b8954ea4c4635f915","","Mozilla/5.0 (Windows NT 10.0; Win64; x64) AppleWebKit/537.36 (KHTML, like Gecko) Chrome/134.0.0.0 Safari/537.36","WebKit","Chrome","134.0.0.0","Windows","10.0","https://hz8g1ckzuq.cognition.run/","en-US,en;q=0.9","yrb1mld0jaecl1h","58","[""White""]","No","Male","2244024.400000006","null","","<p></p>","null","rating","ctd","attraction_1","2","microwave ovens","null","null","null","null","null","null","2","","","","","","","","","",""
"","","","","","rating_trial","survey-html-form","82","1868870","0.0-3.0-1.39","161","1","2025-04-14 14:20:53","bb671e3ae32f654b8954ea4c4635f915","","Mozilla/5.0 (Windows NT 10.0; Win64; x64) AppleWebKit/537.36 (KHTML, like Gecko) Chrome/134.0.0.0 Safari/537.36","WebKit","Chrome","134.0.0.0","Windows","10.0","https://hz8g1ckzuq.cognition.run/","en-US,en;q=0.9","yrb1mld0jaecl1h","58","[""White""]","No","Male","2244024.400000006","27915","","","{""price_1"":""150"",""price_2"":""180"",""price_3"":""170""}","rating","ctd","attraction_1","2","microwave ovens","null","null","null","null","null","null","2","50","60","45","60","50","60","Warranty","Cooking power","",""
"","","","","","","instructions","83","1909381","0.0-4.0","161","1","2025-04-14 14:20:53","bb671e3ae32f654b8954ea4c4635f915","","Mozilla/5.0 (Windows NT 10.0; Win64; x64) AppleWebKit/537.36 (KHTML, like Gecko) Chrome/134.0.0.0 Safari/537.36","WebKit","Chrome","134.0.0.0","Windows","10.0","https://hz8g1ckzuq.cognition.run/","en-US,en;q=0.9","yrb1mld0jaecl1h","58","[""White""]","No","Male","2244024.400000006","40493","[{""page_index"":0,""viewing_time"":3458},{""page_index"":1,""viewing_time"":2154},{""page_index"":2,""viewing_time"":3273},{""page_index"":3,""viewing_time"":3295},{""page_index"":4,""viewing_time"":4313},{""page_index"":5,""viewing_time"":5512},{""page_index"":6,""viewing_time"":11377},{""page_index"":7,""viewing_time"":7110}]","","","","","","","","","","","","","","","","","","","","","","","",""
"","","","","","choice_trial_setup","html-keyboard-response","84","1909687","0.0-5.0-0.0","161","1","2025-04-14 14:20:53","bb671e3ae32f654b8954ea4c4635f915","","Mozilla/5.0 (Windows NT 10.0; Win64; x64) AppleWebKit/537.36 (KHTML, like Gecko) Chrome/134.0.0.0 Safari/537.36","WebKit","Chrome","134.0.0.0","Windows","10.0","https://hz8g1ckzuq.cognition.run/","en-US,en;q=0.9","yrb1mld0jaecl1h","58","[""White""]","No","Male","2244024.400000006","null","","<p></p>","null","choice","wbw","catch","null","microwave ovens","70","80","40","25","5","45","1","","","","","","","","","",""
"","","","","","choice_trial","survey-html-form","85","1922786","0.0-5.0-1.0","161","1","2025-04-14 14:20:53","bb671e3ae32f654b8954ea4c4635f915","","Mozilla/5.0 (Windows NT 10.0; Win64; x64) AppleWebKit/537.36 (KHTML, like Gecko) Chrome/134.0.0.0 Safari/537.36","WebKit","Chrome","134.0.0.0","Windows","10.0","https://hz8g1ckzuq.cognition.run/","en-US,en;q=0.9","yrb1mld0jaecl1h","58","[""White""]","No","Male","2244024.400000006","13086","","","{""product_choice"":""B""}","choice","wbw","catch","null","microwave ovens","70","80","40","25","5","45","1","null","null","null","null","null","null","Warranty","Cooking power","",""
"","","","","","choice_trial_setup","html-keyboard-response","86","1923091","0.0-5.0-0.1","161","1","2025-04-14 14:20:53","bb671e3ae32f654b8954ea4c4635f915","","Mozilla/5.0 (Windows NT 10.0; Win64; x64) AppleWebKit/537.36 (KHTML, like Gecko) Chrome/134.0.0.0 Safari/537.36","WebKit","Chrome","134.0.0.0","Windows","10.0","https://hz8g1ckzuq.cognition.run/","en-US,en;q=0.9","yrb1mld0jaecl1h","58","[""White""]","No","Male","2244024.400000006","null","","<p></p>","null","choice","tdc","attraction_2","2","washing machines","null","null","null","null","null","null","1","","","","","","","","","",""
"","","","","","choice_trial","survey-html-form","87","1931322","0.0-5.0-1.1","161","1","2025-04-14 14:20:53","bb671e3ae32f654b8954ea4c4635f915","","Mozilla/5.0 (Windows NT 10.0; Win64; x64) AppleWebKit/537.36 (KHTML, like Gecko) Chrome/134.0.0.0 Safari/537.36","WebKit","Chrome","134.0.0.0","Windows","10.0","https://hz8g1ckzuq.cognition.run/","en-US,en;q=0.9","yrb1mld0jaecl1h","58","[""White""]","No","Male","2244024.400000006","8223","","","{""product_choice"":""A""}","choice","tdc","attraction_2","2","washing machines","null","null","null","null","null","null","1","50","60","40","60","50","60","Average lifespan","Energy savings","",""
"","","","","","choice_trial_setup","html-keyboard-response","88","1931628","0.0-5.0-0.2","161","1","2025-04-14 14:20:53","bb671e3ae32f654b8954ea4c4635f915","","Mozilla/5.0 (Windows NT 10.0; Win64; x64) AppleWebKit/537.36 (KHTML, like Gecko) Chrome/134.0.0.0 Safari/537.36","WebKit","Chrome","134.0.0.0","Windows","10.0","https://hz8g1ckzuq.cognition.run/","en-US,en;q=0.9","yrb1mld0jaecl1h","58","[""White""]","No","Male","2244024.400000006","null","","<p></p>","null","choice","ctd","repulsion_2","2","microwave ovens","null","null","null","null","null","null","1","","","","","","","","","",""
"","","","","","choice_trial","survey-html-form","89","1940908","0.0-5.0-1.2","161","1","2025-04-14 14:20:53","bb671e3ae32f654b8954ea4c4635f915","","Mozilla/5.0 (Windows NT 10.0; Win64; x64) AppleWebKit/537.36 (KHTML, like Gecko) Chrome/134.0.0.0 Safari/537.36","WebKit","Chrome","134.0.0.0","Windows","10.0","https://hz8g1ckzuq.cognition.run/","en-US,en;q=0.9","yrb1mld0jaecl1h","58","[""White""]","No","Male","2244024.400000006","9270","","","{""product_choice"":""B""}","choice","ctd","repulsion_2","2","microwave ovens","null","null","null","null","null","null","1","30","40","20","100","90","100","Warranty","Cooking power","",""
"","","","","","choice_trial_setup","html-keyboard-response","90","1941213","0.0-5.0-0.3","161","1","2025-04-14 14:20:53","bb671e3ae32f654b8954ea4c4635f915","","Mozilla/5.0 (Windows NT 10.0; Win64; x64) AppleWebKit/537.36 (KHTML, like Gecko) Chrome/134.0.0.0 Safari/537.36","WebKit","Chrome","134.0.0.0","Windows","10.0","https://hz8g1ckzuq.cognition.run/","en-US,en;q=0.9","yrb1mld0jaecl1h","58","[""White""]","No","Male","2244024.400000006","null","","<p></p>","null","choice","tcd","attraction_2","1","laptops","null","null","null","null","null","null","2","","","","","","","","","",""
"","","","","","choice_trial","survey-html-form","91","1950700","0.0-5.0-1.3","161","1","2025-04-14 14:20:53","bb671e3ae32f654b8954ea4c4635f915","","Mozilla/5.0 (Windows NT 10.0; Win64; x64) AppleWebKit/537.36 (KHTML, like Gecko) Chrome/134.0.0.0 Safari/537.36","WebKit","Chrome","134.0.0.0","Windows","10.0","https://hz8g1ckzuq.cognition.run/","en-US,en;q=0.9","yrb1mld0jaecl1h","58","[""White""]","No","Male","2244024.400000006","9479","","","{""product_choice"":""A""}","choice","tcd","attraction_2","1","laptops","null","null","null","null","null","null","2","60","50","60","50","60","40","Processing speed","Memory (RAM)","",""
"","","","","","choice_trial_setup","html-keyboard-response","92","1951005","0.0-5.0-0.4","161","1","2025-04-14 14:20:53","bb671e3ae32f654b8954ea4c4635f915","","Mozilla/5.0 (Windows NT 10.0; Win64; x64) AppleWebKit/537.36 (KHTML, like Gecko) Chrome/134.0.0.0 Safari/537.36","WebKit","Chrome","134.0.0.0","Windows","10.0","https://hz8g1ckzuq.cognition.run/","en-US,en;q=0.9","yrb1mld0jaecl1h","58","[""White""]","No","Male","2244024.400000006","null","","<p></p>","null","choice","dtc","repulsion_1","2","televisions","null","null","null","null","null","null","2","","","","","","","","","",""
"","","","","","choice_trial","survey-html-form","93","1958482","0.0-5.0-1.4","161","1","2025-04-14 14:20:53","bb671e3ae32f654b8954ea4c4635f915","","Mozilla/5.0 (Windows NT 10.0; Win64; x64) AppleWebKit/537.36 (KHTML, like Gecko) Chrome/134.0.0.0 Safari/537.36","WebKit","Chrome","134.0.0.0","Windows","10.0","https://hz8g1ckzuq.cognition.run/","en-US,en;q=0.9","yrb1mld0jaecl1h","58","[""White""]","No","Male","2244024.400000006","7470","","","{""product_choice"":""B""}","choice","dtc","repulsion_1","2","televisions","null","null","null","null","null","null","2","30","40","25","100","90","100","Screen size","Average lifespan","",""
"","","","","","choice_trial_setup","html-keyboard-response","94","1958788","0.0-5.0-0.5","161","1","2025-04-14 14:20:53","bb671e3ae32f654b8954ea4c4635f915","","Mozilla/5.0 (Windows NT 10.0; Win64; x64) AppleWebKit/537.36 (KHTML, like Gecko) Chrome/134.0.0.0 Safari/537.36","WebKit","Chrome","134.0.0.0","Windows","10.0","https://hz8g1ckzuq.cognition.run/","en-US,en;q=0.9","yrb1mld0jaecl1h","58","[""White""]","No","Male","2244024.400000006","null","","<p></p>","null","choice","ctd","attraction_2","1","televisions","null","null","null","null","null","null","2","","","","","","","","","",""
"","","","","","choice_trial","survey-html-form","95","1966272","0.0-5.0-1.5","161","1","2025-04-14 14:20:53","bb671e3ae32f654b8954ea4c4635f915","","Mozilla/5.0 (Windows NT 10.0; Win64; x64) AppleWebKit/537.36 (KHTML, like Gecko) Chrome/134.0.0.0 Safari/537.36","WebKit","Chrome","134.0.0.0","Windows","10.0","https://hz8g1ckzuq.cognition.run/","en-US,en;q=0.9","yrb1mld0jaecl1h","58","[""White""]","No","Male","2244024.400000006","7479","","","{""product_choice"":""A""}","choice","ctd","attraction_2","1","televisions","null","null","null","null","null","null","2","60","50","60","50","60","40","Screen size","Average lifespan","",""
"","","","","","choice_trial_setup","html-keyboard-response","96","1966579","0.0-5.0-0.6","161","1","2025-04-14 14:20:53","bb671e3ae32f654b8954ea4c4635f915","","Mozilla/5.0 (Windows NT 10.0; Win64; x64) AppleWebKit/537.36 (KHTML, like Gecko) Chrome/134.0.0.0 Safari/537.36","WebKit","Chrome","134.0.0.0","Windows","10.0","https://hz8g1ckzuq.cognition.run/","en-US,en;q=0.9","yrb1mld0jaecl1h","58","[""White""]","No","Male","2244024.400000006","null","","<p></p>","null","choice","wwb","catch","null","laptops","80","80","10","50","35","40","1","","","","","","","","","",""
"","","","","","choice_trial","survey-html-form","97","1971023","0.0-5.0-1.6","161","1","2025-04-14 14:20:53","bb671e3ae32f654b8954ea4c4635f915","","Mozilla/5.0 (Windows NT 10.0; Win64; x64) AppleWebKit/537.36 (KHTML, like Gecko) Chrome/134.0.0.0 Safari/537.36","WebKit","Chrome","134.0.0.0","Windows","10.0","https://hz8g1ckzuq.cognition.run/","en-US,en;q=0.9","yrb1mld0jaecl1h","58","[""White""]","No","Male","2244024.400000006","4435","","","{""product_choice"":""C""}","choice","wwb","catch","null","laptops","80","80","10","50","35","40","1","null","null","null","null","null","null","Processing speed","Memory (RAM)","",""
"","","","","","choice_trial_setup","html-keyboard-response","98","1971332","0.0-5.0-0.7","161","1","2025-04-14 14:20:53","bb671e3ae32f654b8954ea4c4635f915","","Mozilla/5.0 (Windows NT 10.0; Win64; x64) AppleWebKit/537.36 (KHTML, like Gecko) Chrome/134.0.0.0 Safari/537.36","WebKit","Chrome","134.0.0.0","Windows","10.0","https://hz8g1ckzuq.cognition.run/","en-US,en;q=0.9","yrb1mld0jaecl1h","58","[""White""]","No","Male","2244024.400000006","null","","<p></p>","null","choice","cdt","attraction_1","2","washing machines","null","null","null","null","null","null","2","","","","","","","","","",""
"","","","","","choice_trial","survey-html-form","99","1976189","0.0-5.0-1.7","161","1","2025-04-14 14:20:53","bb671e3ae32f654b8954ea4c4635f915","","Mozilla/5.0 (Windows NT 10.0; Win64; x64) AppleWebKit/537.36 (KHTML, like Gecko) Chrome/134.0.0.0 Safari/537.36","WebKit","Chrome","134.0.0.0","Windows","10.0","https://hz8g1ckzuq.cognition.run/","en-US,en;q=0.9","yrb1mld0jaecl1h","58","[""White""]","No","Male","2244024.400000006","4851","","","{""product_choice"":""C""}","choice","cdt","attraction_1","2","washing machines","null","null","null","null","null","null","2","50","60","45","60","50","60","Average lifespan","Energy savings","",""
"","","","","","choice_trial_setup","html-keyboard-response","100","1976502","0.0-5.0-0.8","161","1","2025-04-14 14:20:53","bb671e3ae32f654b8954ea4c4635f915","","Mozilla/5.0 (Windows NT 10.0; Win64; x64) AppleWebKit/537.36 (KHTML, like Gecko) Chrome/134.0.0.0 Safari/537.36","WebKit","Chrome","134.0.0.0","Windows","10.0","https://hz8g1ckzuq.cognition.run/","en-US,en;q=0.9","yrb1mld0jaecl1h","58","[""White""]","No","Male","2244024.400000006","null","","<p></p>","null","choice","tdc","attraction_2","1","microwave ovens","null","null","null","null","null","null","2","","","","","","","","","",""
"","","","","","choice_trial","survey-html-form","101","1981599","0.0-5.0-1.8","161","1","2025-04-14 14:20:53","bb671e3ae32f654b8954ea4c4635f915","","Mozilla/5.0 (Windows NT 10.0; Win64; x64) AppleWebKit/537.36 (KHTML, like Gecko) Chrome/134.0.0.0 Safari/537.36","WebKit","Chrome","134.0.0.0","Windows","10.0","https://hz8g1ckzuq.cognition.run/","en-US,en;q=0.9","yrb1mld0jaecl1h","58","[""White""]","No","Male","2244024.400000006","5087","","","{""product_choice"":""C""}","choice","tdc","attraction_2","1","microwave ovens","null","null","null","null","null","null","2","60","50","60","50","60","40","Warranty","Cooking power","",""
"","","","","","choice_trial_setup","html-keyboard-response","102","1981909","0.0-5.0-0.9","161","1","2025-04-14 14:20:53","bb671e3ae32f654b8954ea4c4635f915","","Mozilla/5.0 (Windows NT 10.0; Win64; x64) AppleWebKit/537.36 (KHTML, like Gecko) Chrome/134.0.0.0 Safari/537.36","WebKit","Chrome","134.0.0.0","Windows","10.0","https://hz8g1ckzuq.cognition.run/","en-US,en;q=0.9","yrb1mld0jaecl1h","58","[""White""]","No","Male","2244024.400000006","null","","<p></p>","null","choice","ctd","attraction_1","1","televisions","null","null","null","null","null","null","1","","","","","","","","","",""
"","","","","","choice_trial","survey-html-form","103","1988644","0.0-5.0-1.9","161","1","2025-04-14 14:20:53","bb671e3ae32f654b8954ea4c4635f915","","Mozilla/5.0 (Windows NT 10.0; Win64; x64) AppleWebKit/537.36 (KHTML, like Gecko) Chrome/134.0.0.0 Safari/537.36","WebKit","Chrome","134.0.0.0","Windows","10.0","https://hz8g1ckzuq.cognition.run/","en-US,en;q=0.9","yrb1mld0jaecl1h","58","[""White""]","No","Male","2244024.400000006","6727","","","{""product_choice"":""A""}","choice","ctd","attraction_1","1","televisions","null","null","null","null","null","null","1","60","50","60","50","60","45","Screen size","Average lifespan","",""
"","","","","","choice_trial_setup","html-keyboard-response","104","1988950","0.0-5.0-0.10","161","1","2025-04-14 14:20:53","bb671e3ae32f654b8954ea4c4635f915","","Mozilla/5.0 (Windows NT 10.0; Win64; x64) AppleWebKit/537.36 (KHTML, like Gecko) Chrome/134.0.0.0 Safari/537.36","WebKit","Chrome","134.0.0.0","Windows","10.0","https://hz8g1ckzuq.cognition.run/","en-US,en;q=0.9","yrb1mld0jaecl1h","58","[""White""]","No","Male","2244024.400000006","null","","<p></p>","null","choice","dct","repulsion_1","2","laptops","null","null","null","null","null","null","1","","","","","","","","","",""
"","","","","","choice_trial","survey-html-form","105","1994430","0.0-5.0-1.10","161","1","2025-04-14 14:20:53","bb671e3ae32f654b8954ea4c4635f915","","Mozilla/5.0 (Windows NT 10.0; Win64; x64) AppleWebKit/537.36 (KHTML, like Gecko) Chrome/134.0.0.0 Safari/537.36","WebKit","Chrome","134.0.0.0","Windows","10.0","https://hz8g1ckzuq.cognition.run/","en-US,en;q=0.9","yrb1mld0jaecl1h","58","[""White""]","No","Male","2244024.400000006","5471","","","{""product_choice"":""B""}","choice","dct","repulsion_1","2","laptops","null","null","null","null","null","null","1","30","40","25","100","90","100","Processing speed","Memory (RAM)","",""
"","","","","","choice_trial_setup","html-keyboard-response","106","1994739","0.0-5.0-0.11","161","1","2025-04-14 14:20:53","bb671e3ae32f654b8954ea4c4635f915","","Mozilla/5.0 (Windows NT 10.0; Win64; x64) AppleWebKit/537.36 (KHTML, like Gecko) Chrome/134.0.0.0 Safari/537.36","WebKit","Chrome","134.0.0.0","Windows","10.0","https://hz8g1ckzuq.cognition.run/","en-US,en;q=0.9","yrb1mld0jaecl1h","58","[""White""]","No","Male","2244024.400000006","null","","<p></p>","null","choice","ctd","repulsion_1","1","microwave ovens","null","null","null","null","null","null","2","","","","","","","","","",""
"","","","","","choice_trial","survey-html-form","107","1999622","0.0-5.0-1.11","161","1","2025-04-14 14:20:53","bb671e3ae32f654b8954ea4c4635f915","","Mozilla/5.0 (Windows NT 10.0; Win64; x64) AppleWebKit/537.36 (KHTML, like Gecko) Chrome/134.0.0.0 Safari/537.36","WebKit","Chrome","134.0.0.0","Windows","10.0","https://hz8g1ckzuq.cognition.run/","en-US,en;q=0.9","yrb1mld0jaecl1h","58","[""White""]","No","Male","2244024.400000006","4877","","","{""product_choice"":""A""}","choice","ctd","repulsion_1","1","microwave ovens","null","null","null","null","null","null","2","100","90","100","30","40","25","Warranty","Cooking power","",""
"","","","","","choice_trial_setup","html-keyboard-response","108","1999929","0.0-5.0-0.12","161","1","2025-04-14 14:20:53","bb671e3ae32f654b8954ea4c4635f915","","Mozilla/5.0 (Windows NT 10.0; Win64; x64) AppleWebKit/537.36 (KHTML, like Gecko) Chrome/134.0.0.0 Safari/537.36","WebKit","Chrome","134.0.0.0","Windows","10.0","https://hz8g1ckzuq.cognition.run/","en-US,en;q=0.9","yrb1mld0jaecl1h","58","[""White""]","No","Male","2244024.400000006","null","","<p></p>","null","choice","dct","repulsion_2","1","televisions","null","null","null","null","null","null","1","","","","","","","","","",""
"","","","","","choice_trial","survey-html-form","109","2007105","0.0-5.0-1.12","161","1","2025-04-14 14:20:53","bb671e3ae32f654b8954ea4c4635f915","","Mozilla/5.0 (Windows NT 10.0; Win64; x64) AppleWebKit/537.36 (KHTML, like Gecko) Chrome/134.0.0.0 Safari/537.36","WebKit","Chrome","134.0.0.0","Windows","10.0","https://hz8g1ckzuq.cognition.run/","en-US,en;q=0.9","yrb1mld0jaecl1h","58","[""White""]","No","Male","2244024.400000006","7169","","","{""product_choice"":""B""}","choice","dct","repulsion_2","1","televisions","null","null","null","null","null","null","1","100","90","100","30","40","20","Screen size","Average lifespan","",""
"","","","","","choice_trial_setup","html-keyboard-response","110","2007412","0.0-5.0-0.13","161","1","2025-04-14 14:20:53","bb671e3ae32f654b8954ea4c4635f915","","Mozilla/5.0 (Windows NT 10.0; Win64; x64) AppleWebKit/537.36 (KHTML, like Gecko) Chrome/134.0.0.0 Safari/537.36","WebKit","Chrome","134.0.0.0","Windows","10.0","https://hz8g1ckzuq.cognition.run/","en-US,en;q=0.9","yrb1mld0jaecl1h","58","[""White""]","No","Male","2244024.400000006","null","","<p></p>","null","choice","wbw","catch","null","microwave ovens","60","95","25","40","30","50","2","","","","","","","","","",""
"","","","","","choice_trial","survey-html-form","111","2013419","0.0-5.0-1.13","161","1","2025-04-14 14:20:53","bb671e3ae32f654b8954ea4c4635f915","","Mozilla/5.0 (Windows NT 10.0; Win64; x64) AppleWebKit/537.36 (KHTML, like Gecko) Chrome/134.0.0.0 Safari/537.36","WebKit","Chrome","134.0.0.0","Windows","10.0","https://hz8g1ckzuq.cognition.run/","en-US,en;q=0.9","yrb1mld0jaecl1h","58","[""White""]","No","Male","2244024.400000006","6001","","","{""product_choice"":""B""}","choice","wbw","catch","null","microwave ovens","60","95","25","40","30","50","2","null","null","null","null","null","null","Warranty","Cooking power","",""
"","","","","","choice_trial_setup","html-keyboard-response","112","2013727","0.0-5.0-0.14","161","1","2025-04-14 14:20:53","bb671e3ae32f654b8954ea4c4635f915","","Mozilla/5.0 (Windows NT 10.0; Win64; x64) AppleWebKit/537.36 (KHTML, like Gecko) Chrome/134.0.0.0 Safari/537.36","WebKit","Chrome","134.0.0.0","Windows","10.0","https://hz8g1ckzuq.cognition.run/","en-US,en;q=0.9","yrb1mld0jaecl1h","58","[""White""]","No","Male","2244024.400000006","null","","<p></p>","null","choice","dtc","repulsion_2","1","microwave ovens","null","null","null","null","null","null","2","","","","","","","","","",""
"","","","","","choice_trial","survey-html-form","113","2017619","0.0-5.0-1.14","161","1","2025-04-14 14:20:53","bb671e3ae32f654b8954ea4c4635f915","","Mozilla/5.0 (Windows NT 10.0; Win64; x64) AppleWebKit/537.36 (KHTML, like Gecko) Chrome/134.0.0.0 Safari/537.36","WebKit","Chrome","134.0.0.0","Windows","10.0","https://hz8g1ckzuq.cognition.run/","en-US,en;q=0.9","yrb1mld0jaecl1h","58","[""White""]","No","Male","2244024.400000006","3881","","","{""product_choice"":""C""}","choice","dtc","repulsion_2","1","microwave ovens","null","null","null","null","null","null","2","100","90","100","30","40","20","Warranty","Cooking power","",""
"","","","","","choice_trial_setup","html-keyboard-response","114","2017925","0.0-5.0-0.15","161","1","2025-04-14 14:20:53","bb671e3ae32f654b8954ea4c4635f915","","Mozilla/5.0 (Windows NT 10.0; Win64; x64) AppleWebKit/537.36 (KHTML, like Gecko) Chrome/134.0.0.0 Safari/537.36","WebKit","Chrome","134.0.0.0","Windows","10.0","https://hz8g1ckzuq.cognition.run/","en-US,en;q=0.9","yrb1mld0jaecl1h","58","[""White""]","No","Male","2244024.400000006","null","","<p></p>","null","choice","cdt","repulsion_1","1","televisions","null","null","null","null","null","null","2","","","","","","","","","",""
"","","","","","choice_trial","survey-html-form","115","2023218","0.0-5.0-1.15","161","1","2025-04-14 14:20:53","bb671e3ae32f654b8954ea4c4635f915","","Mozilla/5.0 (Windows NT 10.0; Win64; x64) AppleWebKit/537.36 (KHTML, like Gecko) Chrome/134.0.0.0 Safari/537.36","WebKit","Chrome","134.0.0.0","Windows","10.0","https://hz8g1ckzuq.cognition.run/","en-US,en;q=0.9","yrb1mld0jaecl1h","58","[""White""]","No","Male","2244024.400000006","5286","","","{""product_choice"":""A""}","choice","cdt","repulsion_1","1","televisions","null","null","null","null","null","null","2","100","90","100","30","40","25","Screen size","Average lifespan","",""
"","","","","","choice_trial_setup","html-keyboard-response","116","2023525","0.0-5.0-0.16","161","1","2025-04-14 14:20:53","bb671e3ae32f654b8954ea4c4635f915","","Mozilla/5.0 (Windows NT 10.0; Win64; x64) AppleWebKit/537.36 (KHTML, like Gecko) Chrome/134.0.0.0 Safari/537.36","WebKit","Chrome","134.0.0.0","Windows","10.0","https://hz8g1ckzuq.cognition.run/","en-US,en;q=0.9","yrb1mld0jaecl1h","58","[""White""]","No","Male","2244024.400000006","null","","<p></p>","null","choice","dtc","repulsion_2","1","laptops","null","null","null","null","null","null","2","","","","","","","","","",""
"","","","","","choice_trial","survey-html-form","117","2031049","0.0-5.0-1.16","161","1","2025-04-14 14:20:53","bb671e3ae32f654b8954ea4c4635f915","","Mozilla/5.0 (Windows NT 10.0; Win64; x64) AppleWebKit/537.36 (KHTML, like Gecko) Chrome/134.0.0.0 Safari/537.36","WebKit","Chrome","134.0.0.0","Windows","10.0","https://hz8g1ckzuq.cognition.run/","en-US,en;q=0.9","yrb1mld0jaecl1h","58","[""White""]","No","Male","2244024.400000006","7519","","","{""product_choice"":""C""}","choice","dtc","repulsion_2","1","laptops","null","null","null","null","null","null","2","100","90","100","30","40","20","Processing speed","Memory (RAM)","",""
"","","","","","choice_trial_setup","html-keyboard-response","118","2031355","0.0-5.0-0.17","161","1","2025-04-14 14:20:53","bb671e3ae32f654b8954ea4c4635f915","","Mozilla/5.0 (Windows NT 10.0; Win64; x64) AppleWebKit/537.36 (KHTML, like Gecko) Chrome/134.0.0.0 Safari/537.36","WebKit","Chrome","134.0.0.0","Windows","10.0","https://hz8g1ckzuq.cognition.run/","en-US,en;q=0.9","yrb1mld0jaecl1h","58","[""White""]","No","Male","2244024.400000006","null","","<p></p>","null","choice","dtc","attraction_2","1","washing machines","null","null","null","null","null","null","1","","","","","","","","","",""
"","","","","","choice_trial","survey-html-form","119","2038513","0.0-5.0-1.17","161","1","2025-04-14 14:20:53","bb671e3ae32f654b8954ea4c4635f915","","Mozilla/5.0 (Windows NT 10.0; Win64; x64) AppleWebKit/537.36 (KHTML, like Gecko) Chrome/134.0.0.0 Safari/537.36","WebKit","Chrome","134.0.0.0","Windows","10.0","https://hz8g1ckzuq.cognition.run/","en-US,en;q=0.9","yrb1mld0jaecl1h","58","[""White""]","No","Male","2244024.400000006","7150","","","{""product_choice"":""C""}","choice","dtc","attraction_2","1","washing machines","null","null","null","null","null","null","1","60","50","60","50","60","40","Average lifespan","Energy savings","",""
"","","","","","choice_trial_setup","html-keyboard-response","120","2038819","0.0-5.0-0.18","161","1","2025-04-14 14:20:53","bb671e3ae32f654b8954ea4c4635f915","","Mozilla/5.0 (Windows NT 10.0; Win64; x64) AppleWebKit/537.36 (KHTML, like Gecko) Chrome/134.0.0.0 Safari/537.36","WebKit","Chrome","134.0.0.0","Windows","10.0","https://hz8g1ckzuq.cognition.run/","en-US,en;q=0.9","yrb1mld0jaecl1h","58","[""White""]","No","Male","2244024.400000006","null","","<p></p>","null","choice","bww","catch","null","washing machines","90","90","20","10","25","30","1","","","","","","","","","",""
"","","","","","choice_trial","survey-html-form","121","2044007","0.0-5.0-1.18","161","1","2025-04-14 14:20:53","bb671e3ae32f654b8954ea4c4635f915","","Mozilla/5.0 (Windows NT 10.0; Win64; x64) AppleWebKit/537.36 (KHTML, like Gecko) Chrome/134.0.0.0 Safari/537.36","WebKit","Chrome","134.0.0.0","Windows","10.0","https://hz8g1ckzuq.cognition.run/","en-US,en;q=0.9","yrb1mld0jaecl1h","58","[""White""]","No","Male","2244024.400000006","5182","","","{""product_choice"":""A""}","choice","bww","catch","null","washing machines","90","90","20","10","25","30","1","null","null","null","null","null","null","Average lifespan","Energy savings","",""
"","","","","","choice_trial_setup","html-keyboard-response","122","2044314","0.0-5.0-0.19","161","1","2025-04-14 14:20:53","bb671e3ae32f654b8954ea4c4635f915","","Mozilla/5.0 (Windows NT 10.0; Win64; x64) AppleWebKit/537.36 (KHTML, like Gecko) Chrome/134.0.0.0 Safari/537.36","WebKit","Chrome","134.0.0.0","Windows","10.0","https://hz8g1ckzuq.cognition.run/","en-US,en;q=0.9","yrb1mld0jaecl1h","58","[""White""]","No","Male","2244024.400000006","null","","<p></p>","null","choice","dtc","attraction_1","2","televisions","null","null","null","null","null","null","1","","","","","","","","","",""
"","","","","","choice_trial","survey-html-form","123","2050649","0.0-5.0-1.19","161","1","2025-04-14 14:20:53","bb671e3ae32f654b8954ea4c4635f915","","Mozilla/5.0 (Windows NT 10.0; Win64; x64) AppleWebKit/537.36 (KHTML, like Gecko) Chrome/134.0.0.0 Safari/537.36","WebKit","Chrome","134.0.0.0","Windows","10.0","https://hz8g1ckzuq.cognition.run/","en-US,en;q=0.9","yrb1mld0jaecl1h","58","[""White""]","No","Male","2244024.400000006","6319","","","{""product_choice"":""B""}","choice","dtc","attraction_1","2","televisions","null","null","null","null","null","null","1","50","60","45","60","50","60","Screen size","Average lifespan","",""
"","","","","","choice_trial_setup","html-keyboard-response","124","2050957","0.0-5.0-0.20","161","1","2025-04-14 14:20:53","bb671e3ae32f654b8954ea4c4635f915","","Mozilla/5.0 (Windows NT 10.0; Win64; x64) AppleWebKit/537.36 (KHTML, like Gecko) Chrome/134.0.0.0 Safari/537.36","WebKit","Chrome","134.0.0.0","Windows","10.0","https://hz8g1ckzuq.cognition.run/","en-US,en;q=0.9","yrb1mld0jaecl1h","58","[""White""]","No","Male","2244024.400000006","null","","<p></p>","null","choice","dtc","repulsion_2","2","laptops","null","null","null","null","null","null","1","","","","","","","","","",""
"","","","","","choice_trial","survey-html-form","125","2055843","0.0-5.0-1.20","161","1","2025-04-14 14:20:53","bb671e3ae32f654b8954ea4c4635f915","","Mozilla/5.0 (Windows NT 10.0; Win64; x64) AppleWebKit/537.36 (KHTML, like Gecko) Chrome/134.0.0.0 Safari/537.36","WebKit","Chrome","134.0.0.0","Windows","10.0","https://hz8g1ckzuq.cognition.run/","en-US,en;q=0.9","yrb1mld0jaecl1h","58","[""White""]","No","Male","2244024.400000006","4876","","","{""product_choice"":""C""}","choice","dtc","repulsion_2","2","laptops","null","null","null","null","null","null","1","30","40","20","100","90","100","Processing speed","Memory (RAM)","",""
"","","","","","choice_trial_setup","html-keyboard-response","126","2056152","0.0-5.0-0.21","161","1","2025-04-14 14:20:53","bb671e3ae32f654b8954ea4c4635f915","","Mozilla/5.0 (Windows NT 10.0; Win64; x64) AppleWebKit/537.36 (KHTML, like Gecko) Chrome/134.0.0.0 Safari/537.36","WebKit","Chrome","134.0.0.0","Windows","10.0","https://hz8g1ckzuq.cognition.run/","en-US,en;q=0.9","yrb1mld0jaecl1h","58","[""White""]","No","Male","2244024.400000006","null","","<p></p>","null","choice","dct","repulsion_1","1","laptops","null","null","null","null","null","null","1","","","","","","","","","",""
"","","","","","choice_trial","survey-html-form","127","2061143","0.0-5.0-1.21","161","1","2025-04-14 14:20:53","bb671e3ae32f654b8954ea4c4635f915","","Mozilla/5.0 (Windows NT 10.0; Win64; x64) AppleWebKit/537.36 (KHTML, like Gecko) Chrome/134.0.0.0 Safari/537.36","WebKit","Chrome","134.0.0.0","Windows","10.0","https://hz8g1ckzuq.cognition.run/","en-US,en;q=0.9","yrb1mld0jaecl1h","58","[""White""]","No","Male","2244024.400000006","4978","","","{""product_choice"":""B""}","choice","dct","repulsion_1","1","laptops","null","null","null","null","null","null","1","100","90","100","30","40","25","Processing speed","Memory (RAM)","",""
"","","","","","choice_trial_setup","html-keyboard-response","128","2061449","0.0-5.0-0.22","161","1","2025-04-14 14:20:53","bb671e3ae32f654b8954ea4c4635f915","","Mozilla/5.0 (Windows NT 10.0; Win64; x64) AppleWebKit/537.36 (KHTML, like Gecko) Chrome/134.0.0.0 Safari/537.36","WebKit","Chrome","134.0.0.0","Windows","10.0","https://hz8g1ckzuq.cognition.run/","en-US,en;q=0.9","yrb1mld0jaecl1h","58","[""White""]","No","Male","2244024.400000006","null","","<p></p>","null","choice","dct","repulsion_1","2","microwave ovens","null","null","null","null","null","null","1","","","","","","","","","",""
"","","","","","choice_trial","survey-html-form","129","2065923","0.0-5.0-1.22","161","1","2025-04-14 14:20:53","bb671e3ae32f654b8954ea4c4635f915","","Mozilla/5.0 (Windows NT 10.0; Win64; x64) AppleWebKit/537.36 (KHTML, like Gecko) Chrome/134.0.0.0 Safari/537.36","WebKit","Chrome","134.0.0.0","Windows","10.0","https://hz8g1ckzuq.cognition.run/","en-US,en;q=0.9","yrb1mld0jaecl1h","58","[""White""]","No","Male","2244024.400000006","4461","","","{""product_choice"":""B""}","choice","dct","repulsion_1","2","microwave ovens","null","null","null","null","null","null","1","30","40","25","100","90","100","Warranty","Cooking power","",""
"","","","","","choice_trial_setup","html-keyboard-response","130","2066230","0.0-5.0-0.23","161","1","2025-04-14 14:20:53","bb671e3ae32f654b8954ea4c4635f915","","Mozilla/5.0 (Windows NT 10.0; Win64; x64) AppleWebKit/537.36 (KHTML, like Gecko) Chrome/134.0.0.0 Safari/537.36","WebKit","Chrome","134.0.0.0","Windows","10.0","https://hz8g1ckzuq.cognition.run/","en-US,en;q=0.9","yrb1mld0jaecl1h","58","[""White""]","No","Male","2244024.400000006","null","","<p></p>","null","choice","dct","repulsion_1","2","washing machines","null","null","null","null","null","null","1","","","","","","","","","",""
"","","","","","choice_trial","survey-html-form","131","2070672","0.0-5.0-1.23","161","1","2025-04-14 14:20:53","bb671e3ae32f654b8954ea4c4635f915","","Mozilla/5.0 (Windows NT 10.0; Win64; x64) AppleWebKit/537.36 (KHTML, like Gecko) Chrome/134.0.0.0 Safari/537.36","WebKit","Chrome","134.0.0.0","Windows","10.0","https://hz8g1ckzuq.cognition.run/","en-US,en;q=0.9","yrb1mld0jaecl1h","58","[""White""]","No","Male","2244024.400000006","4435","","","{""product_choice"":""C""}","choice","dct","repulsion_1","2","washing machines","null","null","null","null","null","null","1","30","40","25","100","90","100","Average lifespan","Energy savings","",""
"","","","","","choice_trial_setup","html-keyboard-response","132","2070981","0.0-5.0-0.24","161","1","2025-04-14 14:20:53","bb671e3ae32f654b8954ea4c4635f915","","Mozilla/5.0 (Windows NT 10.0; Win64; x64) AppleWebKit/537.36 (KHTML, like Gecko) Chrome/134.0.0.0 Safari/537.36","WebKit","Chrome","134.0.0.0","Windows","10.0","https://hz8g1ckzuq.cognition.run/","en-US,en;q=0.9","yrb1mld0jaecl1h","58","[""White""]","No","Male","2244024.400000006","null","","<p></p>","null","choice","bww","catch","null","washing machines","70","70","20","45","20","45","2","","","","","","","","","",""
"","","","","","choice_trial","survey-html-form","133","2075316","0.0-5.0-1.24","161","1","2025-04-14 14:20:53","bb671e3ae32f654b8954ea4c4635f915","","Mozilla/5.0 (Windows NT 10.0; Win64; x64) AppleWebKit/537.36 (KHTML, like Gecko) Chrome/134.0.0.0 Safari/537.36","WebKit","Chrome","134.0.0.0","Windows","10.0","https://hz8g1ckzuq.cognition.run/","en-US,en;q=0.9","yrb1mld0jaecl1h","58","[""White""]","No","Male","2244024.400000006","4322","","","{""product_choice"":""A""}","choice","bww","catch","null","washing machines","70","70","20","45","20","45","2","null","null","null","null","null","null","Average lifespan","Energy savings","",""
"","","","","","choice_trial_setup","html-keyboard-response","134","2075622","0.0-5.0-0.25","161","1","2025-04-14 14:20:53","bb671e3ae32f654b8954ea4c4635f915","","Mozilla/5.0 (Windows NT 10.0; Win64; x64) AppleWebKit/537.36 (KHTML, like Gecko) Chrome/134.0.0.0 Safari/537.36","WebKit","Chrome","134.0.0.0","Windows","10.0","https://hz8g1ckzuq.cognition.run/","en-US,en;q=0.9","yrb1mld0jaecl1h","58","[""White""]","No","Male","2244024.400000006","null","","<p></p>","null","choice","dct","repulsion_2","2","washing machines","null","null","null","null","null","null","2","","","","","","","","","",""
"","","","","","choice_trial","survey-html-form","135","2082481","0.0-5.0-1.25","161","1","2025-04-14 14:20:53","bb671e3ae32f654b8954ea4c4635f915","","Mozilla/5.0 (Windows NT 10.0; Win64; x64) AppleWebKit/537.36 (KHTML, like Gecko) Chrome/134.0.0.0 Safari/537.36","WebKit","Chrome","134.0.0.0","Windows","10.0","https://hz8g1ckzuq.cognition.run/","en-US,en;q=0.9","yrb1mld0jaecl1h","58","[""White""]","No","Male","2244024.400000006","6844","","","{""product_choice"":""C""}","choice","dct","repulsion_2","2","washing machines","null","null","null","null","null","null","2","30","40","20","100","90","100","Average lifespan","Energy savings","",""
"","","","","","choice_trial_setup","html-keyboard-response","136","2082790","0.0-5.0-0.26","161","1","2025-04-14 14:20:53","bb671e3ae32f654b8954ea4c4635f915","","Mozilla/5.0 (Windows NT 10.0; Win64; x64) AppleWebKit/537.36 (KHTML, like Gecko) Chrome/134.0.0.0 Safari/537.36","WebKit","Chrome","134.0.0.0","Windows","10.0","https://hz8g1ckzuq.cognition.run/","en-US,en;q=0.9","yrb1mld0jaecl1h","58","[""White""]","No","Male","2244024.400000006","null","","<p></p>","null","choice","dct","attraction_1","1","microwave ovens","null","null","null","null","null","null","2","","","","","","","","","",""
"","","","","","choice_trial","survey-html-form","137","2087896","0.0-5.0-1.26","161","1","2025-04-14 14:20:53","bb671e3ae32f654b8954ea4c4635f915","","Mozilla/5.0 (Windows NT 10.0; Win64; x64) AppleWebKit/537.36 (KHTML, like Gecko) Chrome/134.0.0.0 Safari/537.36","WebKit","Chrome","134.0.0.0","Windows","10.0","https://hz8g1ckzuq.cognition.run/","en-US,en;q=0.9","yrb1mld0jaecl1h","58","[""White""]","No","Male","2244024.400000006","5098","","","{""product_choice"":""B""}","choice","dct","attraction_1","1","microwave ovens","null","null","null","null","null","null","2","60","50","60","50","60","45","Warranty","Cooking power","",""
"","","","","","choice_trial_setup","html-keyboard-response","138","2088203","0.0-5.0-0.27","161","1","2025-04-14 14:20:53","bb671e3ae32f654b8954ea4c4635f915","","Mozilla/5.0 (Windows NT 10.0; Win64; x64) AppleWebKit/537.36 (KHTML, like Gecko) Chrome/134.0.0.0 Safari/537.36","WebKit","Chrome","134.0.0.0","Windows","10.0","https://hz8g1ckzuq.cognition.run/","en-US,en;q=0.9","yrb1mld0jaecl1h","58","[""White""]","No","Male","2244024.400000006","null","","<p></p>","null","choice","dct","attraction_2","2","laptops","null","null","null","null","null","null","1","","","","","","","","","",""
"","","","","","choice_trial","survey-html-form","139","2097464","0.0-5.0-1.27","161","1","2025-04-14 14:20:53","bb671e3ae32f654b8954ea4c4635f915","","Mozilla/5.0 (Windows NT 10.0; Win64; x64) AppleWebKit/537.36 (KHTML, like Gecko) Chrome/134.0.0.0 Safari/537.36","WebKit","Chrome","134.0.0.0","Windows","10.0","https://hz8g1ckzuq.cognition.run/","en-US,en;q=0.9","yrb1mld0jaecl1h","58","[""White""]","No","Male","2244024.400000006","9253","","","{""product_choice"":""B""}","choice","dct","attraction_2","2","laptops","null","null","null","null","null","null","1","50","60","40","60","50","60","Processing speed","Memory (RAM)","",""
"","","","","","choice_trial_setup","html-keyboard-response","140","2097772","0.0-5.0-0.28","161","1","2025-04-14 14:20:53","bb671e3ae32f654b8954ea4c4635f915","","Mozilla/5.0 (Windows NT 10.0; Win64; x64) AppleWebKit/537.36 (KHTML, like Gecko) Chrome/134.0.0.0 Safari/537.36","WebKit","Chrome","134.0.0.0","Windows","10.0","https://hz8g1ckzuq.cognition.run/","en-US,en;q=0.9","yrb1mld0jaecl1h","58","[""White""]","No","Male","2244024.400000006","null","","<p></p>","null","choice","cdt","attraction_1","2","microwave ovens","null","null","null","null","null","null","2","","","","","","","","","",""
"","","","","","choice_trial","survey-html-form","141","2109382","0.0-5.0-1.28","161","1","2025-04-14 14:20:53","bb671e3ae32f654b8954ea4c4635f915","","Mozilla/5.0 (Windows NT 10.0; Win64; x64) AppleWebKit/537.36 (KHTML, like Gecko) Chrome/134.0.0.0 Safari/537.36","WebKit","Chrome","134.0.0.0","Windows","10.0","https://hz8g1ckzuq.cognition.run/","en-US,en;q=0.9","yrb1mld0jaecl1h","58","[""White""]","No","Male","2244024.400000006","11602","","","{""product_choice"":""C""}","choice","cdt","attraction_1","2","microwave ovens","null","null","null","null","null","null","2","50","60","45","60","50","60","Warranty","Cooking power","",""
"","","","","","choice_trial_setup","html-keyboard-response","142","2109689","0.0-5.0-0.29","161","1","2025-04-14 14:20:53","bb671e3ae32f654b8954ea4c4635f915","","Mozilla/5.0 (Windows NT 10.0; Win64; x64) AppleWebKit/537.36 (KHTML, like Gecko) Chrome/134.0.0.0 Safari/537.36","WebKit","Chrome","134.0.0.0","Windows","10.0","https://hz8g1ckzuq.cognition.run/","en-US,en;q=0.9","yrb1mld0jaecl1h","58","[""White""]","No","Male","2244024.400000006","null","","<p></p>","null","choice","ctd","attraction_2","2","microwave ovens","null","null","null","null","null","null","1","","","","","","","","","",""
"","","","","","choice_trial","survey-html-form","143","2115070","0.0-5.0-1.29","161","1","2025-04-14 14:20:53","bb671e3ae32f654b8954ea4c4635f915","","Mozilla/5.0 (Windows NT 10.0; Win64; x64) AppleWebKit/537.36 (KHTML, like Gecko) Chrome/134.0.0.0 Safari/537.36","WebKit","Chrome","134.0.0.0","Windows","10.0","https://hz8g1ckzuq.cognition.run/","en-US,en;q=0.9","yrb1mld0jaecl1h","58","[""White""]","No","Male","2244024.400000006","5369","","","{""product_choice"":""B""}","choice","ctd","attraction_2","2","microwave ovens","null","null","null","null","null","null","1","50","60","40","60","50","60","Warranty","Cooking power","",""
"","","","","","choice_trial_setup","html-keyboard-response","144","2115379","0.0-5.0-0.30","161","1","2025-04-14 14:20:53","bb671e3ae32f654b8954ea4c4635f915","","Mozilla/5.0 (Windows NT 10.0; Win64; x64) AppleWebKit/537.36 (KHTML, like Gecko) Chrome/134.0.0.0 Safari/537.36","WebKit","Chrome","134.0.0.0","Windows","10.0","https://hz8g1ckzuq.cognition.run/","en-US,en;q=0.9","yrb1mld0jaecl1h","58","[""White""]","No","Male","2244024.400000006","null","","<p></p>","null","choice","ctd","attraction_1","2","laptops","null","null","null","null","null","null","1","","","","","","","","","",""
"","","","","","choice_trial","survey-html-form","145","2120495","0.0-5.0-1.30","161","1","2025-04-14 14:20:53","bb671e3ae32f654b8954ea4c4635f915","","Mozilla/5.0 (Windows NT 10.0; Win64; x64) AppleWebKit/537.36 (KHTML, like Gecko) Chrome/134.0.0.0 Safari/537.36","WebKit","Chrome","134.0.0.0","Windows","10.0","https://hz8g1ckzuq.cognition.run/","en-US,en;q=0.9","yrb1mld0jaecl1h","58","[""White""]","No","Male","2244024.400000006","5107","","","{""product_choice"":""A""}","choice","ctd","attraction_1","2","laptops","null","null","null","null","null","null","1","50","60","45","60","50","60","Processing speed","Memory (RAM)","",""
"","","","","","choice_trial_setup","html-keyboard-response","146","2120803","0.0-5.0-0.31","161","1","2025-04-14 14:20:53","bb671e3ae32f654b8954ea4c4635f915","","Mozilla/5.0 (Windows NT 10.0; Win64; x64) AppleWebKit/537.36 (KHTML, like Gecko) Chrome/134.0.0.0 Safari/537.36","WebKit","Chrome","134.0.0.0","Windows","10.0","https://hz8g1ckzuq.cognition.run/","en-US,en;q=0.9","yrb1mld0jaecl1h","58","[""White""]","No","Male","2244024.400000006","null","","<p></p>","null","choice","bww","catch","null","televisions","55","70","20","50","50","25","2","","","","","","","","","",""
"","","","","","choice_trial","survey-html-form","147","2125825","0.0-5.0-1.31","161","1","2025-04-14 14:20:53","bb671e3ae32f654b8954ea4c4635f915","","Mozilla/5.0 (Windows NT 10.0; Win64; x64) AppleWebKit/537.36 (KHTML, like Gecko) Chrome/134.0.0.0 Safari/537.36","WebKit","Chrome","134.0.0.0","Windows","10.0","https://hz8g1ckzuq.cognition.run/","en-US,en;q=0.9","yrb1mld0jaecl1h","58","[""White""]","No","Male","2244024.400000006","5013","","","{""product_choice"":""A""}","choice","bww","catch","null","televisions","55","70","20","50","50","25","2","null","null","null","null","null","null","Screen size","Average lifespan","",""
"","","","","","choice_trial_setup","html-keyboard-response","148","2126133","0.0-5.0-0.32","161","1","2025-04-14 14:20:53","bb671e3ae32f654b8954ea4c4635f915","","Mozilla/5.0 (Windows NT 10.0; Win64; x64) AppleWebKit/537.36 (KHTML, like Gecko) Chrome/134.0.0.0 Safari/537.36","WebKit","Chrome","134.0.0.0","Windows","10.0","https://hz8g1ckzuq.cognition.run/","en-US,en;q=0.9","yrb1mld0jaecl1h","58","[""White""]","No","Male","2244024.400000006","null","","<p></p>","null","choice","tdc","repulsion_1","1","washing machines","null","null","null","null","null","null","1","","","","","","","","","",""
"","","","","","choice_trial","survey-html-form","149","2131491","0.0-5.0-1.32","161","1","2025-04-14 14:20:53","bb671e3ae32f654b8954ea4c4635f915","","Mozilla/5.0 (Windows NT 10.0; Win64; x64) AppleWebKit/537.36 (KHTML, like Gecko) Chrome/134.0.0.0 Safari/537.36","WebKit","Chrome","134.0.0.0","Windows","10.0","https://hz8g1ckzuq.cognition.run/","en-US,en;q=0.9","yrb1mld0jaecl1h","58","[""White""]","No","Male","2244024.400000006","5349","","","{""product_choice"":""C""}","choice","tdc","repulsion_1","1","washing machines","null","null","null","null","null","null","1","100","90","100","30","40","25","Average lifespan","Energy savings","",""
"","","","","","choice_trial_setup","html-keyboard-response","150","2131798","0.0-5.0-0.33","161","1","2025-04-14 14:20:53","bb671e3ae32f654b8954ea4c4635f915","","Mozilla/5.0 (Windows NT 10.0; Win64; x64) AppleWebKit/537.36 (KHTML, like Gecko) Chrome/134.0.0.0 Safari/537.36","WebKit","Chrome","134.0.0.0","Windows","10.0","https://hz8g1ckzuq.cognition.run/","en-US,en;q=0.9","yrb1mld0jaecl1h","58","[""White""]","No","Male","2244024.400000006","null","","<p></p>","null","choice","bww","catch","null","televisions","65","55","35","10","35","10","1","","","","","","","","","",""
"","","","","","choice_trial","survey-html-form","151","2136082","0.0-5.0-1.33","161","1","2025-04-14 14:20:53","bb671e3ae32f654b8954ea4c4635f915","","Mozilla/5.0 (Windows NT 10.0; Win64; x64) AppleWebKit/537.36 (KHTML, like Gecko) Chrome/134.0.0.0 Safari/537.36","WebKit","Chrome","134.0.0.0","Windows","10.0","https://hz8g1ckzuq.cognition.run/","en-US,en;q=0.9","yrb1mld0jaecl1h","58","[""White""]","No","Male","2244024.400000006","4262","","","{""product_choice"":""A""}","choice","bww","catch","null","televisions","65","55","35","10","35","10","1","null","null","null","null","null","null","Screen size","Average lifespan","",""
"","","","","","choice_trial_setup","html-keyboard-response","152","2136391","0.0-5.0-0.34","161","1","2025-04-14 14:20:53","bb671e3ae32f654b8954ea4c4635f915","","Mozilla/5.0 (Windows NT 10.0; Win64; x64) AppleWebKit/537.36 (KHTML, like Gecko) Chrome/134.0.0.0 Safari/537.36","WebKit","Chrome","134.0.0.0","Windows","10.0","https://hz8g1ckzuq.cognition.run/","en-US,en;q=0.9","yrb1mld0jaecl1h","58","[""White""]","No","Male","2244024.400000006","null","","<p></p>","null","choice","dtc","attraction_1","1","laptops","null","null","null","null","null","null","2","","","","","","","","","",""
"","","","","","choice_trial","survey-html-form","153","2142198","0.0-5.0-1.34","161","1","2025-04-14 14:20:53","bb671e3ae32f654b8954ea4c4635f915","","Mozilla/5.0 (Windows NT 10.0; Win64; x64) AppleWebKit/537.36 (KHTML, like Gecko) Chrome/134.0.0.0 Safari/537.36","WebKit","Chrome","134.0.0.0","Windows","10.0","https://hz8g1ckzuq.cognition.run/","en-US,en;q=0.9","yrb1mld0jaecl1h","58","[""White""]","No","Male","2244024.400000006","5799","","","{""product_choice"":""B""}","choice","dtc","attraction_1","1","laptops","null","null","null","null","null","null","2","60","50","60","50","60","45","Processing speed","Memory (RAM)","",""
"","","","","","choice_trial_setup","html-keyboard-response","154","2142507","0.0-5.0-0.35","161","1","2025-04-14 14:20:53","bb671e3ae32f654b8954ea4c4635f915","","Mozilla/5.0 (Windows NT 10.0; Win64; x64) AppleWebKit/537.36 (KHTML, like Gecko) Chrome/134.0.0.0 Safari/537.36","WebKit","Chrome","134.0.0.0","Windows","10.0","https://hz8g1ckzuq.cognition.run/","en-US,en;q=0.9","yrb1mld0jaecl1h","58","[""White""]","No","Male","2244024.400000006","null","","<p></p>","null","choice","dtc","repulsion_2","1","washing machines","null","null","null","null","null","null","1","","","","","","","","","",""
"","","","","","choice_trial","survey-html-form","155","2148090","0.0-5.0-1.35","161","1","2025-04-14 14:20:53","bb671e3ae32f654b8954ea4c4635f915","","Mozilla/5.0 (Windows NT 10.0; Win64; x64) AppleWebKit/537.36 (KHTML, like Gecko) Chrome/134.0.0.0 Safari/537.36","WebKit","Chrome","134.0.0.0","Windows","10.0","https://hz8g1ckzuq.cognition.run/","en-US,en;q=0.9","yrb1mld0jaecl1h","58","[""White""]","No","Male","2244024.400000006","5570","","","{""product_choice"":""C""}","choice","dtc","repulsion_2","1","washing machines","null","null","null","null","null","null","1","100","90","100","30","40","20","Average lifespan","Energy savings","",""
"","","","","","choice_trial_setup","html-keyboard-response","156","2148399","0.0-5.0-0.36","161","1","2025-04-14 14:20:53","bb671e3ae32f654b8954ea4c4635f915","","Mozilla/5.0 (Windows NT 10.0; Win64; x64) AppleWebKit/537.36 (KHTML, like Gecko) Chrome/134.0.0.0 Safari/537.36","WebKit","Chrome","134.0.0.0","Windows","10.0","https://hz8g1ckzuq.cognition.run/","en-US,en;q=0.9","yrb1mld0jaecl1h","58","[""White""]","No","Male","2244024.400000006","null","","<p></p>","null","choice","ctd","attraction_2","2","televisions","null","null","null","null","null","null","2","","","","","","","","","",""
"","","","","","choice_trial","survey-html-form","157","2155318","0.0-5.0-1.36","161","1","2025-04-14 14:20:53","bb671e3ae32f654b8954ea4c4635f915","","Mozilla/5.0 (Windows NT 10.0; Win64; x64) AppleWebKit/537.36 (KHTML, like Gecko) Chrome/134.0.0.0 Safari/537.36","WebKit","Chrome","134.0.0.0","Windows","10.0","https://hz8g1ckzuq.cognition.run/","en-US,en;q=0.9","yrb1mld0jaecl1h","58","[""White""]","No","Male","2244024.400000006","6908","","","{""product_choice"":""B""}","choice","ctd","attraction_2","2","televisions","null","null","null","null","null","null","2","50","60","40","60","50","60","Screen size","Average lifespan","",""
