"success","timeout","failed_images","failed_audio","failed_video","screen_id","trial_type","trial_index","time_elapsed","internal_node_id","run_id","condition","recorded_at","source_code_version","ip","user_agent","device","browser","browser_version","platform","platform_version","referer","accept_language","ppt_id","age","race","ethnicity","gender","exp_duration","rt","view_history","stimulus","response","phase","order","effect","t_high","category","d1_best","d2_best","d1_worst1","d2_worst1","d1_worst2","d2_worst2","first_dim","d1_t","d1_c","d1_d","d2_t","d2_c","d2_d","d1_name","d2_name","strategy_response","question_order"
"true","false","[]","[]","[]","img preload","preload","0","4021","0.0-0.0","164","1","2025-04-14 14:22:45","bb671e3ae32f654b8954ea4c4635f915","","Mozilla/5.0 (Windows NT 11.0; Win64; x64) AppleWebKit/537.36 (KHTML, like Gecko) Chrome/130.0.0.0 Safari/537.36","WebKit","Chrome","130.0.0.0","Windows","11.0","https://hz8g1ckzuq.cognition.run/","en,en-US;q=0.9","bnslu6uqlcfojh7","42","[""White""]","No","Female","917288.099999994","","","","","","","","","","","","","","","","","","","","","","","","","",""
"true","","","","","","fullscreen","1","54471","0.0-1.0","164","1","2025-04-14 14:22:45","bb671e3ae32f654b8954ea4c4635f915","","Mozilla/5.0 (Windows NT 11.0; Win64; x64) AppleWebKit/537.36 (KHTML, like Gecko) Chrome/130.0.0.0 Safari/537.36","WebKit","Chrome","130.0.0.0","Windows","11.0","https://hz8g1ckzuq.cognition.run/","en,en-US;q=0.9","bnslu6uqlcfojh7","42","[""White""]","No","Female","917288.099999994","49430","","","","","","","","","","","","","","","","","","","","","","","","",""
"","","","","","","instructions","2","84349","0.0-2.0","164","1","2025-04-14 14:22:45","bb671e3ae32f654b8954ea4c4635f915","","Mozilla/5.0 (Windows NT 11.0; Win64; x64) AppleWebKit/537.36 (KHTML, like Gecko) Chrome/130.0.0.0 Safari/537.36","WebKit","Chrome","130.0.0.0","Windows","11.0","https://hz8g1ckzuq.cognition.run/","en,en-US;q=0.9","bnslu6uqlcfojh7","42","[""White""]","No","Female","917288.099999994","29873","[{""page_index"":0,""viewing_time"":2321},{""page_index"":1,""viewing_time"":4104},{""page_index"":2,""viewing_time"":975},{""page_index"":3,""viewing_time"":1512},{""page_index"":4,""viewing_time"":937},{""page_index"":5,""viewing_time"":815},{""page_index"":6,""viewing_time"":712},{""page_index"":7,""viewing_time"":1816},{""page_index"":8,""viewing_time"":2945},{""page_index"":9,""viewing_time"":13736}]","","","","","","","","","","","","","","","","","","","","","","","",""
"","","","","","rating_trial_setup","html-keyboard-response","3","84662","0.0-3.0-0.0","164","1","2025-04-14 14:22:45","bb671e3ae32f654b8954ea4c4635f915","","Mozilla/5.0 (Windows NT 11.0; Win64; x64) AppleWebKit/537.36 (KHTML, like Gecko) Chrome/130.0.0.0 Safari/537.36","WebKit","Chrome","130.0.0.0","Windows","11.0","https://hz8g1ckzuq.cognition.run/","en,en-US;q=0.9","bnslu6uqlcfojh7","42","[""White""]","No","Female","917288.099999994","null","","<p></p>","null","rating","tdc","repulsion_2","1","laptops","null","null","null","null","null","null","2","","","","","","","","","",""
"","","","","","rating_trial","survey-html-form","4","101354","0.0-3.0-1.0","164","1","2025-04-14 14:22:45","bb671e3ae32f654b8954ea4c4635f915","","Mozilla/5.0 (Windows NT 11.0; Win64; x64) AppleWebKit/537.36 (KHTML, like Gecko) Chrome/130.0.0.0 Safari/537.36","WebKit","Chrome","130.0.0.0","Windows","11.0","https://hz8g1ckzuq.cognition.run/","en,en-US;q=0.9","bnslu6uqlcfojh7","42","[""White""]","No","Female","917288.099999994","16681","","","{""price_1"":""10"",""price_2"":""10"",""price_3"":""20""}","rating","tdc","repulsion_2","1","laptops","null","null","null","null","null","null","2","100","90","100","30","40","20","Processing speed","Memory (RAM)","",""
"","","","","","rating_trial_setup","html-keyboard-response","5","101669","0.0-3.0-0.1","164","1","2025-04-14 14:22:45","bb671e3ae32f654b8954ea4c4635f915","","Mozilla/5.0 (Windows NT 11.0; Win64; x64) AppleWebKit/537.36 (KHTML, like Gecko) Chrome/130.0.0.0 Safari/537.36","WebKit","Chrome","130.0.0.0","Windows","11.0","https://hz8g1ckzuq.cognition.run/","en,en-US;q=0.9","bnslu6uqlcfojh7","42","[""White""]","No","Female","917288.099999994","null","","<p></p>","null","rating","tdc","repulsion_1","1","laptops","null","null","null","null","null","null","1","","","","","","","","","",""
"","","","","","rating_trial","survey-html-form","6","109832","0.0-3.0-1.1","164","1","2025-04-14 14:22:45","bb671e3ae32f654b8954ea4c4635f915","","Mozilla/5.0 (Windows NT 11.0; Win64; x64) AppleWebKit/537.36 (KHTML, like Gecko) Chrome/130.0.0.0 Safari/537.36","WebKit","Chrome","130.0.0.0","Windows","11.0","https://hz8g1ckzuq.cognition.run/","en,en-US;q=0.9","bnslu6uqlcfojh7","42","[""White""]","No","Female","917288.099999994","8148","","","{""price_1"":""10"",""price_2"":""20"",""price_3"":""30""}","rating","tdc","repulsion_1","1","laptops","null","null","null","null","null","null","1","100","90","100","30","40","25","Processing speed","Memory (RAM)","",""
"","","","","","rating_trial_setup","html-keyboard-response","7","110142","0.0-3.0-0.2","164","1","2025-04-14 14:22:45","bb671e3ae32f654b8954ea4c4635f915","","Mozilla/5.0 (Windows NT 11.0; Win64; x64) AppleWebKit/537.36 (KHTML, like Gecko) Chrome/130.0.0.0 Safari/537.36","WebKit","Chrome","130.0.0.0","Windows","11.0","https://hz8g1ckzuq.cognition.run/","en,en-US;q=0.9","bnslu6uqlcfojh7","42","[""White""]","No","Female","917288.099999994","null","","<p></p>","null","rating","cdt","attraction_2","2","microwave ovens","null","null","null","null","null","null","2","","","","","","","","","",""
"","","","","","rating_trial","survey-html-form","8","120436","0.0-3.0-1.2","164","1","2025-04-14 14:22:45","bb671e3ae32f654b8954ea4c4635f915","","Mozilla/5.0 (Windows NT 11.0; Win64; x64) AppleWebKit/537.36 (KHTML, like Gecko) Chrome/130.0.0.0 Safari/537.36","WebKit","Chrome","130.0.0.0","Windows","11.0","https://hz8g1ckzuq.cognition.run/","en,en-US;q=0.9","bnslu6uqlcfojh7","42","[""White""]","No","Female","917288.099999994","10283","","","{""price_1"":""10"",""price_2"":""20"",""price_3"":""10""}","rating","cdt","attraction_2","2","microwave ovens","null","null","null","null","null","null","2","50","60","40","60","50","60","Warranty","Cooking power","",""
"","","","","","rating_trial_setup","html-keyboard-response","9","120744","0.0-3.0-0.3","164","1","2025-04-14 14:22:45","bb671e3ae32f654b8954ea4c4635f915","","Mozilla/5.0 (Windows NT 11.0; Win64; x64) AppleWebKit/537.36 (KHTML, like Gecko) Chrome/130.0.0.0 Safari/537.36","WebKit","Chrome","130.0.0.0","Windows","11.0","https://hz8g1ckzuq.cognition.run/","en,en-US;q=0.9","bnslu6uqlcfojh7","42","[""White""]","No","Female","917288.099999994","null","","<p></p>","null","rating","ctd","attraction_1","1","microwave ovens","null","null","null","null","null","null","2","","","","","","","","","",""
"","","","","","rating_trial","survey-html-form","10","137202","0.0-3.0-1.3","164","1","2025-04-14 14:22:45","bb671e3ae32f654b8954ea4c4635f915","","Mozilla/5.0 (Windows NT 11.0; Win64; x64) AppleWebKit/537.36 (KHTML, like Gecko) Chrome/130.0.0.0 Safari/537.36","WebKit","Chrome","130.0.0.0","Windows","11.0","https://hz8g1ckzuq.cognition.run/","en,en-US;q=0.9","bnslu6uqlcfojh7","42","[""White""]","No","Female","917288.099999994","16450","","","{""price_1"":""10"",""price_2"":""20"",""price_3"":""10""}","rating","ctd","attraction_1","1","microwave ovens","null","null","null","null","null","null","2","60","50","60","50","60","45","Warranty","Cooking power","",""
"","","","","","rating_trial_setup","html-keyboard-response","11","137511","0.0-3.0-0.4","164","1","2025-04-14 14:22:45","bb671e3ae32f654b8954ea4c4635f915","","Mozilla/5.0 (Windows NT 11.0; Win64; x64) AppleWebKit/537.36 (KHTML, like Gecko) Chrome/130.0.0.0 Safari/537.36","WebKit","Chrome","130.0.0.0","Windows","11.0","https://hz8g1ckzuq.cognition.run/","en,en-US;q=0.9","bnslu6uqlcfojh7","42","[""White""]","No","Female","917288.099999994","null","","<p></p>","null","rating","tdc","repulsion_1","2","laptops","null","null","null","null","null","null","2","","","","","","","","","",""
"","","","","","rating_trial","survey-html-form","12","146454","0.0-3.0-1.4","164","1","2025-04-14 14:22:45","bb671e3ae32f654b8954ea4c4635f915","","Mozilla/5.0 (Windows NT 11.0; Win64; x64) AppleWebKit/537.36 (KHTML, like Gecko) Chrome/130.0.0.0 Safari/537.36","WebKit","Chrome","130.0.0.0","Windows","11.0","https://hz8g1ckzuq.cognition.run/","en,en-US;q=0.9","bnslu6uqlcfojh7","42","[""White""]","No","Female","917288.099999994","8933","","","{""price_1"":""10"",""price_2"":""20"",""price_3"":""10""}","rating","tdc","repulsion_1","2","laptops","null","null","null","null","null","null","2","30","40","25","100","90","100","Processing speed","Memory (RAM)","",""
"","","","","","rating_trial_setup","html-keyboard-response","13","146769","0.0-3.0-0.5","164","1","2025-04-14 14:22:45","bb671e3ae32f654b8954ea4c4635f915","","Mozilla/5.0 (Windows NT 11.0; Win64; x64) AppleWebKit/537.36 (KHTML, like Gecko) Chrome/130.0.0.0 Safari/537.36","WebKit","Chrome","130.0.0.0","Windows","11.0","https://hz8g1ckzuq.cognition.run/","en,en-US;q=0.9","bnslu6uqlcfojh7","42","[""White""]","No","Female","917288.099999994","null","","<p></p>","null","rating","tdc","attraction_2","1","microwave ovens","null","null","null","null","null","null","1","","","","","","","","","",""
"","","","","","rating_trial","survey-html-form","14","156366","0.0-3.0-1.5","164","1","2025-04-14 14:22:45","bb671e3ae32f654b8954ea4c4635f915","","Mozilla/5.0 (Windows NT 11.0; Win64; x64) AppleWebKit/537.36 (KHTML, like Gecko) Chrome/130.0.0.0 Safari/537.36","WebKit","Chrome","130.0.0.0","Windows","11.0","https://hz8g1ckzuq.cognition.run/","en,en-US;q=0.9","bnslu6uqlcfojh7","42","[""White""]","No","Female","917288.099999994","9588","","","{""price_1"":""10"",""price_2"":""10"",""price_3"":""20""}","rating","tdc","attraction_2","1","microwave ovens","null","null","null","null","null","null","1","60","50","60","50","60","40","Warranty","Cooking power","",""
"","","","","","rating_trial_setup","html-keyboard-response","15","156677","0.0-3.0-0.6","164","1","2025-04-14 14:22:45","bb671e3ae32f654b8954ea4c4635f915","","Mozilla/5.0 (Windows NT 11.0; Win64; x64) AppleWebKit/537.36 (KHTML, like Gecko) Chrome/130.0.0.0 Safari/537.36","WebKit","Chrome","130.0.0.0","Windows","11.0","https://hz8g1ckzuq.cognition.run/","en,en-US;q=0.9","bnslu6uqlcfojh7","42","[""White""]","No","Female","917288.099999994","null","","<p></p>","null","rating","wwb","catch","null","laptops","85","75","35","5","25","40","2","","","","","","","","","",""
"","","","","","rating_trial","survey-html-form","16","165530","0.0-3.0-1.6","164","1","2025-04-14 14:22:45","bb671e3ae32f654b8954ea4c4635f915","","Mozilla/5.0 (Windows NT 11.0; Win64; x64) AppleWebKit/537.36 (KHTML, like Gecko) Chrome/130.0.0.0 Safari/537.36","WebKit","Chrome","130.0.0.0","Windows","11.0","https://hz8g1ckzuq.cognition.run/","en,en-US;q=0.9","bnslu6uqlcfojh7","42","[""White""]","No","Female","917288.099999994","8846","","","{""price_1"":""10"",""price_2"":""20"",""price_3"":""20""}","rating","wwb","catch","null","laptops","85","75","35","5","25","40","2","null","null","null","null","null","null","Processing speed","Memory (RAM)","",""
"","","","","","rating_trial_setup","html-keyboard-response","17","165849","0.0-3.0-0.7","164","1","2025-04-14 14:22:45","bb671e3ae32f654b8954ea4c4635f915","","Mozilla/5.0 (Windows NT 11.0; Win64; x64) AppleWebKit/537.36 (KHTML, like Gecko) Chrome/130.0.0.0 Safari/537.36","WebKit","Chrome","130.0.0.0","Windows","11.0","https://hz8g1ckzuq.cognition.run/","en,en-US;q=0.9","bnslu6uqlcfojh7","42","[""White""]","No","Female","917288.099999994","null","","<p></p>","null","rating","tcd","repulsion_2","1","televisions","null","null","null","null","null","null","2","","","","","","","","","",""
"","","","","","rating_trial","survey-html-form","18","173461","0.0-3.0-1.7","164","1","2025-04-14 14:22:45","bb671e3ae32f654b8954ea4c4635f915","","Mozilla/5.0 (Windows NT 11.0; Win64; x64) AppleWebKit/537.36 (KHTML, like Gecko) Chrome/130.0.0.0 Safari/537.36","WebKit","Chrome","130.0.0.0","Windows","11.0","https://hz8g1ckzuq.cognition.run/","en,en-US;q=0.9","bnslu6uqlcfojh7","42","[""White""]","No","Female","917288.099999994","7601","","","{""price_1"":""10"",""price_2"":""20"",""price_3"":""20""}","rating","tcd","repulsion_2","1","televisions","null","null","null","null","null","null","2","100","90","100","30","40","20","Screen size","Average lifespan","",""
"","","","","","rating_trial_setup","html-keyboard-response","19","173773","0.0-3.0-0.8","164","1","2025-04-14 14:22:45","bb671e3ae32f654b8954ea4c4635f915","","Mozilla/5.0 (Windows NT 11.0; Win64; x64) AppleWebKit/537.36 (KHTML, like Gecko) Chrome/130.0.0.0 Safari/537.36","WebKit","Chrome","130.0.0.0","Windows","11.0","https://hz8g1ckzuq.cognition.run/","en,en-US;q=0.9","bnslu6uqlcfojh7","42","[""White""]","No","Female","917288.099999994","null","","<p></p>","null","rating","dtc","repulsion_1","1","washing machines","null","null","null","null","null","null","2","","","","","","","","","",""
"","","","","","rating_trial","survey-html-form","20","181376","0.0-3.0-1.8","164","1","2025-04-14 14:22:45","bb671e3ae32f654b8954ea4c4635f915","","Mozilla/5.0 (Windows NT 11.0; Win64; x64) AppleWebKit/537.36 (KHTML, like Gecko) Chrome/130.0.0.0 Safari/537.36","WebKit","Chrome","130.0.0.0","Windows","11.0","https://hz8g1ckzuq.cognition.run/","en,en-US;q=0.9","bnslu6uqlcfojh7","42","[""White""]","No","Female","917288.099999994","7592","","","{""price_1"":""10"",""price_2"":""30"",""price_3"":""20""}","rating","dtc","repulsion_1","1","washing machines","null","null","null","null","null","null","2","100","90","100","30","40","25","Average lifespan","Energy savings","",""
"","","","","","rating_trial_setup","html-keyboard-response","21","181690","0.0-3.0-0.9","164","1","2025-04-14 14:22:45","bb671e3ae32f654b8954ea4c4635f915","","Mozilla/5.0 (Windows NT 11.0; Win64; x64) AppleWebKit/537.36 (KHTML, like Gecko) Chrome/130.0.0.0 Safari/537.36","WebKit","Chrome","130.0.0.0","Windows","11.0","https://hz8g1ckzuq.cognition.run/","en,en-US;q=0.9","bnslu6uqlcfojh7","42","[""White""]","No","Female","917288.099999994","null","","<p></p>","null","rating","tcd","attraction_1","1","televisions","null","null","null","null","null","null","1","","","","","","","","","",""
"","","","","","rating_trial","survey-html-form","22","194029","0.0-3.0-1.9","164","1","2025-04-14 14:22:45","bb671e3ae32f654b8954ea4c4635f915","","Mozilla/5.0 (Windows NT 11.0; Win64; x64) AppleWebKit/537.36 (KHTML, like Gecko) Chrome/130.0.0.0 Safari/537.36","WebKit","Chrome","130.0.0.0","Windows","11.0","https://hz8g1ckzuq.cognition.run/","en,en-US;q=0.9","bnslu6uqlcfojh7","42","[""White""]","No","Female","917288.099999994","12329","","","{""price_1"":""20"",""price_2"":""20"",""price_3"":""10""}","rating","tcd","attraction_1","1","televisions","null","null","null","null","null","null","1","60","50","60","50","60","45","Screen size","Average lifespan","",""
"","","","","","rating_trial_setup","html-keyboard-response","23","194342","0.0-3.0-0.10","164","1","2025-04-14 14:22:45","bb671e3ae32f654b8954ea4c4635f915","","Mozilla/5.0 (Windows NT 11.0; Win64; x64) AppleWebKit/537.36 (KHTML, like Gecko) Chrome/130.0.0.0 Safari/537.36","WebKit","Chrome","130.0.0.0","Windows","11.0","https://hz8g1ckzuq.cognition.run/","en,en-US;q=0.9","bnslu6uqlcfojh7","42","[""White""]","No","Female","917288.099999994","null","","<p></p>","null","rating","dct","attraction_2","1","washing machines","null","null","null","null","null","null","1","","","","","","","","","",""
"","","","","","rating_trial","survey-html-form","24","202381","0.0-3.0-1.10","164","1","2025-04-14 14:22:45","bb671e3ae32f654b8954ea4c4635f915","","Mozilla/5.0 (Windows NT 11.0; Win64; x64) AppleWebKit/537.36 (KHTML, like Gecko) Chrome/130.0.0.0 Safari/537.36","WebKit","Chrome","130.0.0.0","Windows","11.0","https://hz8g1ckzuq.cognition.run/","en,en-US;q=0.9","bnslu6uqlcfojh7","42","[""White""]","No","Female","917288.099999994","8027","","","{""price_1"":""10"",""price_2"":""20"",""price_3"":""30""}","rating","dct","attraction_2","1","washing machines","null","null","null","null","null","null","1","60","50","60","50","60","40","Average lifespan","Energy savings","",""
"","","","","","rating_trial_setup","html-keyboard-response","25","202691","0.0-3.0-0.11","164","1","2025-04-14 14:22:45","bb671e3ae32f654b8954ea4c4635f915","","Mozilla/5.0 (Windows NT 11.0; Win64; x64) AppleWebKit/537.36 (KHTML, like Gecko) Chrome/130.0.0.0 Safari/537.36","WebKit","Chrome","130.0.0.0","Windows","11.0","https://hz8g1ckzuq.cognition.run/","en,en-US;q=0.9","bnslu6uqlcfojh7","42","[""White""]","No","Female","917288.099999994","null","","<p></p>","null","rating","wwb","catch","null","washing machines","50","65","20","30","15","5","2","","","","","","","","","",""
"","","","","","rating_trial","survey-html-form","26","211169","0.0-3.0-1.11","164","1","2025-04-14 14:22:45","bb671e3ae32f654b8954ea4c4635f915","","Mozilla/5.0 (Windows NT 11.0; Win64; x64) AppleWebKit/537.36 (KHTML, like Gecko) Chrome/130.0.0.0 Safari/537.36","WebKit","Chrome","130.0.0.0","Windows","11.0","https://hz8g1ckzuq.cognition.run/","en,en-US;q=0.9","bnslu6uqlcfojh7","42","[""White""]","No","Female","917288.099999994","8470","","","{""price_1"":""20"",""price_2"":""20"",""price_3"":""30""}","rating","wwb","catch","null","washing machines","50","65","20","30","15","5","2","null","null","null","null","null","null","Average lifespan","Energy savings","",""
"","","","","","rating_trial_setup","html-keyboard-response","27","211478","0.0-3.0-0.12","164","1","2025-04-14 14:22:45","bb671e3ae32f654b8954ea4c4635f915","","Mozilla/5.0 (Windows NT 11.0; Win64; x64) AppleWebKit/537.36 (KHTML, like Gecko) Chrome/130.0.0.0 Safari/537.36","WebKit","Chrome","130.0.0.0","Windows","11.0","https://hz8g1ckzuq.cognition.run/","en,en-US;q=0.9","bnslu6uqlcfojh7","42","[""White""]","No","Female","917288.099999994","null","","<p></p>","null","rating","tcd","repulsion_1","1","microwave ovens","null","null","null","null","null","null","1","","","","","","","","","",""
"","","","","","rating_trial","survey-html-form","28","218553","0.0-3.0-1.12","164","1","2025-04-14 14:22:45","bb671e3ae32f654b8954ea4c4635f915","","Mozilla/5.0 (Windows NT 11.0; Win64; x64) AppleWebKit/537.36 (KHTML, like Gecko) Chrome/130.0.0.0 Safari/537.36","WebKit","Chrome","130.0.0.0","Windows","11.0","https://hz8g1ckzuq.cognition.run/","en,en-US;q=0.9","bnslu6uqlcfojh7","42","[""White""]","No","Female","917288.099999994","7064","","","{""price_1"":""10"",""price_2"":""20"",""price_3"":""30""}","rating","tcd","repulsion_1","1","microwave ovens","null","null","null","null","null","null","1","100","90","100","30","40","25","Warranty","Cooking power","",""
"","","","","","rating_trial_setup","html-keyboard-response","29","218864","0.0-3.0-0.13","164","1","2025-04-14 14:22:45","bb671e3ae32f654b8954ea4c4635f915","","Mozilla/5.0 (Windows NT 11.0; Win64; x64) AppleWebKit/537.36 (KHTML, like Gecko) Chrome/130.0.0.0 Safari/537.36","WebKit","Chrome","130.0.0.0","Windows","11.0","https://hz8g1ckzuq.cognition.run/","en,en-US;q=0.9","bnslu6uqlcfojh7","42","[""White""]","No","Female","917288.099999994","null","","<p></p>","null","rating","tcd","repulsion_1","2","washing machines","null","null","null","null","null","null","1","","","","","","","","","",""
"","","","","","rating_trial","survey-html-form","30","227961","0.0-3.0-1.13","164","1","2025-04-14 14:22:45","bb671e3ae32f654b8954ea4c4635f915","","Mozilla/5.0 (Windows NT 11.0; Win64; x64) AppleWebKit/537.36 (KHTML, like Gecko) Chrome/130.0.0.0 Safari/537.36","WebKit","Chrome","130.0.0.0","Windows","11.0","https://hz8g1ckzuq.cognition.run/","en,en-US;q=0.9","bnslu6uqlcfojh7","42","[""White""]","No","Female","917288.099999994","9087","","","{""price_1"":""10"",""price_2"":""50"",""price_3"":""10""}","rating","tcd","repulsion_1","2","washing machines","null","null","null","null","null","null","1","30","40","25","100","90","100","Average lifespan","Energy savings","",""
"","","","","","rating_trial_setup","html-keyboard-response","31","228269","0.0-3.0-0.14","164","1","2025-04-14 14:22:45","bb671e3ae32f654b8954ea4c4635f915","","Mozilla/5.0 (Windows NT 11.0; Win64; x64) AppleWebKit/537.36 (KHTML, like Gecko) Chrome/130.0.0.0 Safari/537.36","WebKit","Chrome","130.0.0.0","Windows","11.0","https://hz8g1ckzuq.cognition.run/","en,en-US;q=0.9","bnslu6uqlcfojh7","42","[""White""]","No","Female","917288.099999994","null","","<p></p>","null","rating","bww","catch","null","televisions","90","55","45","25","20","25","1","","","","","","","","","",""
"","","","","","rating_trial","survey-html-form","32","235775","0.0-3.0-1.14","164","1","2025-04-14 14:22:45","bb671e3ae32f654b8954ea4c4635f915","","Mozilla/5.0 (Windows NT 11.0; Win64; x64) AppleWebKit/537.36 (KHTML, like Gecko) Chrome/130.0.0.0 Safari/537.36","WebKit","Chrome","130.0.0.0","Windows","11.0","https://hz8g1ckzuq.cognition.run/","en,en-US;q=0.9","bnslu6uqlcfojh7","42","[""White""]","No","Female","917288.099999994","7499","","","{""price_1"":""10"",""price_2"":""20"",""price_3"":""40""}","rating","bww","catch","null","televisions","90","55","45","25","20","25","1","null","null","null","null","null","null","Screen size","Average lifespan","",""
"","","","","","rating_trial_setup","html-keyboard-response","33","236085","0.0-3.0-0.15","164","1","2025-04-14 14:22:45","bb671e3ae32f654b8954ea4c4635f915","","Mozilla/5.0 (Windows NT 11.0; Win64; x64) AppleWebKit/537.36 (KHTML, like Gecko) Chrome/130.0.0.0 Safari/537.36","WebKit","Chrome","130.0.0.0","Windows","11.0","https://hz8g1ckzuq.cognition.run/","en,en-US;q=0.9","bnslu6uqlcfojh7","42","[""White""]","No","Female","917288.099999994","null","","<p></p>","null","rating","ctd","attraction_1","2","microwave ovens","null","null","null","null","null","null","2","","","","","","","","","",""
"","","","","","rating_trial","survey-html-form","34","242623","0.0-3.0-1.15","164","1","2025-04-14 14:22:45","bb671e3ae32f654b8954ea4c4635f915","","Mozilla/5.0 (Windows NT 11.0; Win64; x64) AppleWebKit/537.36 (KHTML, like Gecko) Chrome/130.0.0.0 Safari/537.36","WebKit","Chrome","130.0.0.0","Windows","11.0","https://hz8g1ckzuq.cognition.run/","en,en-US;q=0.9","bnslu6uqlcfojh7","42","[""White""]","No","Female","917288.099999994","6528","","","{""price_1"":""10"",""price_2"":""30"",""price_3"":""20""}","rating","ctd","attraction_1","2","microwave ovens","null","null","null","null","null","null","2","50","60","45","60","50","60","Warranty","Cooking power","",""
"","","","","","rating_trial_setup","html-keyboard-response","35","242938","0.0-3.0-0.16","164","1","2025-04-14 14:22:45","bb671e3ae32f654b8954ea4c4635f915","","Mozilla/5.0 (Windows NT 11.0; Win64; x64) AppleWebKit/537.36 (KHTML, like Gecko) Chrome/130.0.0.0 Safari/537.36","WebKit","Chrome","130.0.0.0","Windows","11.0","https://hz8g1ckzuq.cognition.run/","en,en-US;q=0.9","bnslu6uqlcfojh7","42","[""White""]","No","Female","917288.099999994","null","","<p></p>","null","rating","cdt","repulsion_1","2","televisions","null","null","null","null","null","null","2","","","","","","","","","",""
"","","","","","rating_trial","survey-html-form","36","250351","0.0-3.0-1.16","164","1","2025-04-14 14:22:45","bb671e3ae32f654b8954ea4c4635f915","","Mozilla/5.0 (Windows NT 11.0; Win64; x64) AppleWebKit/537.36 (KHTML, like Gecko) Chrome/130.0.0.0 Safari/537.36","WebKit","Chrome","130.0.0.0","Windows","11.0","https://hz8g1ckzuq.cognition.run/","en,en-US;q=0.9","bnslu6uqlcfojh7","42","[""White""]","No","Female","917288.099999994","7398","","","{""price_1"":""10"",""price_2"":""20"",""price_3"":""20""}","rating","cdt","repulsion_1","2","televisions","null","null","null","null","null","null","2","30","40","25","100","90","100","Screen size","Average lifespan","",""
"","","","","","rating_trial_setup","html-keyboard-response","37","250669","0.0-3.0-0.17","164","1","2025-04-14 14:22:45","bb671e3ae32f654b8954ea4c4635f915","","Mozilla/5.0 (Windows NT 11.0; Win64; x64) AppleWebKit/537.36 (KHTML, like Gecko) Chrome/130.0.0.0 Safari/537.36","WebKit","Chrome","130.0.0.0","Windows","11.0","https://hz8g1ckzuq.cognition.run/","en,en-US;q=0.9","bnslu6uqlcfojh7","42","[""White""]","No","Female","917288.099999994","null","","<p></p>","null","rating","bww","catch","null","microwave ovens","90","75","30","10","10","35","2","","","","","","","","","",""
"","","","","","rating_trial","survey-html-form","38","257887","0.0-3.0-1.17","164","1","2025-04-14 14:22:45","bb671e3ae32f654b8954ea4c4635f915","","Mozilla/5.0 (Windows NT 11.0; Win64; x64) AppleWebKit/537.36 (KHTML, like Gecko) Chrome/130.0.0.0 Safari/537.36","WebKit","Chrome","130.0.0.0","Windows","11.0","https://hz8g1ckzuq.cognition.run/","en,en-US;q=0.9","bnslu6uqlcfojh7","42","[""White""]","No","Female","917288.099999994","7209","","","{""price_1"":""10"",""price_2"":""30"",""price_3"":""20""}","rating","bww","catch","null","microwave ovens","90","75","30","10","10","35","2","null","null","null","null","null","null","Warranty","Cooking power","",""
"","","","","","rating_trial_setup","html-keyboard-response","39","258205","0.0-3.0-0.18","164","1","2025-04-14 14:22:45","bb671e3ae32f654b8954ea4c4635f915","","Mozilla/5.0 (Windows NT 11.0; Win64; x64) AppleWebKit/537.36 (KHTML, like Gecko) Chrome/130.0.0.0 Safari/537.36","WebKit","Chrome","130.0.0.0","Windows","11.0","https://hz8g1ckzuq.cognition.run/","en,en-US;q=0.9","bnslu6uqlcfojh7","42","[""White""]","No","Female","917288.099999994","null","","<p></p>","null","rating","bww","catch","null","televisions","70","50","30","15","20","25","1","","","","","","","","","",""
"","","","","","rating_trial","survey-html-form","40","266386","0.0-3.0-1.18","164","1","2025-04-14 14:22:45","bb671e3ae32f654b8954ea4c4635f915","","Mozilla/5.0 (Windows NT 11.0; Win64; x64) AppleWebKit/537.36 (KHTML, like Gecko) Chrome/130.0.0.0 Safari/537.36","WebKit","Chrome","130.0.0.0","Windows","11.0","https://hz8g1ckzuq.cognition.run/","en,en-US;q=0.9","bnslu6uqlcfojh7","42","[""White""]","No","Female","917288.099999994","8167","","","{""price_1"":""10"",""price_2"":""20"",""price_3"":""30""}","rating","bww","catch","null","televisions","70","50","30","15","20","25","1","null","null","null","null","null","null","Screen size","Average lifespan","",""
"","","","","","rating_trial_setup","html-keyboard-response","41","266698","0.0-3.0-0.19","164","1","2025-04-14 14:22:45","bb671e3ae32f654b8954ea4c4635f915","","Mozilla/5.0 (Windows NT 11.0; Win64; x64) AppleWebKit/537.36 (KHTML, like Gecko) Chrome/130.0.0.0 Safari/537.36","WebKit","Chrome","130.0.0.0","Windows","11.0","https://hz8g1ckzuq.cognition.run/","en,en-US;q=0.9","bnslu6uqlcfojh7","42","[""White""]","No","Female","917288.099999994","null","","<p></p>","null","rating","tdc","repulsion_2","2","washing machines","null","null","null","null","null","null","1","","","","","","","","","",""
"","","","","","rating_trial","survey-html-form","42","273512","0.0-3.0-1.19","164","1","2025-04-14 14:22:45","bb671e3ae32f654b8954ea4c4635f915","","Mozilla/5.0 (Windows NT 11.0; Win64; x64) AppleWebKit/537.36 (KHTML, like Gecko) Chrome/130.0.0.0 Safari/537.36","WebKit","Chrome","130.0.0.0","Windows","11.0","https://hz8g1ckzuq.cognition.run/","en,en-US;q=0.9","bnslu6uqlcfojh7","42","[""White""]","No","Female","917288.099999994","6800","","","{""price_1"":""10"",""price_2"":""20"",""price_3"":""20""}","rating","tdc","repulsion_2","2","washing machines","null","null","null","null","null","null","1","30","40","20","100","90","100","Average lifespan","Energy savings","",""
"","","","","","rating_trial_setup","html-keyboard-response","43","273824","0.0-3.0-0.20","164","1","2025-04-14 14:22:45","bb671e3ae32f654b8954ea4c4635f915","","Mozilla/5.0 (Windows NT 11.0; Win64; x64) AppleWebKit/537.36 (KHTML, like Gecko) Chrome/130.0.0.0 Safari/537.36","WebKit","Chrome","130.0.0.0","Windows","11.0","https://hz8g1ckzuq.cognition.run/","en,en-US;q=0.9","bnslu6uqlcfojh7","42","[""White""]","No","Female","917288.099999994","null","","<p></p>","null","rating","cdt","repulsion_1","1","televisions","null","null","null","null","null","null","2","","","","","","","","","",""
"","","","","","rating_trial","survey-html-form","44","280637","0.0-3.0-1.20","164","1","2025-04-14 14:22:45","bb671e3ae32f654b8954ea4c4635f915","","Mozilla/5.0 (Windows NT 11.0; Win64; x64) AppleWebKit/537.36 (KHTML, like Gecko) Chrome/130.0.0.0 Safari/537.36","WebKit","Chrome","130.0.0.0","Windows","11.0","https://hz8g1ckzuq.cognition.run/","en,en-US;q=0.9","bnslu6uqlcfojh7","42","[""White""]","No","Female","917288.099999994","6800","","","{""price_1"":""10"",""price_2"":""20"",""price_3"":""30""}","rating","cdt","repulsion_1","1","televisions","null","null","null","null","null","null","2","100","90","100","30","40","25","Screen size","Average lifespan","",""
"","","","","","rating_trial_setup","html-keyboard-response","45","280946","0.0-3.0-0.21","164","1","2025-04-14 14:22:45","bb671e3ae32f654b8954ea4c4635f915","","Mozilla/5.0 (Windows NT 11.0; Win64; x64) AppleWebKit/537.36 (KHTML, like Gecko) Chrome/130.0.0.0 Safari/537.36","WebKit","Chrome","130.0.0.0","Windows","11.0","https://hz8g1ckzuq.cognition.run/","en,en-US;q=0.9","bnslu6uqlcfojh7","42","[""White""]","No","Female","917288.099999994","null","","<p></p>","null","rating","dtc","repulsion_1","2","microwave ovens","null","null","null","null","null","null","2","","","","","","","","","",""
"","","","","","rating_trial","survey-html-form","46","287594","0.0-3.0-1.21","164","1","2025-04-14 14:22:45","bb671e3ae32f654b8954ea4c4635f915","","Mozilla/5.0 (Windows NT 11.0; Win64; x64) AppleWebKit/537.36 (KHTML, like Gecko) Chrome/130.0.0.0 Safari/537.36","WebKit","Chrome","130.0.0.0","Windows","11.0","https://hz8g1ckzuq.cognition.run/","en,en-US;q=0.9","bnslu6uqlcfojh7","42","[""White""]","No","Female","917288.099999994","6628","","","{""price_1"":""30"",""price_2"":""20"",""price_3"":""20""}","rating","dtc","repulsion_1","2","microwave ovens","null","null","null","null","null","null","2","30","40","25","100","90","100","Warranty","Cooking power","",""
"","","","","","rating_trial_setup","html-keyboard-response","47","287913","0.0-3.0-0.22","164","1","2025-04-14 14:22:45","bb671e3ae32f654b8954ea4c4635f915","","Mozilla/5.0 (Windows NT 11.0; Win64; x64) AppleWebKit/537.36 (KHTML, like Gecko) Chrome/130.0.0.0 Safari/537.36","WebKit","Chrome","130.0.0.0","Windows","11.0","https://hz8g1ckzuq.cognition.run/","en,en-US;q=0.9","bnslu6uqlcfojh7","42","[""White""]","No","Female","917288.099999994","null","","<p></p>","null","rating","dct","attraction_2","2","washing machines","null","null","null","null","null","null","2","","","","","","","","","",""
"","","","","","rating_trial","survey-html-form","48","295244","0.0-3.0-1.22","164","1","2025-04-14 14:22:45","bb671e3ae32f654b8954ea4c4635f915","","Mozilla/5.0 (Windows NT 11.0; Win64; x64) AppleWebKit/537.36 (KHTML, like Gecko) Chrome/130.0.0.0 Safari/537.36","WebKit","Chrome","130.0.0.0","Windows","11.0","https://hz8g1ckzuq.cognition.run/","en,en-US;q=0.9","bnslu6uqlcfojh7","42","[""White""]","No","Female","917288.099999994","7321","","","{""price_1"":""10"",""price_2"":""20"",""price_3"":""30""}","rating","dct","attraction_2","2","washing machines","null","null","null","null","null","null","2","50","60","40","60","50","60","Average lifespan","Energy savings","",""
"","","","","","rating_trial_setup","html-keyboard-response","49","295550","0.0-3.0-0.23","164","1","2025-04-14 14:22:45","bb671e3ae32f654b8954ea4c4635f915","","Mozilla/5.0 (Windows NT 11.0; Win64; x64) AppleWebKit/537.36 (KHTML, like Gecko) Chrome/130.0.0.0 Safari/537.36","WebKit","Chrome","130.0.0.0","Windows","11.0","https://hz8g1ckzuq.cognition.run/","en,en-US;q=0.9","bnslu6uqlcfojh7","42","[""White""]","No","Female","917288.099999994","null","","<p></p>","null","rating","tcd","attraction_1","2","washing machines","null","null","null","null","null","null","1","","","","","","","","","",""
"","","","","","rating_trial","survey-html-form","50","302721","0.0-3.0-1.23","164","1","2025-04-14 14:22:45","bb671e3ae32f654b8954ea4c4635f915","","Mozilla/5.0 (Windows NT 11.0; Win64; x64) AppleWebKit/537.36 (KHTML, like Gecko) Chrome/130.0.0.0 Safari/537.36","WebKit","Chrome","130.0.0.0","Windows","11.0","https://hz8g1ckzuq.cognition.run/","en,en-US;q=0.9","bnslu6uqlcfojh7","42","[""White""]","No","Female","917288.099999994","7161","","","{""price_1"":""20"",""price_2"":""40"",""price_3"":""20""}","rating","tcd","attraction_1","2","washing machines","null","null","null","null","null","null","1","50","60","45","60","50","60","Average lifespan","Energy savings","",""
"","","","","","rating_trial_setup","html-keyboard-response","51","303034","0.0-3.0-0.24","164","1","2025-04-14 14:22:45","bb671e3ae32f654b8954ea4c4635f915","","Mozilla/5.0 (Windows NT 11.0; Win64; x64) AppleWebKit/537.36 (KHTML, like Gecko) Chrome/130.0.0.0 Safari/537.36","WebKit","Chrome","130.0.0.0","Windows","11.0","https://hz8g1ckzuq.cognition.run/","en,en-US;q=0.9","bnslu6uqlcfojh7","42","[""White""]","No","Female","917288.099999994","null","","<p></p>","null","rating","dct","attraction_1","2","televisions","null","null","null","null","null","null","2","","","","","","","","","",""
"","","","","","rating_trial","survey-html-form","52","311670","0.0-3.0-1.24","164","1","2025-04-14 14:22:45","bb671e3ae32f654b8954ea4c4635f915","","Mozilla/5.0 (Windows NT 11.0; Win64; x64) AppleWebKit/537.36 (KHTML, like Gecko) Chrome/130.0.0.0 Safari/537.36","WebKit","Chrome","130.0.0.0","Windows","11.0","https://hz8g1ckzuq.cognition.run/","en,en-US;q=0.9","bnslu6uqlcfojh7","42","[""White""]","No","Female","917288.099999994","8621","","","{""price_1"":""10"",""price_2"":""20"",""price_3"":""30""}","rating","dct","attraction_1","2","televisions","null","null","null","null","null","null","2","50","60","45","60","50","60","Screen size","Average lifespan","",""
"","","","","","rating_trial_setup","html-keyboard-response","53","311982","0.0-3.0-0.25","164","1","2025-04-14 14:22:45","bb671e3ae32f654b8954ea4c4635f915","","Mozilla/5.0 (Windows NT 11.0; Win64; x64) AppleWebKit/537.36 (KHTML, like Gecko) Chrome/130.0.0.0 Safari/537.36","WebKit","Chrome","130.0.0.0","Windows","11.0","https://hz8g1ckzuq.cognition.run/","en,en-US;q=0.9","bnslu6uqlcfojh7","42","[""White""]","No","Female","917288.099999994","null","","<p></p>","null","rating","wwb","catch","null","microwave ovens","90","60","10","25","45","20","1","","","","","","","","","",""
"","","","","","rating_trial","survey-html-form","54","319386","0.0-3.0-1.25","164","1","2025-04-14 14:22:45","bb671e3ae32f654b8954ea4c4635f915","","Mozilla/5.0 (Windows NT 11.0; Win64; x64) AppleWebKit/537.36 (KHTML, like Gecko) Chrome/130.0.0.0 Safari/537.36","WebKit","Chrome","130.0.0.0","Windows","11.0","https://hz8g1ckzuq.cognition.run/","en,en-US;q=0.9","bnslu6uqlcfojh7","42","[""White""]","No","Female","917288.099999994","7387","","","{""price_1"":""30"",""price_2"":""10"",""price_3"":""20""}","rating","wwb","catch","null","microwave ovens","90","60","10","25","45","20","1","null","null","null","null","null","null","Warranty","Cooking power","",""
"","","","","","rating_trial_setup","html-keyboard-response","55","319706","0.0-3.0-0.26","164","1","2025-04-14 14:22:45","bb671e3ae32f654b8954ea4c4635f915","","Mozilla/5.0 (Windows NT 11.0; Win64; x64) AppleWebKit/537.36 (KHTML, like Gecko) Chrome/130.0.0.0 Safari/537.36","WebKit","Chrome","130.0.0.0","Windows","11.0","https://hz8g1ckzuq.cognition.run/","en,en-US;q=0.9","bnslu6uqlcfojh7","42","[""White""]","No","Female","917288.099999994","null","","<p></p>","null","rating","dct","attraction_1","1","washing machines","null","null","null","null","null","null","1","","","","","","","","","",""
"","","","","","rating_trial","survey-html-form","56","327455","0.0-3.0-1.26","164","1","2025-04-14 14:22:45","bb671e3ae32f654b8954ea4c4635f915","","Mozilla/5.0 (Windows NT 11.0; Win64; x64) AppleWebKit/537.36 (KHTML, like Gecko) Chrome/130.0.0.0 Safari/537.36","WebKit","Chrome","130.0.0.0","Windows","11.0","https://hz8g1ckzuq.cognition.run/","en,en-US;q=0.9","bnslu6uqlcfojh7","42","[""White""]","No","Female","917288.099999994","7735","","","{""price_1"":""10"",""price_2"":""20"",""price_3"":""40""}","rating","dct","attraction_1","1","washing machines","null","null","null","null","null","null","1","60","50","60","50","60","45","Average lifespan","Energy savings","",""
"","","","","","rating_trial_setup","html-keyboard-response","57","327769","0.0-3.0-0.27","164","1","2025-04-14 14:22:45","bb671e3ae32f654b8954ea4c4635f915","","Mozilla/5.0 (Windows NT 11.0; Win64; x64) AppleWebKit/537.36 (KHTML, like Gecko) Chrome/130.0.0.0 Safari/537.36","WebKit","Chrome","130.0.0.0","Windows","11.0","https://hz8g1ckzuq.cognition.run/","en,en-US;q=0.9","bnslu6uqlcfojh7","42","[""White""]","No","Female","917288.099999994","null","","<p></p>","null","rating","dct","attraction_2","2","laptops","null","null","null","null","null","null","2","","","","","","","","","",""
"","","","","","rating_trial","survey-html-form","58","334974","0.0-3.0-1.27","164","1","2025-04-14 14:22:45","bb671e3ae32f654b8954ea4c4635f915","","Mozilla/5.0 (Windows NT 11.0; Win64; x64) AppleWebKit/537.36 (KHTML, like Gecko) Chrome/130.0.0.0 Safari/537.36","WebKit","Chrome","130.0.0.0","Windows","11.0","https://hz8g1ckzuq.cognition.run/","en,en-US;q=0.9","bnslu6uqlcfojh7","42","[""White""]","No","Female","917288.099999994","7195","","","{""price_1"":""10"",""price_2"":""20"",""price_3"":""30""}","rating","dct","attraction_2","2","laptops","null","null","null","null","null","null","2","50","60","40","60","50","60","Processing speed","Memory (RAM)","",""
"","","","","","rating_trial_setup","html-keyboard-response","59","335286","0.0-3.0-0.28","164","1","2025-04-14 14:22:45","bb671e3ae32f654b8954ea4c4635f915","","Mozilla/5.0 (Windows NT 11.0; Win64; x64) AppleWebKit/537.36 (KHTML, like Gecko) Chrome/130.0.0.0 Safari/537.36","WebKit","Chrome","130.0.0.0","Windows","11.0","https://hz8g1ckzuq.cognition.run/","en,en-US;q=0.9","bnslu6uqlcfojh7","42","[""White""]","No","Female","917288.099999994","null","","<p></p>","null","rating","tcd","repulsion_2","2","laptops","null","null","null","null","null","null","1","","","","","","","","","",""
"","","","","","rating_trial","survey-html-form","60","342209","0.0-3.0-1.28","164","1","2025-04-14 14:22:45","bb671e3ae32f654b8954ea4c4635f915","","Mozilla/5.0 (Windows NT 11.0; Win64; x64) AppleWebKit/537.36 (KHTML, like Gecko) Chrome/130.0.0.0 Safari/537.36","WebKit","Chrome","130.0.0.0","Windows","11.0","https://hz8g1ckzuq.cognition.run/","en,en-US;q=0.9","bnslu6uqlcfojh7","42","[""White""]","No","Female","917288.099999994","6909","","","{""price_1"":""10"",""price_2"":""20"",""price_3"":""30""}","rating","tcd","repulsion_2","2","laptops","null","null","null","null","null","null","1","30","40","20","100","90","100","Processing speed","Memory (RAM)","",""
"","","","","","rating_trial_setup","html-keyboard-response","61","342518","0.0-3.0-0.29","164","1","2025-04-14 14:22:45","bb671e3ae32f654b8954ea4c4635f915","","Mozilla/5.0 (Windows NT 11.0; Win64; x64) AppleWebKit/537.36 (KHTML, like Gecko) Chrome/130.0.0.0 Safari/537.36","WebKit","Chrome","130.0.0.0","Windows","11.0","https://hz8g1ckzuq.cognition.run/","en,en-US;q=0.9","bnslu6uqlcfojh7","42","[""White""]","No","Female","917288.099999994","null","","<p></p>","null","rating","bww","catch","null","washing machines","60","50","20","10","30","30","1","","","","","","","","","",""
"","","","","","rating_trial","survey-html-form","62","349939","0.0-3.0-1.29","164","1","2025-04-14 14:22:45","bb671e3ae32f654b8954ea4c4635f915","","Mozilla/5.0 (Windows NT 11.0; Win64; x64) AppleWebKit/537.36 (KHTML, like Gecko) Chrome/130.0.0.0 Safari/537.36","WebKit","Chrome","130.0.0.0","Windows","11.0","https://hz8g1ckzuq.cognition.run/","en,en-US;q=0.9","bnslu6uqlcfojh7","42","[""White""]","No","Female","917288.099999994","7407","","","{""price_1"":""40"",""price_2"":""10"",""price_3"":""10""}","rating","bww","catch","null","washing machines","60","50","20","10","30","30","1","null","null","null","null","null","null","Average lifespan","Energy savings","",""
"","","","","","rating_trial_setup","html-keyboard-response","63","350255","0.0-3.0-0.30","164","1","2025-04-14 14:22:45","bb671e3ae32f654b8954ea4c4635f915","","Mozilla/5.0 (Windows NT 11.0; Win64; x64) AppleWebKit/537.36 (KHTML, like Gecko) Chrome/130.0.0.0 Safari/537.36","WebKit","Chrome","130.0.0.0","Windows","11.0","https://hz8g1ckzuq.cognition.run/","en,en-US;q=0.9","bnslu6uqlcfojh7","42","[""White""]","No","Female","917288.099999994","null","","<p></p>","null","rating","tdc","repulsion_2","1","washing machines","null","null","null","null","null","null","2","","","","","","","","","",""
"","","","","","rating_trial","survey-html-form","64","357644","0.0-3.0-1.30","164","1","2025-04-14 14:22:45","bb671e3ae32f654b8954ea4c4635f915","","Mozilla/5.0 (Windows NT 11.0; Win64; x64) AppleWebKit/537.36 (KHTML, like Gecko) Chrome/130.0.0.0 Safari/537.36","WebKit","Chrome","130.0.0.0","Windows","11.0","https://hz8g1ckzuq.cognition.run/","en,en-US;q=0.9","bnslu6uqlcfojh7","42","[""White""]","No","Female","917288.099999994","7371","","","{""price_1"":""10"",""price_2"":""20"",""price_3"":""30""}","rating","tdc","repulsion_2","1","washing machines","null","null","null","null","null","null","2","100","90","100","30","40","20","Average lifespan","Energy savings","",""
"","","","","","rating_trial_setup","html-keyboard-response","65","357960","0.0-3.0-0.31","164","1","2025-04-14 14:22:45","bb671e3ae32f654b8954ea4c4635f915","","Mozilla/5.0 (Windows NT 11.0; Win64; x64) AppleWebKit/537.36 (KHTML, like Gecko) Chrome/130.0.0.0 Safari/537.36","WebKit","Chrome","130.0.0.0","Windows","11.0","https://hz8g1ckzuq.cognition.run/","en,en-US;q=0.9","bnslu6uqlcfojh7","42","[""White""]","No","Female","917288.099999994","null","","<p></p>","null","rating","cdt","attraction_2","1","televisions","null","null","null","null","null","null","2","","","","","","","","","",""
"","","","","","rating_trial","survey-html-form","66","364574","0.0-3.0-1.31","164","1","2025-04-14 14:22:45","bb671e3ae32f654b8954ea4c4635f915","","Mozilla/5.0 (Windows NT 11.0; Win64; x64) AppleWebKit/537.36 (KHTML, like Gecko) Chrome/130.0.0.0 Safari/537.36","WebKit","Chrome","130.0.0.0","Windows","11.0","https://hz8g1ckzuq.cognition.run/","en,en-US;q=0.9","bnslu6uqlcfojh7","42","[""White""]","No","Female","917288.099999994","6601","","","{""price_1"":""10"",""price_2"":""30"",""price_3"":""20""}","rating","cdt","attraction_2","1","televisions","null","null","null","null","null","null","2","60","50","60","50","60","40","Screen size","Average lifespan","",""
"","","","","","rating_trial_setup","html-keyboard-response","67","364898","0.0-3.0-0.32","164","1","2025-04-14 14:22:45","bb671e3ae32f654b8954ea4c4635f915","","Mozilla/5.0 (Windows NT 11.0; Win64; x64) AppleWebKit/537.36 (KHTML, like Gecko) Chrome/130.0.0.0 Safari/537.36","WebKit","Chrome","130.0.0.0","Windows","11.0","https://hz8g1ckzuq.cognition.run/","en,en-US;q=0.9","bnslu6uqlcfojh7","42","[""White""]","No","Female","917288.099999994","null","","<p></p>","null","rating","tdc","attraction_1","2","laptops","null","null","null","null","null","null","1","","","","","","","","","",""
"","","","","","rating_trial","survey-html-form","68","385272","0.0-3.0-1.32","164","1","2025-04-14 14:22:45","bb671e3ae32f654b8954ea4c4635f915","","Mozilla/5.0 (Windows NT 11.0; Win64; x64) AppleWebKit/537.36 (KHTML, like Gecko) Chrome/130.0.0.0 Safari/537.36","WebKit","Chrome","130.0.0.0","Windows","11.0","https://hz8g1ckzuq.cognition.run/","en,en-US;q=0.9","bnslu6uqlcfojh7","42","[""White""]","No","Female","917288.099999994","20358","","","{""price_1"":""10"",""price_2"":""40"",""price_3"":""10""}","rating","tdc","attraction_1","2","laptops","null","null","null","null","null","null","1","50","60","45","60","50","60","Processing speed","Memory (RAM)","",""
"","","","","","rating_trial_setup","html-keyboard-response","69","385590","0.0-3.0-0.33","164","1","2025-04-14 14:22:45","bb671e3ae32f654b8954ea4c4635f915","","Mozilla/5.0 (Windows NT 11.0; Win64; x64) AppleWebKit/537.36 (KHTML, like Gecko) Chrome/130.0.0.0 Safari/537.36","WebKit","Chrome","130.0.0.0","Windows","11.0","https://hz8g1ckzuq.cognition.run/","en,en-US;q=0.9","bnslu6uqlcfojh7","42","[""White""]","No","Female","917288.099999994","null","","<p></p>","null","rating","tcd","attraction_1","1","laptops","null","null","null","null","null","null","1","","","","","","","","","",""
"","","","","","rating_trial","survey-html-form","70","392320","0.0-3.0-1.33","164","1","2025-04-14 14:22:45","bb671e3ae32f654b8954ea4c4635f915","","Mozilla/5.0 (Windows NT 11.0; Win64; x64) AppleWebKit/537.36 (KHTML, like Gecko) Chrome/130.0.0.0 Safari/537.36","WebKit","Chrome","130.0.0.0","Windows","11.0","https://hz8g1ckzuq.cognition.run/","en,en-US;q=0.9","bnslu6uqlcfojh7","42","[""White""]","No","Female","917288.099999994","6714","","","{""price_1"":""40"",""price_2"":""10"",""price_3"":""10""}","rating","tcd","attraction_1","1","laptops","null","null","null","null","null","null","1","60","50","60","50","60","45","Processing speed","Memory (RAM)","",""
"","","","","","rating_trial_setup","html-keyboard-response","71","392640","0.0-3.0-0.34","164","1","2025-04-14 14:22:45","bb671e3ae32f654b8954ea4c4635f915","","Mozilla/5.0 (Windows NT 11.0; Win64; x64) AppleWebKit/537.36 (KHTML, like Gecko) Chrome/130.0.0.0 Safari/537.36","WebKit","Chrome","130.0.0.0","Windows","11.0","https://hz8g1ckzuq.cognition.run/","en,en-US;q=0.9","bnslu6uqlcfojh7","42","[""White""]","No","Female","917288.099999994","null","","<p></p>","null","rating","wbw","catch","null","laptops","60","60","10","40","25","5","1","","","","","","","","","",""
"","","","","","rating_trial","survey-html-form","72","399397","0.0-3.0-1.34","164","1","2025-04-14 14:22:45","bb671e3ae32f654b8954ea4c4635f915","","Mozilla/5.0 (Windows NT 11.0; Win64; x64) AppleWebKit/537.36 (KHTML, like Gecko) Chrome/130.0.0.0 Safari/537.36","WebKit","Chrome","130.0.0.0","Windows","11.0","https://hz8g1ckzuq.cognition.run/","en,en-US;q=0.9","bnslu6uqlcfojh7","42","[""White""]","No","Female","917288.099999994","6742","","","{""price_1"":""10"",""price_2"":""30"",""price_3"":""30""}","rating","wbw","catch","null","laptops","60","60","10","40","25","5","1","null","null","null","null","null","null","Processing speed","Memory (RAM)","",""
"","","","","","rating_trial_setup","html-keyboard-response","73","399713","0.0-3.0-0.35","164","1","2025-04-14 14:22:45","bb671e3ae32f654b8954ea4c4635f915","","Mozilla/5.0 (Windows NT 11.0; Win64; x64) AppleWebKit/537.36 (KHTML, like Gecko) Chrome/130.0.0.0 Safari/537.36","WebKit","Chrome","130.0.0.0","Windows","11.0","https://hz8g1ckzuq.cognition.run/","en,en-US;q=0.9","bnslu6uqlcfojh7","42","[""White""]","No","Female","917288.099999994","null","","<p></p>","null","rating","tcd","repulsion_2","1","microwave ovens","null","null","null","null","null","null","1","","","","","","","","","",""
"","","","","","rating_trial","survey-html-form","74","406253","0.0-3.0-1.35","164","1","2025-04-14 14:22:45","bb671e3ae32f654b8954ea4c4635f915","","Mozilla/5.0 (Windows NT 11.0; Win64; x64) AppleWebKit/537.36 (KHTML, like Gecko) Chrome/130.0.0.0 Safari/537.36","WebKit","Chrome","130.0.0.0","Windows","11.0","https://hz8g1ckzuq.cognition.run/","en,en-US;q=0.9","bnslu6uqlcfojh7","42","[""White""]","No","Female","917288.099999994","6524","","","{""price_1"":""30"",""price_2"":""30"",""price_3"":""30""}","rating","tcd","repulsion_2","1","microwave ovens","null","null","null","null","null","null","1","100","90","100","30","40","20","Warranty","Cooking power","",""
"","","","","","rating_trial_setup","html-keyboard-response","75","406562","0.0-3.0-0.36","164","1","2025-04-14 14:22:45","bb671e3ae32f654b8954ea4c4635f915","","Mozilla/5.0 (Windows NT 11.0; Win64; x64) AppleWebKit/537.36 (KHTML, like Gecko) Chrome/130.0.0.0 Safari/537.36","WebKit","Chrome","130.0.0.0","Windows","11.0","https://hz8g1ckzuq.cognition.run/","en,en-US;q=0.9","bnslu6uqlcfojh7","42","[""White""]","No","Female","917288.099999994","null","","<p></p>","null","rating","dct","attraction_2","2","televisions","null","null","null","null","null","null","2","","","","","","","","","",""
"","","","","","rating_trial","survey-html-form","76","413211","0.0-3.0-1.36","164","1","2025-04-14 14:22:45","bb671e3ae32f654b8954ea4c4635f915","","Mozilla/5.0 (Windows NT 11.0; Win64; x64) AppleWebKit/537.36 (KHTML, like Gecko) Chrome/130.0.0.0 Safari/537.36","WebKit","Chrome","130.0.0.0","Windows","11.0","https://hz8g1ckzuq.cognition.run/","en,en-US;q=0.9","bnslu6uqlcfojh7","42","[""White""]","No","Female","917288.099999994","6630","","","{""price_1"":""40"",""price_2"":""20"",""price_3"":""10""}","rating","dct","attraction_2","2","televisions","null","null","null","null","null","null","2","50","60","40","60","50","60","Screen size","Average lifespan","",""
"","","","","","rating_trial_setup","html-keyboard-response","77","413523","0.0-3.0-0.37","164","1","2025-04-14 14:22:45","bb671e3ae32f654b8954ea4c4635f915","","Mozilla/5.0 (Windows NT 11.0; Win64; x64) AppleWebKit/537.36 (KHTML, like Gecko) Chrome/130.0.0.0 Safari/537.36","WebKit","Chrome","130.0.0.0","Windows","11.0","https://hz8g1ckzuq.cognition.run/","en,en-US;q=0.9","bnslu6uqlcfojh7","42","[""White""]","No","Female","917288.099999994","null","","<p></p>","null","rating","tcd","attraction_2","1","laptops","null","null","null","null","null","null","1","","","","","","","","","",""
"","","","","","rating_trial","survey-html-form","78","420626","0.0-3.0-1.37","164","1","2025-04-14 14:22:45","bb671e3ae32f654b8954ea4c4635f915","","Mozilla/5.0 (Windows NT 11.0; Win64; x64) AppleWebKit/537.36 (KHTML, like Gecko) Chrome/130.0.0.0 Safari/537.36","WebKit","Chrome","130.0.0.0","Windows","11.0","https://hz8g1ckzuq.cognition.run/","en,en-US;q=0.9","bnslu6uqlcfojh7","42","[""White""]","No","Female","917288.099999994","7084","","","{""price_1"":""10"",""price_2"":""30"",""price_3"":""30""}","rating","tcd","attraction_2","1","laptops","null","null","null","null","null","null","1","60","50","60","50","60","40","Processing speed","Memory (RAM)","",""
"","","","","","rating_trial_setup","html-keyboard-response","79","420936","0.0-3.0-0.38","164","1","2025-04-14 14:22:45","bb671e3ae32f654b8954ea4c4635f915","","Mozilla/5.0 (Windows NT 11.0; Win64; x64) AppleWebKit/537.36 (KHTML, like Gecko) Chrome/130.0.0.0 Safari/537.36","WebKit","Chrome","130.0.0.0","Windows","11.0","https://hz8g1ckzuq.cognition.run/","en,en-US;q=0.9","bnslu6uqlcfojh7","42","[""White""]","No","Female","917288.099999994","null","","<p></p>","null","rating","tdc","repulsion_2","2","televisions","null","null","null","null","null","null","2","","","","","","","","","",""
"","","","","","rating_trial","survey-html-form","80","428155","0.0-3.0-1.38","164","1","2025-04-14 14:22:45","bb671e3ae32f654b8954ea4c4635f915","","Mozilla/5.0 (Windows NT 11.0; Win64; x64) AppleWebKit/537.36 (KHTML, like Gecko) Chrome/130.0.0.0 Safari/537.36","WebKit","Chrome","130.0.0.0","Windows","11.0","https://hz8g1ckzuq.cognition.run/","en,en-US;q=0.9","bnslu6uqlcfojh7","42","[""White""]","No","Female","917288.099999994","7210","","","{""price_1"":""10"",""price_2"":""40"",""price_3"":""30""}","rating","tdc","repulsion_2","2","televisions","null","null","null","null","null","null","2","30","40","20","100","90","100","Screen size","Average lifespan","",""
"","","","","","rating_trial_setup","html-keyboard-response","81","428461","0.0-3.0-0.39","164","1","2025-04-14 14:22:45","bb671e3ae32f654b8954ea4c4635f915","","Mozilla/5.0 (Windows NT 11.0; Win64; x64) AppleWebKit/537.36 (KHTML, like Gecko) Chrome/130.0.0.0 Safari/537.36","WebKit","Chrome","130.0.0.0","Windows","11.0","https://hz8g1ckzuq.cognition.run/","en,en-US;q=0.9","bnslu6uqlcfojh7","42","[""White""]","No","Female","917288.099999994","null","","<p></p>","null","rating","dct","repulsion_2","2","microwave ovens","null","null","null","null","null","null","2","","","","","","","","","",""
"","","","","","rating_trial","survey-html-form","82","434779","0.0-3.0-1.39","164","1","2025-04-14 14:22:45","bb671e3ae32f654b8954ea4c4635f915","","Mozilla/5.0 (Windows NT 11.0; Win64; x64) AppleWebKit/537.36 (KHTML, like Gecko) Chrome/130.0.0.0 Safari/537.36","WebKit","Chrome","130.0.0.0","Windows","11.0","https://hz8g1ckzuq.cognition.run/","en,en-US;q=0.9","bnslu6uqlcfojh7","42","[""White""]","No","Female","917288.099999994","6300","","","{""price_1"":""10"",""price_2"":""20"",""price_3"":""10""}","rating","dct","repulsion_2","2","microwave ovens","null","null","null","null","null","null","2","30","40","20","100","90","100","Warranty","Cooking power","",""
"","","","","","","instructions","83","453078","0.0-4.0","164","1","2025-04-14 14:22:45","bb671e3ae32f654b8954ea4c4635f915","","Mozilla/5.0 (Windows NT 11.0; Win64; x64) AppleWebKit/537.36 (KHTML, like Gecko) Chrome/130.0.0.0 Safari/537.36","WebKit","Chrome","130.0.0.0","Windows","11.0","https://hz8g1ckzuq.cognition.run/","en,en-US;q=0.9","bnslu6uqlcfojh7","42","[""White""]","No","Female","917288.099999994","18290","[{""page_index"":0,""viewing_time"":1375},{""page_index"":1,""viewing_time"":1603},{""page_index"":2,""viewing_time"":1432},{""page_index"":3,""viewing_time"":793},{""page_index"":4,""viewing_time"":2113},{""page_index"":5,""viewing_time"":762},{""page_index"":6,""viewing_time"":8869},{""page_index"":7,""viewing_time"":1343}]","","","","","","","","","","","","","","","","","","","","","","","",""
"","","","","","choice_trial_setup","html-keyboard-response","84","453383","0.0-5.0-0.0","164","1","2025-04-14 14:22:45","bb671e3ae32f654b8954ea4c4635f915","","Mozilla/5.0 (Windows NT 11.0; Win64; x64) AppleWebKit/537.36 (KHTML, like Gecko) Chrome/130.0.0.0 Safari/537.36","WebKit","Chrome","130.0.0.0","Windows","11.0","https://hz8g1ckzuq.cognition.run/","en,en-US;q=0.9","bnslu6uqlcfojh7","42","[""White""]","No","Female","917288.099999994","null","","<p></p>","null","choice","dct","repulsion_1","2","washing machines","null","null","null","null","null","null","2","","","","","","","","","",""
"","","","","","choice_trial","survey-html-form","85","457871","0.0-5.0-1.0","164","1","2025-04-14 14:22:45","bb671e3ae32f654b8954ea4c4635f915","","Mozilla/5.0 (Windows NT 11.0; Win64; x64) AppleWebKit/537.36 (KHTML, like Gecko) Chrome/130.0.0.0 Safari/537.36","WebKit","Chrome","130.0.0.0","Windows","11.0","https://hz8g1ckzuq.cognition.run/","en,en-US;q=0.9","bnslu6uqlcfojh7","42","[""White""]","No","Female","917288.099999994","4481","","","{""product_choice"":""A""}","choice","dct","repulsion_1","2","washing machines","null","null","null","null","null","null","2","30","40","25","100","90","100","Average lifespan","Energy savings","",""
"","","","","","choice_trial_setup","html-keyboard-response","86","458181","0.0-5.0-0.1","164","1","2025-04-14 14:22:45","bb671e3ae32f654b8954ea4c4635f915","","Mozilla/5.0 (Windows NT 11.0; Win64; x64) AppleWebKit/537.36 (KHTML, like Gecko) Chrome/130.0.0.0 Safari/537.36","WebKit","Chrome","130.0.0.0","Windows","11.0","https://hz8g1ckzuq.cognition.run/","en,en-US;q=0.9","bnslu6uqlcfojh7","42","[""White""]","No","Female","917288.099999994","null","","<p></p>","null","choice","wwb","catch","null","televisions","95","90","35","5","5","5","2","","","","","","","","","",""
"","","","","","choice_trial","survey-html-form","87","460121","0.0-5.0-1.1","164","1","2025-04-14 14:22:45","bb671e3ae32f654b8954ea4c4635f915","","Mozilla/5.0 (Windows NT 11.0; Win64; x64) AppleWebKit/537.36 (KHTML, like Gecko) Chrome/130.0.0.0 Safari/537.36","WebKit","Chrome","130.0.0.0","Windows","11.0","https://hz8g1ckzuq.cognition.run/","en,en-US;q=0.9","bnslu6uqlcfojh7","42","[""White""]","No","Female","917288.099999994","1927","","","{""product_choice"":""B""}","choice","wwb","catch","null","televisions","95","90","35","5","5","5","2","null","null","null","null","null","null","Screen size","Average lifespan","",""
"","","","","","choice_trial_setup","html-keyboard-response","88","460440","0.0-5.0-0.2","164","1","2025-04-14 14:22:45","bb671e3ae32f654b8954ea4c4635f915","","Mozilla/5.0 (Windows NT 11.0; Win64; x64) AppleWebKit/537.36 (KHTML, like Gecko) Chrome/130.0.0.0 Safari/537.36","WebKit","Chrome","130.0.0.0","Windows","11.0","https://hz8g1ckzuq.cognition.run/","en,en-US;q=0.9","bnslu6uqlcfojh7","42","[""White""]","No","Female","917288.099999994","null","","<p></p>","null","choice","tdc","repulsion_2","2","laptops","null","null","null","null","null","null","1","","","","","","","","","",""
"","","","","","choice_trial","survey-html-form","89","461793","0.0-5.0-1.2","164","1","2025-04-14 14:22:45","bb671e3ae32f654b8954ea4c4635f915","","Mozilla/5.0 (Windows NT 11.0; Win64; x64) AppleWebKit/537.36 (KHTML, like Gecko) Chrome/130.0.0.0 Safari/537.36","WebKit","Chrome","130.0.0.0","Windows","11.0","https://hz8g1ckzuq.cognition.run/","en,en-US;q=0.9","bnslu6uqlcfojh7","42","[""White""]","No","Female","917288.099999994","1337","","","{""product_choice"":""A""}","choice","tdc","repulsion_2","2","laptops","null","null","null","null","null","null","1","30","40","20","100","90","100","Processing speed","Memory (RAM)","",""
"","","","","","choice_trial_setup","html-keyboard-response","90","462110","0.0-5.0-0.3","164","1","2025-04-14 14:22:45","bb671e3ae32f654b8954ea4c4635f915","","Mozilla/5.0 (Windows NT 11.0; Win64; x64) AppleWebKit/537.36 (KHTML, like Gecko) Chrome/130.0.0.0 Safari/537.36","WebKit","Chrome","130.0.0.0","Windows","11.0","https://hz8g1ckzuq.cognition.run/","en,en-US;q=0.9","bnslu6uqlcfojh7","42","[""White""]","No","Female","917288.099999994","null","","<p></p>","null","choice","wbw","catch","null","washing machines","70","60","40","30","35","15","2","","","","","","","","","",""
"","","","","","choice_trial","survey-html-form","91","463267","0.0-5.0-1.3","164","1","2025-04-14 14:22:45","bb671e3ae32f654b8954ea4c4635f915","","Mozilla/5.0 (Windows NT 11.0; Win64; x64) AppleWebKit/537.36 (KHTML, like Gecko) Chrome/130.0.0.0 Safari/537.36","WebKit","Chrome","130.0.0.0","Windows","11.0","https://hz8g1ckzuq.cognition.run/","en,en-US;q=0.9","bnslu6uqlcfojh7","42","[""White""]","No","Female","917288.099999994","1145","","","{""product_choice"":""B""}","choice","wbw","catch","null","washing machines","70","60","40","30","35","15","2","null","null","null","null","null","null","Average lifespan","Energy savings","",""
"","","","","","choice_trial_setup","html-keyboard-response","92","463595","0.0-5.0-0.4","164","1","2025-04-14 14:22:45","bb671e3ae32f654b8954ea4c4635f915","","Mozilla/5.0 (Windows NT 11.0; Win64; x64) AppleWebKit/537.36 (KHTML, like Gecko) Chrome/130.0.0.0 Safari/537.36","WebKit","Chrome","130.0.0.0","Windows","11.0","https://hz8g1ckzuq.cognition.run/","en,en-US;q=0.9","bnslu6uqlcfojh7","42","[""White""]","No","Female","917288.099999994","null","","<p></p>","null","choice","tdc","attraction_1","1","laptops","null","null","null","null","null","null","2","","","","","","","","","",""
"","","","","","choice_trial","survey-html-form","93","464966","0.0-5.0-1.4","164","1","2025-04-14 14:22:45","bb671e3ae32f654b8954ea4c4635f915","","Mozilla/5.0 (Windows NT 11.0; Win64; x64) AppleWebKit/537.36 (KHTML, like Gecko) Chrome/130.0.0.0 Safari/537.36","WebKit","Chrome","130.0.0.0","Windows","11.0","https://hz8g1ckzuq.cognition.run/","en,en-US;q=0.9","bnslu6uqlcfojh7","42","[""White""]","No","Female","917288.099999994","1355","","","{""product_choice"":""A""}","choice","tdc","attraction_1","1","laptops","null","null","null","null","null","null","2","60","50","60","50","60","45","Processing speed","Memory (RAM)","",""
"","","","","","choice_trial_setup","html-keyboard-response","94","465278","0.0-5.0-0.5","164","1","2025-04-14 14:22:45","bb671e3ae32f654b8954ea4c4635f915","","Mozilla/5.0 (Windows NT 11.0; Win64; x64) AppleWebKit/537.36 (KHTML, like Gecko) Chrome/130.0.0.0 Safari/537.36","WebKit","Chrome","130.0.0.0","Windows","11.0","https://hz8g1ckzuq.cognition.run/","en,en-US;q=0.9","bnslu6uqlcfojh7","42","[""White""]","No","Female","917288.099999994","null","","<p></p>","null","choice","ctd","repulsion_2","1","microwave ovens","null","null","null","null","null","null","1","","","","","","","","","",""
"","","","","","choice_trial","survey-html-form","95","466419","0.0-5.0-1.5","164","1","2025-04-14 14:22:45","bb671e3ae32f654b8954ea4c4635f915","","Mozilla/5.0 (Windows NT 11.0; Win64; x64) AppleWebKit/537.36 (KHTML, like Gecko) Chrome/130.0.0.0 Safari/537.36","WebKit","Chrome","130.0.0.0","Windows","11.0","https://hz8g1ckzuq.cognition.run/","en,en-US;q=0.9","bnslu6uqlcfojh7","42","[""White""]","No","Female","917288.099999994","1117","","","{""product_choice"":""C""}","choice","ctd","repulsion_2","1","microwave ovens","null","null","null","null","null","null","1","100","90","100","30","40","20","Warranty","Cooking power","",""
"","","","","","choice_trial_setup","html-keyboard-response","96","466741","0.0-5.0-0.6","164","1","2025-04-14 14:22:45","bb671e3ae32f654b8954ea4c4635f915","","Mozilla/5.0 (Windows NT 11.0; Win64; x64) AppleWebKit/537.36 (KHTML, like Gecko) Chrome/130.0.0.0 Safari/537.36","WebKit","Chrome","130.0.0.0","Windows","11.0","https://hz8g1ckzuq.cognition.run/","en,en-US;q=0.9","bnslu6uqlcfojh7","42","[""White""]","No","Female","917288.099999994","null","","<p></p>","null","choice","tdc","repulsion_1","1","washing machines","null","null","null","null","null","null","2","","","","","","","","","",""
"","","","","","choice_trial","survey-html-form","97","467916","0.0-5.0-1.6","164","1","2025-04-14 14:22:45","bb671e3ae32f654b8954ea4c4635f915","","Mozilla/5.0 (Windows NT 11.0; Win64; x64) AppleWebKit/537.36 (KHTML, like Gecko) Chrome/130.0.0.0 Safari/537.36","WebKit","Chrome","130.0.0.0","Windows","11.0","https://hz8g1ckzuq.cognition.run/","en,en-US;q=0.9","bnslu6uqlcfojh7","42","[""White""]","No","Female","917288.099999994","1170","","","{""product_choice"":""A""}","choice","tdc","repulsion_1","1","washing machines","null","null","null","null","null","null","2","100","90","100","30","40","25","Average lifespan","Energy savings","",""
"","","","","","choice_trial_setup","html-keyboard-response","98","468248","0.0-5.0-0.7","164","1","2025-04-14 14:22:45","bb671e3ae32f654b8954ea4c4635f915","","Mozilla/5.0 (Windows NT 11.0; Win64; x64) AppleWebKit/537.36 (KHTML, like Gecko) Chrome/130.0.0.0 Safari/537.36","WebKit","Chrome","130.0.0.0","Windows","11.0","https://hz8g1ckzuq.cognition.run/","en,en-US;q=0.9","bnslu6uqlcfojh7","42","[""White""]","No","Female","917288.099999994","null","","<p></p>","null","choice","tdc","repulsion_1","2","televisions","null","null","null","null","null","null","2","","","","","","","","","",""
"","","","","","choice_trial","survey-html-form","99","469898","0.0-5.0-1.7","164","1","2025-04-14 14:22:45","bb671e3ae32f654b8954ea4c4635f915","","Mozilla/5.0 (Windows NT 11.0; Win64; x64) AppleWebKit/537.36 (KHTML, like Gecko) Chrome/130.0.0.0 Safari/537.36","WebKit","Chrome","130.0.0.0","Windows","11.0","https://hz8g1ckzuq.cognition.run/","en,en-US;q=0.9","bnslu6uqlcfojh7","42","[""White""]","No","Female","917288.099999994","1631","","","{""product_choice"":""B""}","choice","tdc","repulsion_1","2","televisions","null","null","null","null","null","null","2","30","40","25","100","90","100","Screen size","Average lifespan","",""
"","","","","","choice_trial_setup","html-keyboard-response","100","470211","0.0-5.0-0.8","164","1","2025-04-14 14:22:45","bb671e3ae32f654b8954ea4c4635f915","","Mozilla/5.0 (Windows NT 11.0; Win64; x64) AppleWebKit/537.36 (KHTML, like Gecko) Chrome/130.0.0.0 Safari/537.36","WebKit","Chrome","130.0.0.0","Windows","11.0","https://hz8g1ckzuq.cognition.run/","en,en-US;q=0.9","bnslu6uqlcfojh7","42","[""White""]","No","Female","917288.099999994","null","","<p></p>","null","choice","tdc","attraction_1","1","washing machines","null","null","null","null","null","null","1","","","","","","","","","",""
"","","","","","choice_trial","survey-html-form","101","471559","0.0-5.0-1.8","164","1","2025-04-14 14:22:45","bb671e3ae32f654b8954ea4c4635f915","","Mozilla/5.0 (Windows NT 11.0; Win64; x64) AppleWebKit/537.36 (KHTML, like Gecko) Chrome/130.0.0.0 Safari/537.36","WebKit","Chrome","130.0.0.0","Windows","11.0","https://hz8g1ckzuq.cognition.run/","en,en-US;q=0.9","bnslu6uqlcfojh7","42","[""White""]","No","Female","917288.099999994","1330","","","{""product_choice"":""A""}","choice","tdc","attraction_1","1","washing machines","null","null","null","null","null","null","1","60","50","60","50","60","45","Average lifespan","Energy savings","",""
"","","","","","choice_trial_setup","html-keyboard-response","102","471893","0.0-5.0-0.9","164","1","2025-04-14 14:22:45","bb671e3ae32f654b8954ea4c4635f915","","Mozilla/5.0 (Windows NT 11.0; Win64; x64) AppleWebKit/537.36 (KHTML, like Gecko) Chrome/130.0.0.0 Safari/537.36","WebKit","Chrome","130.0.0.0","Windows","11.0","https://hz8g1ckzuq.cognition.run/","en,en-US;q=0.9","bnslu6uqlcfojh7","42","[""White""]","No","Female","917288.099999994","null","","<p></p>","null","choice","tdc","repulsion_2","1","washing machines","null","null","null","null","null","null","1","","","","","","","","","",""
"","","","","","choice_trial","survey-html-form","103","473264","0.0-5.0-1.9","164","1","2025-04-14 14:22:45","bb671e3ae32f654b8954ea4c4635f915","","Mozilla/5.0 (Windows NT 11.0; Win64; x64) AppleWebKit/537.36 (KHTML, like Gecko) Chrome/130.0.0.0 Safari/537.36","WebKit","Chrome","130.0.0.0","Windows","11.0","https://hz8g1ckzuq.cognition.run/","en,en-US;q=0.9","bnslu6uqlcfojh7","42","[""White""]","No","Female","917288.099999994","1349","","","{""product_choice"":""C""}","choice","tdc","repulsion_2","1","washing machines","null","null","null","null","null","null","1","100","90","100","30","40","20","Average lifespan","Energy savings","",""
"","","","","","choice_trial_setup","html-keyboard-response","104","473594","0.0-5.0-0.10","164","1","2025-04-14 14:22:45","bb671e3ae32f654b8954ea4c4635f915","","Mozilla/5.0 (Windows NT 11.0; Win64; x64) AppleWebKit/537.36 (KHTML, like Gecko) Chrome/130.0.0.0 Safari/537.36","WebKit","Chrome","130.0.0.0","Windows","11.0","https://hz8g1ckzuq.cognition.run/","en,en-US;q=0.9","bnslu6uqlcfojh7","42","[""White""]","No","Female","917288.099999994","null","","<p></p>","null","choice","cdt","attraction_1","2","microwave ovens","null","null","null","null","null","null","2","","","","","","","","","",""
"","","","","","choice_trial","survey-html-form","105","474572","0.0-5.0-1.10","164","1","2025-04-14 14:22:45","bb671e3ae32f654b8954ea4c4635f915","","Mozilla/5.0 (Windows NT 11.0; Win64; x64) AppleWebKit/537.36 (KHTML, like Gecko) Chrome/130.0.0.0 Safari/537.36","WebKit","Chrome","130.0.0.0","Windows","11.0","https://hz8g1ckzuq.cognition.run/","en,en-US;q=0.9","bnslu6uqlcfojh7","42","[""White""]","No","Female","917288.099999994","956","","","{""product_choice"":""A""}","choice","cdt","attraction_1","2","microwave ovens","null","null","null","null","null","null","2","50","60","45","60","50","60","Warranty","Cooking power","",""
"","","","","","choice_trial_setup","html-keyboard-response","106","474894","0.0-5.0-0.11","164","1","2025-04-14 14:22:45","bb671e3ae32f654b8954ea4c4635f915","","Mozilla/5.0 (Windows NT 11.0; Win64; x64) AppleWebKit/537.36 (KHTML, like Gecko) Chrome/130.0.0.0 Safari/537.36","WebKit","Chrome","130.0.0.0","Windows","11.0","https://hz8g1ckzuq.cognition.run/","en,en-US;q=0.9","bnslu6uqlcfojh7","42","[""White""]","No","Female","917288.099999994","null","","<p></p>","null","choice","cdt","attraction_2","2","washing machines","null","null","null","null","null","null","2","","","","","","","","","",""
"","","","","","choice_trial","survey-html-form","107","476180","0.0-5.0-1.11","164","1","2025-04-14 14:22:45","bb671e3ae32f654b8954ea4c4635f915","","Mozilla/5.0 (Windows NT 11.0; Win64; x64) AppleWebKit/537.36 (KHTML, like Gecko) Chrome/130.0.0.0 Safari/537.36","WebKit","Chrome","130.0.0.0","Windows","11.0","https://hz8g1ckzuq.cognition.run/","en,en-US;q=0.9","bnslu6uqlcfojh7","42","[""White""]","No","Female","917288.099999994","1270","","","{""product_choice"":""A""}","choice","cdt","attraction_2","2","washing machines","null","null","null","null","null","null","2","50","60","40","60","50","60","Average lifespan","Energy savings","",""
"","","","","","choice_trial_setup","html-keyboard-response","108","476501","0.0-5.0-0.12","164","1","2025-04-14 14:22:45","bb671e3ae32f654b8954ea4c4635f915","","Mozilla/5.0 (Windows NT 11.0; Win64; x64) AppleWebKit/537.36 (KHTML, like Gecko) Chrome/130.0.0.0 Safari/537.36","WebKit","Chrome","130.0.0.0","Windows","11.0","https://hz8g1ckzuq.cognition.run/","en,en-US;q=0.9","bnslu6uqlcfojh7","42","[""White""]","No","Female","917288.099999994","null","","<p></p>","null","choice","dtc","attraction_1","2","laptops","null","null","null","null","null","null","1","","","","","","","","","",""
"","","","","","choice_trial","survey-html-form","109","477705","0.0-5.0-1.12","164","1","2025-04-14 14:22:45","bb671e3ae32f654b8954ea4c4635f915","","Mozilla/5.0 (Windows NT 11.0; Win64; x64) AppleWebKit/537.36 (KHTML, like Gecko) Chrome/130.0.0.0 Safari/537.36","WebKit","Chrome","130.0.0.0","Windows","11.0","https://hz8g1ckzuq.cognition.run/","en,en-US;q=0.9","bnslu6uqlcfojh7","42","[""White""]","No","Female","917288.099999994","1186","","","{""product_choice"":""C""}","choice","dtc","attraction_1","2","laptops","null","null","null","null","null","null","1","50","60","45","60","50","60","Processing speed","Memory (RAM)","",""
"","","","","","choice_trial_setup","html-keyboard-response","110","478030","0.0-5.0-0.13","164","1","2025-04-14 14:22:45","bb671e3ae32f654b8954ea4c4635f915","","Mozilla/5.0 (Windows NT 11.0; Win64; x64) AppleWebKit/537.36 (KHTML, like Gecko) Chrome/130.0.0.0 Safari/537.36","WebKit","Chrome","130.0.0.0","Windows","11.0","https://hz8g1ckzuq.cognition.run/","en,en-US;q=0.9","bnslu6uqlcfojh7","42","[""White""]","No","Female","917288.099999994","null","","<p></p>","null","choice","cdt","repulsion_1","1","laptops","null","null","null","null","null","null","1","","","","","","","","","",""
"","","","","","choice_trial","survey-html-form","111","479186","0.0-5.0-1.13","164","1","2025-04-14 14:22:45","bb671e3ae32f654b8954ea4c4635f915","","Mozilla/5.0 (Windows NT 11.0; Win64; x64) AppleWebKit/537.36 (KHTML, like Gecko) Chrome/130.0.0.0 Safari/537.36","WebKit","Chrome","130.0.0.0","Windows","11.0","https://hz8g1ckzuq.cognition.run/","en,en-US;q=0.9","bnslu6uqlcfojh7","42","[""White""]","No","Female","917288.099999994","1145","","","{""product_choice"":""A""}","choice","cdt","repulsion_1","1","laptops","null","null","null","null","null","null","1","100","90","100","30","40","25","Processing speed","Memory (RAM)","",""
"","","","","","choice_trial_setup","html-keyboard-response","112","479498","0.0-5.0-0.14","164","1","2025-04-14 14:22:45","bb671e3ae32f654b8954ea4c4635f915","","Mozilla/5.0 (Windows NT 11.0; Win64; x64) AppleWebKit/537.36 (KHTML, like Gecko) Chrome/130.0.0.0 Safari/537.36","WebKit","Chrome","130.0.0.0","Windows","11.0","https://hz8g1ckzuq.cognition.run/","en,en-US;q=0.9","bnslu6uqlcfojh7","42","[""White""]","No","Female","917288.099999994","null","","<p></p>","null","choice","cdt","attraction_1","1","televisions","null","null","null","null","null","null","2","","","","","","","","","",""
"","","","","","choice_trial","survey-html-form","113","481543","0.0-5.0-1.14","164","1","2025-04-14 14:22:45","bb671e3ae32f654b8954ea4c4635f915","","Mozilla/5.0 (Windows NT 11.0; Win64; x64) AppleWebKit/537.36 (KHTML, like Gecko) Chrome/130.0.0.0 Safari/537.36","WebKit","Chrome","130.0.0.0","Windows","11.0","https://hz8g1ckzuq.cognition.run/","en,en-US;q=0.9","bnslu6uqlcfojh7","42","[""White""]","No","Female","917288.099999994","2037","","","{""product_choice"":""B""}","choice","cdt","attraction_1","1","televisions","null","null","null","null","null","null","2","60","50","60","50","60","45","Screen size","Average lifespan","",""
"","","","","","choice_trial_setup","html-keyboard-response","114","481871","0.0-5.0-0.15","164","1","2025-04-14 14:22:45","bb671e3ae32f654b8954ea4c4635f915","","Mozilla/5.0 (Windows NT 11.0; Win64; x64) AppleWebKit/537.36 (KHTML, like Gecko) Chrome/130.0.0.0 Safari/537.36","WebKit","Chrome","130.0.0.0","Windows","11.0","https://hz8g1ckzuq.cognition.run/","en,en-US;q=0.9","bnslu6uqlcfojh7","42","[""White""]","No","Female","917288.099999994","null","","<p></p>","null","choice","tdc","attraction_2","2","microwave ovens","null","null","null","null","null","null","1","","","","","","","","","",""
"","","","","","choice_trial","survey-html-form","115","484300","0.0-5.0-1.15","164","1","2025-04-14 14:22:45","bb671e3ae32f654b8954ea4c4635f915","","Mozilla/5.0 (Windows NT 11.0; Win64; x64) AppleWebKit/537.36 (KHTML, like Gecko) Chrome/130.0.0.0 Safari/537.36","WebKit","Chrome","130.0.0.0","Windows","11.0","https://hz8g1ckzuq.cognition.run/","en,en-US;q=0.9","bnslu6uqlcfojh7","42","[""White""]","No","Female","917288.099999994","2411","","","{""product_choice"":""A""}","choice","tdc","attraction_2","2","microwave ovens","null","null","null","null","null","null","1","50","60","40","60","50","60","Warranty","Cooking power","",""
"","","","","","choice_trial_setup","html-keyboard-response","116","484625","0.0-5.0-0.16","164","1","2025-04-14 14:22:45","bb671e3ae32f654b8954ea4c4635f915","","Mozilla/5.0 (Windows NT 11.0; Win64; x64) AppleWebKit/537.36 (KHTML, like Gecko) Chrome/130.0.0.0 Safari/537.36","WebKit","Chrome","130.0.0.0","Windows","11.0","https://hz8g1ckzuq.cognition.run/","en,en-US;q=0.9","bnslu6uqlcfojh7","42","[""White""]","No","Female","917288.099999994","null","","<p></p>","null","choice","tcd","attraction_1","2","televisions","null","null","null","null","null","null","2","","","","","","","","","",""
"","","","","","choice_trial","survey-html-form","117","485981","0.0-5.0-1.16","164","1","2025-04-14 14:22:45","bb671e3ae32f654b8954ea4c4635f915","","Mozilla/5.0 (Windows NT 11.0; Win64; x64) AppleWebKit/537.36 (KHTML, like Gecko) Chrome/130.0.0.0 Safari/537.36","WebKit","Chrome","130.0.0.0","Windows","11.0","https://hz8g1ckzuq.cognition.run/","en,en-US;q=0.9","bnslu6uqlcfojh7","42","[""White""]","No","Female","917288.099999994","1340","","","{""product_choice"":""B""}","choice","tcd","attraction_1","2","televisions","null","null","null","null","null","null","2","50","60","45","60","50","60","Screen size","Average lifespan","",""
"","","","","","choice_trial_setup","html-keyboard-response","118","486301","0.0-5.0-0.17","164","1","2025-04-14 14:22:45","bb671e3ae32f654b8954ea4c4635f915","","Mozilla/5.0 (Windows NT 11.0; Win64; x64) AppleWebKit/537.36 (KHTML, like Gecko) Chrome/130.0.0.0 Safari/537.36","WebKit","Chrome","130.0.0.0","Windows","11.0","https://hz8g1ckzuq.cognition.run/","en,en-US;q=0.9","bnslu6uqlcfojh7","42","[""White""]","No","Female","917288.099999994","null","","<p></p>","null","choice","dtc","repulsion_1","1","microwave ovens","null","null","null","null","null","null","2","","","","","","","","","",""
"","","","","","choice_trial","survey-html-form","119","487525","0.0-5.0-1.17","164","1","2025-04-14 14:22:45","bb671e3ae32f654b8954ea4c4635f915","","Mozilla/5.0 (Windows NT 11.0; Win64; x64) AppleWebKit/537.36 (KHTML, like Gecko) Chrome/130.0.0.0 Safari/537.36","WebKit","Chrome","130.0.0.0","Windows","11.0","https://hz8g1ckzuq.cognition.run/","en,en-US;q=0.9","bnslu6uqlcfojh7","42","[""White""]","No","Female","917288.099999994","1204","","","{""product_choice"":""C""}","choice","dtc","repulsion_1","1","microwave ovens","null","null","null","null","null","null","2","100","90","100","30","40","25","Warranty","Cooking power","",""
"","","","","","choice_trial_setup","html-keyboard-response","120","487845","0.0-5.0-0.18","164","1","2025-04-14 14:22:45","bb671e3ae32f654b8954ea4c4635f915","","Mozilla/5.0 (Windows NT 11.0; Win64; x64) AppleWebKit/537.36 (KHTML, like Gecko) Chrome/130.0.0.0 Safari/537.36","WebKit","Chrome","130.0.0.0","Windows","11.0","https://hz8g1ckzuq.cognition.run/","en,en-US;q=0.9","bnslu6uqlcfojh7","42","[""White""]","No","Female","917288.099999994","null","","<p></p>","null","choice","tdc","attraction_1","2","washing machines","null","null","null","null","null","null","1","","","","","","","","","",""
"","","","","","choice_trial","survey-html-form","121","489895","0.0-5.0-1.18","164","1","2025-04-14 14:22:45","bb671e3ae32f654b8954ea4c4635f915","","Mozilla/5.0 (Windows NT 11.0; Win64; x64) AppleWebKit/537.36 (KHTML, like Gecko) Chrome/130.0.0.0 Safari/537.36","WebKit","Chrome","130.0.0.0","Windows","11.0","https://hz8g1ckzuq.cognition.run/","en,en-US;q=0.9","bnslu6uqlcfojh7","42","[""White""]","No","Female","917288.099999994","2042","","","{""product_choice"":""A""}","choice","tdc","attraction_1","2","washing machines","null","null","null","null","null","null","1","50","60","45","60","50","60","Average lifespan","Energy savings","",""
"","","","","","choice_trial_setup","html-keyboard-response","122","490219","0.0-5.0-0.19","164","1","2025-04-14 14:22:45","bb671e3ae32f654b8954ea4c4635f915","","Mozilla/5.0 (Windows NT 11.0; Win64; x64) AppleWebKit/537.36 (KHTML, like Gecko) Chrome/130.0.0.0 Safari/537.36","WebKit","Chrome","130.0.0.0","Windows","11.0","https://hz8g1ckzuq.cognition.run/","en,en-US;q=0.9","bnslu6uqlcfojh7","42","[""White""]","No","Female","917288.099999994","null","","<p></p>","null","choice","tdc","attraction_2","1","microwave ovens","null","null","null","null","null","null","2","","","","","","","","","",""
"","","","","","choice_trial","survey-html-form","123","491726","0.0-5.0-1.19","164","1","2025-04-14 14:22:45","bb671e3ae32f654b8954ea4c4635f915","","Mozilla/5.0 (Windows NT 11.0; Win64; x64) AppleWebKit/537.36 (KHTML, like Gecko) Chrome/130.0.0.0 Safari/537.36","WebKit","Chrome","130.0.0.0","Windows","11.0","https://hz8g1ckzuq.cognition.run/","en,en-US;q=0.9","bnslu6uqlcfojh7","42","[""White""]","No","Female","917288.099999994","1485","","","{""product_choice"":""B""}","choice","tdc","attraction_2","1","microwave ovens","null","null","null","null","null","null","2","60","50","60","50","60","40","Warranty","Cooking power","",""
"","","","","","choice_trial_setup","html-keyboard-response","124","492052","0.0-5.0-0.20","164","1","2025-04-14 14:22:45","bb671e3ae32f654b8954ea4c4635f915","","Mozilla/5.0 (Windows NT 11.0; Win64; x64) AppleWebKit/537.36 (KHTML, like Gecko) Chrome/130.0.0.0 Safari/537.36","WebKit","Chrome","130.0.0.0","Windows","11.0","https://hz8g1ckzuq.cognition.run/","en,en-US;q=0.9","bnslu6uqlcfojh7","42","[""White""]","No","Female","917288.099999994","null","","<p></p>","null","choice","tdc","repulsion_2","1","televisions","null","null","null","null","null","null","2","","","","","","","","","",""
"","","","","","choice_trial","survey-html-form","125","493255","0.0-5.0-1.20","164","1","2025-04-14 14:22:45","bb671e3ae32f654b8954ea4c4635f915","","Mozilla/5.0 (Windows NT 11.0; Win64; x64) AppleWebKit/537.36 (KHTML, like Gecko) Chrome/130.0.0.0 Safari/537.36","WebKit","Chrome","130.0.0.0","Windows","11.0","https://hz8g1ckzuq.cognition.run/","en,en-US;q=0.9","bnslu6uqlcfojh7","42","[""White""]","No","Female","917288.099999994","1182","","","{""product_choice"":""A""}","choice","tdc","repulsion_2","1","televisions","null","null","null","null","null","null","2","100","90","100","30","40","20","Screen size","Average lifespan","",""
"","","","","","choice_trial_setup","html-keyboard-response","126","493566","0.0-5.0-0.21","164","1","2025-04-14 14:22:45","bb671e3ae32f654b8954ea4c4635f915","","Mozilla/5.0 (Windows NT 11.0; Win64; x64) AppleWebKit/537.36 (KHTML, like Gecko) Chrome/130.0.0.0 Safari/537.36","WebKit","Chrome","130.0.0.0","Windows","11.0","https://hz8g1ckzuq.cognition.run/","en,en-US;q=0.9","bnslu6uqlcfojh7","42","[""White""]","No","Female","917288.099999994","null","","<p></p>","null","choice","bww","catch","null","microwave ovens","95","75","50","45","10","45","2","","","","","","","","","",""
"","","","","","choice_trial","survey-html-form","127","495271","0.0-5.0-1.21","164","1","2025-04-14 14:22:45","bb671e3ae32f654b8954ea4c4635f915","","Mozilla/5.0 (Windows NT 11.0; Win64; x64) AppleWebKit/537.36 (KHTML, like Gecko) Chrome/130.0.0.0 Safari/537.36","WebKit","Chrome","130.0.0.0","Windows","11.0","https://hz8g1ckzuq.cognition.run/","en,en-US;q=0.9","bnslu6uqlcfojh7","42","[""White""]","No","Female","917288.099999994","1696","","","{""product_choice"":""C""}","choice","bww","catch","null","microwave ovens","95","75","50","45","10","45","2","null","null","null","null","null","null","Warranty","Cooking power","",""
"","","","","","choice_trial_setup","html-keyboard-response","128","495608","0.0-5.0-0.22","164","1","2025-04-14 14:22:45","bb671e3ae32f654b8954ea4c4635f915","","Mozilla/5.0 (Windows NT 11.0; Win64; x64) AppleWebKit/537.36 (KHTML, like Gecko) Chrome/130.0.0.0 Safari/537.36","WebKit","Chrome","130.0.0.0","Windows","11.0","https://hz8g1ckzuq.cognition.run/","en,en-US;q=0.9","bnslu6uqlcfojh7","42","[""White""]","No","Female","917288.099999994","null","","<p></p>","null","choice","tdc","attraction_2","1","televisions","null","null","null","null","null","null","1","","","","","","","","","",""
"","","","","","choice_trial","survey-html-form","129","496960","0.0-5.0-1.22","164","1","2025-04-14 14:22:45","bb671e3ae32f654b8954ea4c4635f915","","Mozilla/5.0 (Windows NT 11.0; Win64; x64) AppleWebKit/537.36 (KHTML, like Gecko) Chrome/130.0.0.0 Safari/537.36","WebKit","Chrome","130.0.0.0","Windows","11.0","https://hz8g1ckzuq.cognition.run/","en,en-US;q=0.9","bnslu6uqlcfojh7","42","[""White""]","No","Female","917288.099999994","1326","","","{""product_choice"":""A""}","choice","tdc","attraction_2","1","televisions","null","null","null","null","null","null","1","60","50","60","50","60","40","Screen size","Average lifespan","",""
"","","","","","choice_trial_setup","html-keyboard-response","130","497282","0.0-5.0-0.23","164","1","2025-04-14 14:22:45","bb671e3ae32f654b8954ea4c4635f915","","Mozilla/5.0 (Windows NT 11.0; Win64; x64) AppleWebKit/537.36 (KHTML, like Gecko) Chrome/130.0.0.0 Safari/537.36","WebKit","Chrome","130.0.0.0","Windows","11.0","https://hz8g1ckzuq.cognition.run/","en,en-US;q=0.9","bnslu6uqlcfojh7","42","[""White""]","No","Female","917288.099999994","null","","<p></p>","null","choice","tcd","attraction_2","1","washing machines","null","null","null","null","null","null","1","","","","","","","","","",""
"","","","","","choice_trial","survey-html-form","131","499241","0.0-5.0-1.23","164","1","2025-04-14 14:22:45","bb671e3ae32f654b8954ea4c4635f915","","Mozilla/5.0 (Windows NT 11.0; Win64; x64) AppleWebKit/537.36 (KHTML, like Gecko) Chrome/130.0.0.0 Safari/537.36","WebKit","Chrome","130.0.0.0","Windows","11.0","https://hz8g1ckzuq.cognition.run/","en,en-US;q=0.9","bnslu6uqlcfojh7","42","[""White""]","No","Female","917288.099999994","1943","","","{""product_choice"":""C""}","choice","tcd","attraction_2","1","washing machines","null","null","null","null","null","null","1","60","50","60","50","60","40","Average lifespan","Energy savings","",""
"","","","","","choice_trial_setup","html-keyboard-response","132","499565","0.0-5.0-0.24","164","1","2025-04-14 14:22:45","bb671e3ae32f654b8954ea4c4635f915","","Mozilla/5.0 (Windows NT 11.0; Win64; x64) AppleWebKit/537.36 (KHTML, like Gecko) Chrome/130.0.0.0 Safari/537.36","WebKit","Chrome","130.0.0.0","Windows","11.0","https://hz8g1ckzuq.cognition.run/","en,en-US;q=0.9","bnslu6uqlcfojh7","42","[""White""]","No","Female","917288.099999994","null","","<p></p>","null","choice","wwb","catch","null","televisions","50","75","10","10","40","40","2","","","","","","","","","",""
"","","","","","choice_trial","survey-html-form","133","501135","0.0-5.0-1.24","164","1","2025-04-14 14:22:45","bb671e3ae32f654b8954ea4c4635f915","","Mozilla/5.0 (Windows NT 11.0; Win64; x64) AppleWebKit/537.36 (KHTML, like Gecko) Chrome/130.0.0.0 Safari/537.36","WebKit","Chrome","130.0.0.0","Windows","11.0","https://hz8g1ckzuq.cognition.run/","en,en-US;q=0.9","bnslu6uqlcfojh7","42","[""White""]","No","Female","917288.099999994","1544","","","{""product_choice"":""A""}","choice","wwb","catch","null","televisions","50","75","10","10","40","40","2","null","null","null","null","null","null","Screen size","Average lifespan","",""
"","","","","","choice_trial_setup","html-keyboard-response","134","501462","0.0-5.0-0.25","164","1","2025-04-14 14:22:45","bb671e3ae32f654b8954ea4c4635f915","","Mozilla/5.0 (Windows NT 11.0; Win64; x64) AppleWebKit/537.36 (KHTML, like Gecko) Chrome/130.0.0.0 Safari/537.36","WebKit","Chrome","130.0.0.0","Windows","11.0","https://hz8g1ckzuq.cognition.run/","en,en-US;q=0.9","bnslu6uqlcfojh7","42","[""White""]","No","Female","917288.099999994","null","","<p></p>","null","choice","bww","catch","null","laptops","85","95","45","15","30","45","2","","","","","","","","","",""
"","","","","","choice_trial","survey-html-form","135","502893","0.0-5.0-1.25","164","1","2025-04-14 14:22:45","bb671e3ae32f654b8954ea4c4635f915","","Mozilla/5.0 (Windows NT 11.0; Win64; x64) AppleWebKit/537.36 (KHTML, like Gecko) Chrome/130.0.0.0 Safari/537.36","WebKit","Chrome","130.0.0.0","Windows","11.0","https://hz8g1ckzuq.cognition.run/","en,en-US;q=0.9","bnslu6uqlcfojh7","42","[""White""]","No","Female","917288.099999994","1406","","","{""product_choice"":""C""}","choice","bww","catch","null","laptops","85","95","45","15","30","45","2","null","null","null","null","null","null","Processing speed","Memory (RAM)","",""
"","","","","","choice_trial_setup","html-keyboard-response","136","503228","0.0-5.0-0.26","164","1","2025-04-14 14:22:45","bb671e3ae32f654b8954ea4c4635f915","","Mozilla/5.0 (Windows NT 11.0; Win64; x64) AppleWebKit/537.36 (KHTML, like Gecko) Chrome/130.0.0.0 Safari/537.36","WebKit","Chrome","130.0.0.0","Windows","11.0","https://hz8g1ckzuq.cognition.run/","en,en-US;q=0.9","bnslu6uqlcfojh7","42","[""White""]","No","Female","917288.099999994","null","","<p></p>","null","choice","tcd","repulsion_2","2","microwave ovens","null","null","null","null","null","null","1","","","","","","","","","",""
"","","","","","choice_trial","survey-html-form","137","504514","0.0-5.0-1.26","164","1","2025-04-14 14:22:45","bb671e3ae32f654b8954ea4c4635f915","","Mozilla/5.0 (Windows NT 11.0; Win64; x64) AppleWebKit/537.36 (KHTML, like Gecko) Chrome/130.0.0.0 Safari/537.36","WebKit","Chrome","130.0.0.0","Windows","11.0","https://hz8g1ckzuq.cognition.run/","en,en-US;q=0.9","bnslu6uqlcfojh7","42","[""White""]","No","Female","917288.099999994","1268","","","{""product_choice"":""A""}","choice","tcd","repulsion_2","2","microwave ovens","null","null","null","null","null","null","1","30","40","20","100","90","100","Warranty","Cooking power","",""
"","","","","","choice_trial_setup","html-keyboard-response","138","504840","0.0-5.0-0.27","164","1","2025-04-14 14:22:45","bb671e3ae32f654b8954ea4c4635f915","","Mozilla/5.0 (Windows NT 11.0; Win64; x64) AppleWebKit/537.36 (KHTML, like Gecko) Chrome/130.0.0.0 Safari/537.36","WebKit","Chrome","130.0.0.0","Windows","11.0","https://hz8g1ckzuq.cognition.run/","en,en-US;q=0.9","bnslu6uqlcfojh7","42","[""White""]","No","Female","917288.099999994","null","","<p></p>","null","choice","bww","catch","null","microwave ovens","90","60","15","30","20","20","1","","","","","","","","","",""
"","","","","","choice_trial","survey-html-form","139","506318","0.0-5.0-1.27","164","1","2025-04-14 14:22:45","bb671e3ae32f654b8954ea4c4635f915","","Mozilla/5.0 (Windows NT 11.0; Win64; x64) AppleWebKit/537.36 (KHTML, like Gecko) Chrome/130.0.0.0 Safari/537.36","WebKit","Chrome","130.0.0.0","Windows","11.0","https://hz8g1ckzuq.cognition.run/","en,en-US;q=0.9","bnslu6uqlcfojh7","42","[""White""]","No","Female","917288.099999994","1456","","","{""product_choice"":""B""}","choice","bww","catch","null","microwave ovens","90","60","15","30","20","20","1","null","null","null","null","null","null","Warranty","Cooking power","",""
"","","","","","choice_trial_setup","html-keyboard-response","140","506637","0.0-5.0-0.28","164","1","2025-04-14 14:22:45","bb671e3ae32f654b8954ea4c4635f915","","Mozilla/5.0 (Windows NT 11.0; Win64; x64) AppleWebKit/537.36 (KHTML, like Gecko) Chrome/130.0.0.0 Safari/537.36","WebKit","Chrome","130.0.0.0","Windows","11.0","https://hz8g1ckzuq.cognition.run/","en,en-US;q=0.9","bnslu6uqlcfojh7","42","[""White""]","No","Female","917288.099999994","null","","<p></p>","null","choice","tcd","repulsion_2","2","televisions","null","null","null","null","null","null","2","","","","","","","","","",""
"","","","","","choice_trial","survey-html-form","141","507831","0.0-5.0-1.28","164","1","2025-04-14 14:22:45","bb671e3ae32f654b8954ea4c4635f915","","Mozilla/5.0 (Windows NT 11.0; Win64; x64) AppleWebKit/537.36 (KHTML, like Gecko) Chrome/130.0.0.0 Safari/537.36","WebKit","Chrome","130.0.0.0","Windows","11.0","https://hz8g1ckzuq.cognition.run/","en,en-US;q=0.9","bnslu6uqlcfojh7","42","[""White""]","No","Female","917288.099999994","1169","","","{""product_choice"":""A""}","choice","tcd","repulsion_2","2","televisions","null","null","null","null","null","null","2","30","40","20","100","90","100","Screen size","Average lifespan","",""
"","","","","","choice_trial_setup","html-keyboard-response","142","508154","0.0-5.0-0.29","164","1","2025-04-14 14:22:45","bb671e3ae32f654b8954ea4c4635f915","","Mozilla/5.0 (Windows NT 11.0; Win64; x64) AppleWebKit/537.36 (KHTML, like Gecko) Chrome/130.0.0.0 Safari/537.36","WebKit","Chrome","130.0.0.0","Windows","11.0","https://hz8g1ckzuq.cognition.run/","en,en-US;q=0.9","bnslu6uqlcfojh7","42","[""White""]","No","Female","917288.099999994","null","","<p></p>","null","choice","dtc","repulsion_2","2","washing machines","null","null","null","null","null","null","2","","","","","","","","","",""
"","","","","","choice_trial","survey-html-form","143","510136","0.0-5.0-1.29","164","1","2025-04-14 14:22:45","bb671e3ae32f654b8954ea4c4635f915","","Mozilla/5.0 (Windows NT 11.0; Win64; x64) AppleWebKit/537.36 (KHTML, like Gecko) Chrome/130.0.0.0 Safari/537.36","WebKit","Chrome","130.0.0.0","Windows","11.0","https://hz8g1ckzuq.cognition.run/","en,en-US;q=0.9","bnslu6uqlcfojh7","42","[""White""]","No","Female","917288.099999994","1958","","","{""product_choice"":""C""}","choice","dtc","repulsion_2","2","washing machines","null","null","null","null","null","null","2","30","40","20","100","90","100","Average lifespan","Energy savings","",""
"","","","","","choice_trial_setup","html-keyboard-response","144","510478","0.0-5.0-0.30","164","1","2025-04-14 14:22:45","bb671e3ae32f654b8954ea4c4635f915","","Mozilla/5.0 (Windows NT 11.0; Win64; x64) AppleWebKit/537.36 (KHTML, like Gecko) Chrome/130.0.0.0 Safari/537.36","WebKit","Chrome","130.0.0.0","Windows","11.0","https://hz8g1ckzuq.cognition.run/","en,en-US;q=0.9","bnslu6uqlcfojh7","42","[""White""]","No","Female","917288.099999994","null","","<p></p>","null","choice","tdc","attraction_2","1","laptops","null","null","null","null","null","null","2","","","","","","","","","",""
"","","","","","choice_trial","survey-html-form","145","511789","0.0-5.0-1.30","164","1","2025-04-14 14:22:45","bb671e3ae32f654b8954ea4c4635f915","","Mozilla/5.0 (Windows NT 11.0; Win64; x64) AppleWebKit/537.36 (KHTML, like Gecko) Chrome/130.0.0.0 Safari/537.36","WebKit","Chrome","130.0.0.0","Windows","11.0","https://hz8g1ckzuq.cognition.run/","en,en-US;q=0.9","bnslu6uqlcfojh7","42","[""White""]","No","Female","917288.099999994","1285","","","{""product_choice"":""C""}","choice","tdc","attraction_2","1","laptops","null","null","null","null","null","null","2","60","50","60","50","60","40","Processing speed","Memory (RAM)","",""
"","","","","","choice_trial_setup","html-keyboard-response","146","512115","0.0-5.0-0.31","164","1","2025-04-14 14:22:45","bb671e3ae32f654b8954ea4c4635f915","","Mozilla/5.0 (Windows NT 11.0; Win64; x64) AppleWebKit/537.36 (KHTML, like Gecko) Chrome/130.0.0.0 Safari/537.36","WebKit","Chrome","130.0.0.0","Windows","11.0","https://hz8g1ckzuq.cognition.run/","en,en-US;q=0.9","bnslu6uqlcfojh7","42","[""White""]","No","Female","917288.099999994","null","","<p></p>","null","choice","tcd","repulsion_2","1","laptops","null","null","null","null","null","null","2","","","","","","","","","",""
"","","","","","choice_trial","survey-html-form","147","513914","0.0-5.0-1.31","164","1","2025-04-14 14:22:45","bb671e3ae32f654b8954ea4c4635f915","","Mozilla/5.0 (Windows NT 11.0; Win64; x64) AppleWebKit/537.36 (KHTML, like Gecko) Chrome/130.0.0.0 Safari/537.36","WebKit","Chrome","130.0.0.0","Windows","11.0","https://hz8g1ckzuq.cognition.run/","en,en-US;q=0.9","bnslu6uqlcfojh7","42","[""White""]","No","Female","917288.099999994","1772","","","{""product_choice"":""A""}","choice","tcd","repulsion_2","1","laptops","null","null","null","null","null","null","2","100","90","100","30","40","20","Processing speed","Memory (RAM)","",""
"","","","","","choice_trial_setup","html-keyboard-response","148","514233","0.0-5.0-0.32","164","1","2025-04-14 14:22:45","bb671e3ae32f654b8954ea4c4635f915","","Mozilla/5.0 (Windows NT 11.0; Win64; x64) AppleWebKit/537.36 (KHTML, like Gecko) Chrome/130.0.0.0 Safari/537.36","WebKit","Chrome","130.0.0.0","Windows","11.0","https://hz8g1ckzuq.cognition.run/","en,en-US;q=0.9","bnslu6uqlcfojh7","42","[""White""]","No","Female","917288.099999994","null","","<p></p>","null","choice","ctd","attraction_2","2","televisions","null","null","null","null","null","null","1","","","","","","","","","",""
"","","","","","choice_trial","survey-html-form","149","515776","0.0-5.0-1.32","164","1","2025-04-14 14:22:45","bb671e3ae32f654b8954ea4c4635f915","","Mozilla/5.0 (Windows NT 11.0; Win64; x64) AppleWebKit/537.36 (KHTML, like Gecko) Chrome/130.0.0.0 Safari/537.36","WebKit","Chrome","130.0.0.0","Windows","11.0","https://hz8g1ckzuq.cognition.run/","en,en-US;q=0.9","bnslu6uqlcfojh7","42","[""White""]","No","Female","917288.099999994","1516","","","{""product_choice"":""B""}","choice","ctd","attraction_2","2","televisions","null","null","null","null","null","null","1","50","60","40","60","50","60","Screen size","Average lifespan","",""
"","","","","","choice_trial_setup","html-keyboard-response","150","516105","0.0-5.0-0.33","164","1","2025-04-14 14:22:45","bb671e3ae32f654b8954ea4c4635f915","","Mozilla/5.0 (Windows NT 11.0; Win64; x64) AppleWebKit/537.36 (KHTML, like Gecko) Chrome/130.0.0.0 Safari/537.36","WebKit","Chrome","130.0.0.0","Windows","11.0","https://hz8g1ckzuq.cognition.run/","en,en-US;q=0.9","bnslu6uqlcfojh7","42","[""White""]","No","Female","917288.099999994","null","","<p></p>","null","choice","dtc","repulsion_1","1","televisions","null","null","null","null","null","null","2","","","","","","","","","",""
"","","","","","choice_trial","survey-html-form","151","517524","0.0-5.0-1.33","164","1","2025-04-14 14:22:45","bb671e3ae32f654b8954ea4c4635f915","","Mozilla/5.0 (Windows NT 11.0; Win64; x64) AppleWebKit/537.36 (KHTML, like Gecko) Chrome/130.0.0.0 Safari/537.36","WebKit","Chrome","130.0.0.0","Windows","11.0","https://hz8g1ckzuq.cognition.run/","en,en-US;q=0.9","bnslu6uqlcfojh7","42","[""White""]","No","Female","917288.099999994","1394","","","{""product_choice"":""A""}","choice","dtc","repulsion_1","1","televisions","null","null","null","null","null","null","2","100","90","100","30","40","25","Screen size","Average lifespan","",""
"","","","","","choice_trial_setup","html-keyboard-response","152","517848","0.0-5.0-0.34","164","1","2025-04-14 14:22:45","bb671e3ae32f654b8954ea4c4635f915","","Mozilla/5.0 (Windows NT 11.0; Win64; x64) AppleWebKit/537.36 (KHTML, like Gecko) Chrome/130.0.0.0 Safari/537.36","WebKit","Chrome","130.0.0.0","Windows","11.0","https://hz8g1ckzuq.cognition.run/","en,en-US;q=0.9","bnslu6uqlcfojh7","42","[""White""]","No","Female","917288.099999994","null","","<p></p>","null","choice","ctd","attraction_2","2","laptops","null","null","null","null","null","null","2","","","","","","","","","",""
"","","","","","choice_trial","survey-html-form","153","519563","0.0-5.0-1.34","164","1","2025-04-14 14:22:45","bb671e3ae32f654b8954ea4c4635f915","","Mozilla/5.0 (Windows NT 11.0; Win64; x64) AppleWebKit/537.36 (KHTML, like Gecko) Chrome/130.0.0.0 Safari/537.36","WebKit","Chrome","130.0.0.0","Windows","11.0","https://hz8g1ckzuq.cognition.run/","en,en-US;q=0.9","bnslu6uqlcfojh7","42","[""White""]","No","Female","917288.099999994","1690","","","{""product_choice"":""C""}","choice","ctd","attraction_2","2","laptops","null","null","null","null","null","null","2","50","60","40","60","50","60","Processing speed","Memory (RAM)","",""
"","","","","","choice_trial_setup","html-keyboard-response","154","519907","0.0-5.0-0.35","164","1","2025-04-14 14:22:45","bb671e3ae32f654b8954ea4c4635f915","","Mozilla/5.0 (Windows NT 11.0; Win64; x64) AppleWebKit/537.36 (KHTML, like Gecko) Chrome/130.0.0.0 Safari/537.36","WebKit","Chrome","130.0.0.0","Windows","11.0","https://hz8g1ckzuq.cognition.run/","en,en-US;q=0.9","bnslu6uqlcfojh7","42","[""White""]","No","Female","917288.099999994","null","","<p></p>","null","choice","tdc","attraction_1","1","microwave ovens","null","null","null","null","null","null","2","","","","","","","","","",""
"","","","","","choice_trial","survey-html-form","155","521543","0.0-5.0-1.35","164","1","2025-04-14 14:22:45","bb671e3ae32f654b8954ea4c4635f915","","Mozilla/5.0 (Windows NT 11.0; Win64; x64) AppleWebKit/537.36 (KHTML, like Gecko) Chrome/130.0.0.0 Safari/537.36","WebKit","Chrome","130.0.0.0","Windows","11.0","https://hz8g1ckzuq.cognition.run/","en,en-US;q=0.9","bnslu6uqlcfojh7","42","[""White""]","No","Female","917288.099999994","1613","","","{""product_choice"":""B""}","choice","tdc","attraction_1","1","microwave ovens","null","null","null","null","null","null","2","60","50","60","50","60","45","Warranty","Cooking power","",""
"","","","","","choice_trial_setup","html-keyboard-response","156","521873","0.0-5.0-0.36","164","1","2025-04-14 14:22:45","bb671e3ae32f654b8954ea4c4635f915","","Mozilla/5.0 (Windows NT 11.0; Win64; x64) AppleWebKit/537.36 (KHTML, like Gecko) Chrome/130.0.0.0 Safari/537.36","WebKit","Chrome","130.0.0.0","Windows","11.0","https://hz8g1ckzuq.cognition.run/","en,en-US;q=0.9","bnslu6uqlcfojh7","42","[""White""]","No","Female","917288.099999994","null","","<p></p>","null","choice","wwb","catch","null","washing machines","65","85","30","10","50","40","1","","","","","","","","","",""
"","","","","","choice_trial","survey-html-form","157","524833","0.0-5.0-1.36","164","1","2025-04-14 14:22:45","bb671e3ae32f654b8954ea4c4635f915","","Mozilla/5.0 (Windows NT 11.0; Win64; x64) AppleWebKit/537.36 (KHTML, like Gecko) Chrome/130.0.0.0 Safari/537.36","WebKit","Chrome","130.0.0.0","Windows","11.0","https://hz8g1ckzuq.cognition.run/","en,en-US;q=0.9","bnslu6uqlcfojh7","42","[""White""]","No","Female","917288.099999994","2933","","","{""product_choice"":""B""}","choice","wwb","catch","null","washing machines","65","85","30","10","50","40","1","null","null","null","null","null","null","Average lifespan","Energy savings","",""
