"success","timeout","failed_images","failed_audio","failed_video","screen_id","trial_type","trial_index","time_elapsed","internal_node_id","run_id","condition","recorded_at","source_code_version","ip","user_agent","device","browser","browser_version","platform","platform_version","referer","accept_language","ppt_id","age","race","ethnicity","gender","exp_duration","rt","view_history","stimulus","response","phase","order","effect","t_high","category","d1_best","d2_best","d1_worst1","d2_worst1","d1_worst2","d2_worst2","first_dim","d1_t","d1_c","d1_d","d2_t","d2_c","d2_d","d1_name","d2_name","strategy_response","question_order"
"true","false","[]","[]","[]","img preload","preload","0","475","0.0-0.0","166","1","2025-04-14 14:23:26","bb671e3ae32f654b8954ea4c4635f915","","Mozilla/5.0 (Macintosh; Intel Mac OS X 10_15_7) AppleWebKit/605.1.15 (KHTML, like Gecko) Version/18.3.1 Safari/605.1.15","Macintosh","Safari","18.3.1","OS X","10_15_7","https://hz8g1ckzuq.cognition.run/","en-US,en;q=0.9","7vun7gswvna313j","21","[""Asian"",""Black or African-American"",""White""]","Yes","Male","1098895","","","","","","","","","","","","","","","","","","","","","","","","","",""
"true","","","","","","fullscreen","1","2854","0.0-1.0","166","1","2025-04-14 14:23:26","bb671e3ae32f654b8954ea4c4635f915","","Mozilla/5.0 (Macintosh; Intel Mac OS X 10_15_7) AppleWebKit/605.1.15 (KHTML, like Gecko) Version/18.3.1 Safari/605.1.15","Macintosh","Safari","18.3.1","OS X","10_15_7","https://hz8g1ckzuq.cognition.run/","en-US,en;q=0.9","7vun7gswvna313j","21","[""Asian"",""Black or African-American"",""White""]","Yes","Male","1098895","1375","","","","","","","","","","","","","","","","","","","","","","","","",""
"","","","","","","instructions","2","81125","0.0-2.0","166","1","2025-04-14 14:23:26","bb671e3ae32f654b8954ea4c4635f915","","Mozilla/5.0 (Macintosh; Intel Mac OS X 10_15_7) AppleWebKit/605.1.15 (KHTML, like Gecko) Version/18.3.1 Safari/605.1.15","Macintosh","Safari","18.3.1","OS X","10_15_7","https://hz8g1ckzuq.cognition.run/","en-US,en;q=0.9","7vun7gswvna313j","21","[""Asian"",""Black or African-American"",""White""]","Yes","Male","1098895","78269","[{""page_index"":0,""viewing_time"":1206},{""page_index"":1,""viewing_time"":2932},{""page_index"":2,""viewing_time"":3729},{""page_index"":3,""viewing_time"":4861},{""page_index"":4,""viewing_time"":5592},{""page_index"":5,""viewing_time"":7107},{""page_index"":6,""viewing_time"":4544},{""page_index"":7,""viewing_time"":27794},{""page_index"":8,""viewing_time"":17366},{""page_index"":9,""viewing_time"":3138}]","","","","","","","","","","","","","","","","","","","","","","","",""
"","","","","","rating_trial_setup","html-keyboard-response","3","81430","0.0-3.0-0.0","166","1","2025-04-14 14:23:26","bb671e3ae32f654b8954ea4c4635f915","","Mozilla/5.0 (Macintosh; Intel Mac OS X 10_15_7) AppleWebKit/605.1.15 (KHTML, like Gecko) Version/18.3.1 Safari/605.1.15","Macintosh","Safari","18.3.1","OS X","10_15_7","https://hz8g1ckzuq.cognition.run/","en-US,en;q=0.9","7vun7gswvna313j","21","[""Asian"",""Black or African-American"",""White""]","Yes","Male","1098895","null","","<p></p>","null","rating","cdt","repulsion_2","2","televisions","null","null","null","null","null","null","1","","","","","","","","","",""
"","","","","","rating_trial","survey-html-form","4","101722","0.0-3.0-1.0","166","1","2025-04-14 14:23:26","bb671e3ae32f654b8954ea4c4635f915","","Mozilla/5.0 (Macintosh; Intel Mac OS X 10_15_7) AppleWebKit/605.1.15 (KHTML, like Gecko) Version/18.3.1 Safari/605.1.15","Macintosh","Safari","18.3.1","OS X","10_15_7","https://hz8g1ckzuq.cognition.run/","en-US,en;q=0.9","7vun7gswvna313j","21","[""Asian"",""Black or African-American"",""White""]","Yes","Male","1098895","20281","","","{""price_1"":""350"",""price_2"":""300"",""price_3"":""330""}","rating","cdt","repulsion_2","2","televisions","null","null","null","null","null","null","1","30","40","20","100","90","100","Screen size","Average lifespan","",""
"","","","","","rating_trial_setup","html-keyboard-response","5","102026","0.0-3.0-0.1","166","1","2025-04-14 14:23:26","bb671e3ae32f654b8954ea4c4635f915","","Mozilla/5.0 (Macintosh; Intel Mac OS X 10_15_7) AppleWebKit/605.1.15 (KHTML, like Gecko) Version/18.3.1 Safari/605.1.15","Macintosh","Safari","18.3.1","OS X","10_15_7","https://hz8g1ckzuq.cognition.run/","en-US,en;q=0.9","7vun7gswvna313j","21","[""Asian"",""Black or African-American"",""White""]","Yes","Male","1098895","null","","<p></p>","null","rating","tdc","repulsion_1","2","washing machines","null","null","null","null","null","null","2","","","","","","","","","",""
"","","","","","rating_trial","survey-html-form","6","120542","0.0-3.0-1.1","166","1","2025-04-14 14:23:26","bb671e3ae32f654b8954ea4c4635f915","","Mozilla/5.0 (Macintosh; Intel Mac OS X 10_15_7) AppleWebKit/605.1.15 (KHTML, like Gecko) Version/18.3.1 Safari/605.1.15","Macintosh","Safari","18.3.1","OS X","10_15_7","https://hz8g1ckzuq.cognition.run/","en-US,en;q=0.9","7vun7gswvna313j","21","[""Asian"",""Black or African-American"",""White""]","Yes","Male","1098895","18506","","","{""price_1"":""400"",""price_2"":""375"",""price_3"":""450""}","rating","tdc","repulsion_1","2","washing machines","null","null","null","null","null","null","2","30","40","25","100","90","100","Average lifespan","Energy savings","",""
"","","","","","rating_trial_setup","html-keyboard-response","7","120845","0.0-3.0-0.2","166","1","2025-04-14 14:23:26","bb671e3ae32f654b8954ea4c4635f915","","Mozilla/5.0 (Macintosh; Intel Mac OS X 10_15_7) AppleWebKit/605.1.15 (KHTML, like Gecko) Version/18.3.1 Safari/605.1.15","Macintosh","Safari","18.3.1","OS X","10_15_7","https://hz8g1ckzuq.cognition.run/","en-US,en;q=0.9","7vun7gswvna313j","21","[""Asian"",""Black or African-American"",""White""]","Yes","Male","1098895","null","","<p></p>","null","rating","ctd","repulsion_1","1","microwave ovens","null","null","null","null","null","null","1","","","","","","","","","",""
"","","","","","rating_trial","survey-html-form","8","149151","0.0-3.0-1.2","166","1","2025-04-14 14:23:26","bb671e3ae32f654b8954ea4c4635f915","","Mozilla/5.0 (Macintosh; Intel Mac OS X 10_15_7) AppleWebKit/605.1.15 (KHTML, like Gecko) Version/18.3.1 Safari/605.1.15","Macintosh","Safari","18.3.1","OS X","10_15_7","https://hz8g1ckzuq.cognition.run/","en-US,en;q=0.9","7vun7gswvna313j","21","[""Asian"",""Black or African-American"",""White""]","Yes","Male","1098895","28297","","","{""price_1"":""150"",""price_2"":""130"",""price_3"":""135""}","rating","ctd","repulsion_1","1","microwave ovens","null","null","null","null","null","null","1","100","90","100","30","40","25","Warranty","Cooking power","",""
"","","","","","rating_trial_setup","html-keyboard-response","9","149454","0.0-3.0-0.3","166","1","2025-04-14 14:23:26","bb671e3ae32f654b8954ea4c4635f915","","Mozilla/5.0 (Macintosh; Intel Mac OS X 10_15_7) AppleWebKit/605.1.15 (KHTML, like Gecko) Version/18.3.1 Safari/605.1.15","Macintosh","Safari","18.3.1","OS X","10_15_7","https://hz8g1ckzuq.cognition.run/","en-US,en;q=0.9","7vun7gswvna313j","21","[""Asian"",""Black or African-American"",""White""]","Yes","Male","1098895","null","","<p></p>","null","rating","cdt","repulsion_2","1","televisions","null","null","null","null","null","null","1","","","","","","","","","",""
"","","","","","rating_trial","survey-html-form","10","176442","0.0-3.0-1.3","166","1","2025-04-14 14:23:26","bb671e3ae32f654b8954ea4c4635f915","","Mozilla/5.0 (Macintosh; Intel Mac OS X 10_15_7) AppleWebKit/605.1.15 (KHTML, like Gecko) Version/18.3.1 Safari/605.1.15","Macintosh","Safari","18.3.1","OS X","10_15_7","https://hz8g1ckzuq.cognition.run/","en-US,en;q=0.9","7vun7gswvna313j","21","[""Asian"",""Black or African-American"",""White""]","Yes","Male","1098895","26983","","","{""price_1"":""350"",""price_2"":""330"",""price_3"":""340""}","rating","cdt","repulsion_2","1","televisions","null","null","null","null","null","null","1","100","90","100","30","40","20","Screen size","Average lifespan","",""
"","","","","","rating_trial_setup","html-keyboard-response","11","176745","0.0-3.0-0.4","166","1","2025-04-14 14:23:26","bb671e3ae32f654b8954ea4c4635f915","","Mozilla/5.0 (Macintosh; Intel Mac OS X 10_15_7) AppleWebKit/605.1.15 (KHTML, like Gecko) Version/18.3.1 Safari/605.1.15","Macintosh","Safari","18.3.1","OS X","10_15_7","https://hz8g1ckzuq.cognition.run/","en-US,en;q=0.9","7vun7gswvna313j","21","[""Asian"",""Black or African-American"",""White""]","Yes","Male","1098895","null","","<p></p>","null","rating","dct","repulsion_2","1","laptops","null","null","null","null","null","null","1","","","","","","","","","",""
"","","","","","rating_trial","survey-html-form","12","200043","0.0-3.0-1.4","166","1","2025-04-14 14:23:26","bb671e3ae32f654b8954ea4c4635f915","","Mozilla/5.0 (Macintosh; Intel Mac OS X 10_15_7) AppleWebKit/605.1.15 (KHTML, like Gecko) Version/18.3.1 Safari/605.1.15","Macintosh","Safari","18.3.1","OS X","10_15_7","https://hz8g1ckzuq.cognition.run/","en-US,en;q=0.9","7vun7gswvna313j","21","[""Asian"",""Black or African-American"",""White""]","Yes","Male","1098895","23288","","","{""price_1"":""220"",""price_2"":""250"",""price_3"":""240""}","rating","dct","repulsion_2","1","laptops","null","null","null","null","null","null","1","100","90","100","30","40","20","Processing speed","Memory (RAM)","",""
"","","","","","rating_trial_setup","html-keyboard-response","13","200347","0.0-3.0-0.5","166","1","2025-04-14 14:23:26","bb671e3ae32f654b8954ea4c4635f915","","Mozilla/5.0 (Macintosh; Intel Mac OS X 10_15_7) AppleWebKit/605.1.15 (KHTML, like Gecko) Version/18.3.1 Safari/605.1.15","Macintosh","Safari","18.3.1","OS X","10_15_7","https://hz8g1ckzuq.cognition.run/","en-US,en;q=0.9","7vun7gswvna313j","21","[""Asian"",""Black or African-American"",""White""]","Yes","Male","1098895","null","","<p></p>","null","rating","tdc","repulsion_2","1","washing machines","null","null","null","null","null","null","2","","","","","","","","","",""
"","","","","","rating_trial","survey-html-form","14","217214","0.0-3.0-1.5","166","1","2025-04-14 14:23:26","bb671e3ae32f654b8954ea4c4635f915","","Mozilla/5.0 (Macintosh; Intel Mac OS X 10_15_7) AppleWebKit/605.1.15 (KHTML, like Gecko) Version/18.3.1 Safari/605.1.15","Macintosh","Safari","18.3.1","OS X","10_15_7","https://hz8g1ckzuq.cognition.run/","en-US,en;q=0.9","7vun7gswvna313j","21","[""Asian"",""Black or African-American"",""White""]","Yes","Male","1098895","16858","","","{""price_1"":""450"",""price_2"":""430"",""price_3"":""440""}","rating","tdc","repulsion_2","1","washing machines","null","null","null","null","null","null","2","100","90","100","30","40","20","Average lifespan","Energy savings","",""
"","","","","","rating_trial_setup","html-keyboard-response","15","217517","0.0-3.0-0.6","166","1","2025-04-14 14:23:26","bb671e3ae32f654b8954ea4c4635f915","","Mozilla/5.0 (Macintosh; Intel Mac OS X 10_15_7) AppleWebKit/605.1.15 (KHTML, like Gecko) Version/18.3.1 Safari/605.1.15","Macintosh","Safari","18.3.1","OS X","10_15_7","https://hz8g1ckzuq.cognition.run/","en-US,en;q=0.9","7vun7gswvna313j","21","[""Asian"",""Black or African-American"",""White""]","Yes","Male","1098895","null","","<p></p>","null","rating","dtc","repulsion_1","2","televisions","null","null","null","null","null","null","1","","","","","","","","","",""
"","","","","","rating_trial","survey-html-form","16","231161","0.0-3.0-1.6","166","1","2025-04-14 14:23:26","bb671e3ae32f654b8954ea4c4635f915","","Mozilla/5.0 (Macintosh; Intel Mac OS X 10_15_7) AppleWebKit/605.1.15 (KHTML, like Gecko) Version/18.3.1 Safari/605.1.15","Macintosh","Safari","18.3.1","OS X","10_15_7","https://hz8g1ckzuq.cognition.run/","en-US,en;q=0.9","7vun7gswvna313j","21","[""Asian"",""Black or African-American"",""White""]","Yes","Male","1098895","13636","","","{""price_1"":""330"",""price_2"":""350"",""price_3"":""340""}","rating","dtc","repulsion_1","2","televisions","null","null","null","null","null","null","1","30","40","25","100","90","100","Screen size","Average lifespan","",""
"","","","","","rating_trial_setup","html-keyboard-response","17","231464","0.0-3.0-0.7","166","1","2025-04-14 14:23:26","bb671e3ae32f654b8954ea4c4635f915","","Mozilla/5.0 (Macintosh; Intel Mac OS X 10_15_7) AppleWebKit/605.1.15 (KHTML, like Gecko) Version/18.3.1 Safari/605.1.15","Macintosh","Safari","18.3.1","OS X","10_15_7","https://hz8g1ckzuq.cognition.run/","en-US,en;q=0.9","7vun7gswvna313j","21","[""Asian"",""Black or African-American"",""White""]","Yes","Male","1098895","null","","<p></p>","null","rating","dct","repulsion_1","1","televisions","null","null","null","null","null","null","2","","","","","","","","","",""
"","","","","","rating_trial","survey-html-form","18","241944","0.0-3.0-1.7","166","1","2025-04-14 14:23:26","bb671e3ae32f654b8954ea4c4635f915","","Mozilla/5.0 (Macintosh; Intel Mac OS X 10_15_7) AppleWebKit/605.1.15 (KHTML, like Gecko) Version/18.3.1 Safari/605.1.15","Macintosh","Safari","18.3.1","OS X","10_15_7","https://hz8g1ckzuq.cognition.run/","en-US,en;q=0.9","7vun7gswvna313j","21","[""Asian"",""Black or African-American"",""White""]","Yes","Male","1098895","10471","","","{""price_1"":""330"",""price_2"":""350"",""price_3"":""340""}","rating","dct","repulsion_1","1","televisions","null","null","null","null","null","null","2","100","90","100","30","40","25","Screen size","Average lifespan","",""
"","","","","","rating_trial_setup","html-keyboard-response","19","242247","0.0-3.0-0.8","166","1","2025-04-14 14:23:26","bb671e3ae32f654b8954ea4c4635f915","","Mozilla/5.0 (Macintosh; Intel Mac OS X 10_15_7) AppleWebKit/605.1.15 (KHTML, like Gecko) Version/18.3.1 Safari/605.1.15","Macintosh","Safari","18.3.1","OS X","10_15_7","https://hz8g1ckzuq.cognition.run/","en-US,en;q=0.9","7vun7gswvna313j","21","[""Asian"",""Black or African-American"",""White""]","Yes","Male","1098895","null","","<p></p>","null","rating","ctd","attraction_1","2","washing machines","null","null","null","null","null","null","1","","","","","","","","","",""
"","","","","","rating_trial","survey-html-form","20","268570","0.0-3.0-1.8","166","1","2025-04-14 14:23:26","bb671e3ae32f654b8954ea4c4635f915","","Mozilla/5.0 (Macintosh; Intel Mac OS X 10_15_7) AppleWebKit/605.1.15 (KHTML, like Gecko) Version/18.3.1 Safari/605.1.15","Macintosh","Safari","18.3.1","OS X","10_15_7","https://hz8g1ckzuq.cognition.run/","en-US,en;q=0.9","7vun7gswvna313j","21","[""Asian"",""Black or African-American"",""White""]","Yes","Male","1098895","26314","","","{""price_1"":""350"",""price_2"":""340"",""price_3"":""320""}","rating","ctd","attraction_1","2","washing machines","null","null","null","null","null","null","1","50","60","45","60","50","60","Average lifespan","Energy savings","",""
"","","","","","rating_trial_setup","html-keyboard-response","21","268873","0.0-3.0-0.9","166","1","2025-04-14 14:23:26","bb671e3ae32f654b8954ea4c4635f915","","Mozilla/5.0 (Macintosh; Intel Mac OS X 10_15_7) AppleWebKit/605.1.15 (KHTML, like Gecko) Version/18.3.1 Safari/605.1.15","Macintosh","Safari","18.3.1","OS X","10_15_7","https://hz8g1ckzuq.cognition.run/","en-US,en;q=0.9","7vun7gswvna313j","21","[""Asian"",""Black or African-American"",""White""]","Yes","Male","1098895","null","","<p></p>","null","rating","dct","attraction_1","2","microwave ovens","null","null","null","null","null","null","2","","","","","","","","","",""
"","","","","","rating_trial","survey-html-form","22","287856","0.0-3.0-1.9","166","1","2025-04-14 14:23:26","bb671e3ae32f654b8954ea4c4635f915","","Mozilla/5.0 (Macintosh; Intel Mac OS X 10_15_7) AppleWebKit/605.1.15 (KHTML, like Gecko) Version/18.3.1 Safari/605.1.15","Macintosh","Safari","18.3.1","OS X","10_15_7","https://hz8g1ckzuq.cognition.run/","en-US,en;q=0.9","7vun7gswvna313j","21","[""Asian"",""Black or African-American"",""White""]","Yes","Male","1098895","18974","","","{""price_1"":""110"",""price_2"":""120"",""price_3"":""125""}","rating","dct","attraction_1","2","microwave ovens","null","null","null","null","null","null","2","50","60","45","60","50","60","Warranty","Cooking power","",""
"","","","","","rating_trial_setup","html-keyboard-response","23","288160","0.0-3.0-0.10","166","1","2025-04-14 14:23:26","bb671e3ae32f654b8954ea4c4635f915","","Mozilla/5.0 (Macintosh; Intel Mac OS X 10_15_7) AppleWebKit/605.1.15 (KHTML, like Gecko) Version/18.3.1 Safari/605.1.15","Macintosh","Safari","18.3.1","OS X","10_15_7","https://hz8g1ckzuq.cognition.run/","en-US,en;q=0.9","7vun7gswvna313j","21","[""Asian"",""Black or African-American"",""White""]","Yes","Male","1098895","null","","<p></p>","null","rating","dtc","attraction_2","2","washing machines","null","null","null","null","null","null","2","","","","","","","","","",""
"","","","","","rating_trial","survey-html-form","24","311356","0.0-3.0-1.10","166","1","2025-04-14 14:23:26","bb671e3ae32f654b8954ea4c4635f915","","Mozilla/5.0 (Macintosh; Intel Mac OS X 10_15_7) AppleWebKit/605.1.15 (KHTML, like Gecko) Version/18.3.1 Safari/605.1.15","Macintosh","Safari","18.3.1","OS X","10_15_7","https://hz8g1ckzuq.cognition.run/","en-US,en;q=0.9","7vun7gswvna313j","21","[""Asian"",""Black or African-American"",""White""]","Yes","Male","1098895","23187","","","{""price_1"":""330"",""price_2"":""350"",""price_3"":""340""}","rating","dtc","attraction_2","2","washing machines","null","null","null","null","null","null","2","50","60","40","60","50","60","Average lifespan","Energy savings","",""
"","","","","","rating_trial_setup","html-keyboard-response","25","311659","0.0-3.0-0.11","166","1","2025-04-14 14:23:26","bb671e3ae32f654b8954ea4c4635f915","","Mozilla/5.0 (Macintosh; Intel Mac OS X 10_15_7) AppleWebKit/605.1.15 (KHTML, like Gecko) Version/18.3.1 Safari/605.1.15","Macintosh","Safari","18.3.1","OS X","10_15_7","https://hz8g1ckzuq.cognition.run/","en-US,en;q=0.9","7vun7gswvna313j","21","[""Asian"",""Black or African-American"",""White""]","Yes","Male","1098895","null","","<p></p>","null","rating","ctd","attraction_2","1","televisions","null","null","null","null","null","null","1","","","","","","","","","",""
"","","","","","rating_trial","survey-html-form","26","325319","0.0-3.0-1.11","166","1","2025-04-14 14:23:26","bb671e3ae32f654b8954ea4c4635f915","","Mozilla/5.0 (Macintosh; Intel Mac OS X 10_15_7) AppleWebKit/605.1.15 (KHTML, like Gecko) Version/18.3.1 Safari/605.1.15","Macintosh","Safari","18.3.1","OS X","10_15_7","https://hz8g1ckzuq.cognition.run/","en-US,en;q=0.9","7vun7gswvna313j","21","[""Asian"",""Black or African-American"",""White""]","Yes","Male","1098895","13651","","","{""price_1"":""280"",""price_2"":""300"",""price_3"":""270""}","rating","ctd","attraction_2","1","televisions","null","null","null","null","null","null","1","60","50","60","50","60","40","Screen size","Average lifespan","",""
"","","","","","rating_trial_setup","html-keyboard-response","27","325622","0.0-3.0-0.12","166","1","2025-04-14 14:23:26","bb671e3ae32f654b8954ea4c4635f915","","Mozilla/5.0 (Macintosh; Intel Mac OS X 10_15_7) AppleWebKit/605.1.15 (KHTML, like Gecko) Version/18.3.1 Safari/605.1.15","Macintosh","Safari","18.3.1","OS X","10_15_7","https://hz8g1ckzuq.cognition.run/","en-US,en;q=0.9","7vun7gswvna313j","21","[""Asian"",""Black or African-American"",""White""]","Yes","Male","1098895","null","","<p></p>","null","rating","tcd","attraction_1","1","washing machines","null","null","null","null","null","null","1","","","","","","","","","",""
"","","","","","rating_trial","survey-html-form","28","338368","0.0-3.0-1.12","166","1","2025-04-14 14:23:26","bb671e3ae32f654b8954ea4c4635f915","","Mozilla/5.0 (Macintosh; Intel Mac OS X 10_15_7) AppleWebKit/605.1.15 (KHTML, like Gecko) Version/18.3.1 Safari/605.1.15","Macintosh","Safari","18.3.1","OS X","10_15_7","https://hz8g1ckzuq.cognition.run/","en-US,en;q=0.9","7vun7gswvna313j","21","[""Asian"",""Black or African-American"",""White""]","Yes","Male","1098895","12736","","","{""price_1"":""350"",""price_2"":""340"",""price_3"":""330""}","rating","tcd","attraction_1","1","washing machines","null","null","null","null","null","null","1","60","50","60","50","60","45","Average lifespan","Energy savings","",""
"","","","","","rating_trial_setup","html-keyboard-response","29","338672","0.0-3.0-0.13","166","1","2025-04-14 14:23:26","bb671e3ae32f654b8954ea4c4635f915","","Mozilla/5.0 (Macintosh; Intel Mac OS X 10_15_7) AppleWebKit/605.1.15 (KHTML, like Gecko) Version/18.3.1 Safari/605.1.15","Macintosh","Safari","18.3.1","OS X","10_15_7","https://hz8g1ckzuq.cognition.run/","en-US,en;q=0.9","7vun7gswvna313j","21","[""Asian"",""Black or African-American"",""White""]","Yes","Male","1098895","null","","<p></p>","null","rating","bww","catch","null","laptops","95","95","5","50","45","45","1","","","","","","","","","",""
"","","","","","rating_trial","survey-html-form","30","358255","0.0-3.0-1.13","166","1","2025-04-14 14:23:26","bb671e3ae32f654b8954ea4c4635f915","","Mozilla/5.0 (Macintosh; Intel Mac OS X 10_15_7) AppleWebKit/605.1.15 (KHTML, like Gecko) Version/18.3.1 Safari/605.1.15","Macintosh","Safari","18.3.1","OS X","10_15_7","https://hz8g1ckzuq.cognition.run/","en-US,en;q=0.9","7vun7gswvna313j","21","[""Asian"",""Black or African-American"",""White""]","Yes","Male","1098895","19574","","","{""price_1"":""275"",""price_2"":""120"",""price_3"":""180""}","rating","bww","catch","null","laptops","95","95","5","50","45","45","1","null","null","null","null","null","null","Processing speed","Memory (RAM)","",""
"","","","","","rating_trial_setup","html-keyboard-response","31","358558","0.0-3.0-0.14","166","1","2025-04-14 14:23:26","bb671e3ae32f654b8954ea4c4635f915","","Mozilla/5.0 (Macintosh; Intel Mac OS X 10_15_7) AppleWebKit/605.1.15 (KHTML, like Gecko) Version/18.3.1 Safari/605.1.15","Macintosh","Safari","18.3.1","OS X","10_15_7","https://hz8g1ckzuq.cognition.run/","en-US,en;q=0.9","7vun7gswvna313j","21","[""Asian"",""Black or African-American"",""White""]","Yes","Male","1098895","null","","<p></p>","null","rating","tdc","repulsion_2","1","microwave ovens","null","null","null","null","null","null","2","","","","","","","","","",""
"","","","","","rating_trial","survey-html-form","32","375366","0.0-3.0-1.14","166","1","2025-04-14 14:23:26","bb671e3ae32f654b8954ea4c4635f915","","Mozilla/5.0 (Macintosh; Intel Mac OS X 10_15_7) AppleWebKit/605.1.15 (KHTML, like Gecko) Version/18.3.1 Safari/605.1.15","Macintosh","Safari","18.3.1","OS X","10_15_7","https://hz8g1ckzuq.cognition.run/","en-US,en;q=0.9","7vun7gswvna313j","21","[""Asian"",""Black or African-American"",""White""]","Yes","Male","1098895","16804","","","{""price_1"":""120"",""price_2"":""110"",""price_3"":""125""}","rating","tdc","repulsion_2","1","microwave ovens","null","null","null","null","null","null","2","100","90","100","30","40","20","Warranty","Cooking power","",""
"","","","","","rating_trial_setup","html-keyboard-response","33","375670","0.0-3.0-0.15","166","1","2025-04-14 14:23:26","bb671e3ae32f654b8954ea4c4635f915","","Mozilla/5.0 (Macintosh; Intel Mac OS X 10_15_7) AppleWebKit/605.1.15 (KHTML, like Gecko) Version/18.3.1 Safari/605.1.15","Macintosh","Safari","18.3.1","OS X","10_15_7","https://hz8g1ckzuq.cognition.run/","en-US,en;q=0.9","7vun7gswvna313j","21","[""Asian"",""Black or African-American"",""White""]","Yes","Male","1098895","null","","<p></p>","null","rating","cdt","attraction_1","2","laptops","null","null","null","null","null","null","1","","","","","","","","","",""
"","","","","","rating_trial","survey-html-form","34","395303","0.0-3.0-1.15","166","1","2025-04-14 14:23:26","bb671e3ae32f654b8954ea4c4635f915","","Mozilla/5.0 (Macintosh; Intel Mac OS X 10_15_7) AppleWebKit/605.1.15 (KHTML, like Gecko) Version/18.3.1 Safari/605.1.15","Macintosh","Safari","18.3.1","OS X","10_15_7","https://hz8g1ckzuq.cognition.run/","en-US,en;q=0.9","7vun7gswvna313j","21","[""Asian"",""Black or African-American"",""White""]","Yes","Male","1098895","19607","","","{""price_1"":""190"",""price_2"":""175"",""price_3"":""200""}","rating","cdt","attraction_1","2","laptops","null","null","null","null","null","null","1","50","60","45","60","50","60","Processing speed","Memory (RAM)","",""
"","","","","","rating_trial_setup","html-keyboard-response","35","395607","0.0-3.0-0.16","166","1","2025-04-14 14:23:26","bb671e3ae32f654b8954ea4c4635f915","","Mozilla/5.0 (Macintosh; Intel Mac OS X 10_15_7) AppleWebKit/605.1.15 (KHTML, like Gecko) Version/18.3.1 Safari/605.1.15","Macintosh","Safari","18.3.1","OS X","10_15_7","https://hz8g1ckzuq.cognition.run/","en-US,en;q=0.9","7vun7gswvna313j","21","[""Asian"",""Black or African-American"",""White""]","Yes","Male","1098895","null","","<p></p>","null","rating","ctd","attraction_2","1","washing machines","null","null","null","null","null","null","1","","","","","","","","","",""
"","","","","","rating_trial","survey-html-form","36","419254","0.0-3.0-1.16","166","1","2025-04-14 14:23:26","bb671e3ae32f654b8954ea4c4635f915","","Mozilla/5.0 (Macintosh; Intel Mac OS X 10_15_7) AppleWebKit/605.1.15 (KHTML, like Gecko) Version/18.3.1 Safari/605.1.15","Macintosh","Safari","18.3.1","OS X","10_15_7","https://hz8g1ckzuq.cognition.run/","en-US,en;q=0.9","7vun7gswvna313j","21","[""Asian"",""Black or African-American"",""White""]","Yes","Male","1098895","23612","","","{""price_1"":""390"",""price_2"":""400"",""price_3"":""375""}","rating","ctd","attraction_2","1","washing machines","null","null","null","null","null","null","1","60","50","60","50","60","40","Average lifespan","Energy savings","",""
"","","","","","rating_trial_setup","html-keyboard-response","37","419559","0.0-3.0-0.17","166","1","2025-04-14 14:23:26","bb671e3ae32f654b8954ea4c4635f915","","Mozilla/5.0 (Macintosh; Intel Mac OS X 10_15_7) AppleWebKit/605.1.15 (KHTML, like Gecko) Version/18.3.1 Safari/605.1.15","Macintosh","Safari","18.3.1","OS X","10_15_7","https://hz8g1ckzuq.cognition.run/","en-US,en;q=0.9","7vun7gswvna313j","21","[""Asian"",""Black or African-American"",""White""]","Yes","Male","1098895","null","","<p></p>","null","rating","ctd","repulsion_1","1","washing machines","null","null","null","null","null","null","2","","","","","","","","","",""
"","","","","","rating_trial","survey-html-form","38","437610","0.0-3.0-1.17","166","1","2025-04-14 14:23:26","bb671e3ae32f654b8954ea4c4635f915","","Mozilla/5.0 (Macintosh; Intel Mac OS X 10_15_7) AppleWebKit/605.1.15 (KHTML, like Gecko) Version/18.3.1 Safari/605.1.15","Macintosh","Safari","18.3.1","OS X","10_15_7","https://hz8g1ckzuq.cognition.run/","en-US,en;q=0.9","7vun7gswvna313j","21","[""Asian"",""Black or African-American"",""White""]","Yes","Male","1098895","18038","","","{""price_1"":""400"",""price_2"":""390"",""price_3"":""380""}","rating","ctd","repulsion_1","1","washing machines","null","null","null","null","null","null","2","100","90","100","30","40","25","Average lifespan","Energy savings","",""
"","","","","","rating_trial_setup","html-keyboard-response","39","437914","0.0-3.0-0.18","166","1","2025-04-14 14:23:26","bb671e3ae32f654b8954ea4c4635f915","","Mozilla/5.0 (Macintosh; Intel Mac OS X 10_15_7) AppleWebKit/605.1.15 (KHTML, like Gecko) Version/18.3.1 Safari/605.1.15","Macintosh","Safari","18.3.1","OS X","10_15_7","https://hz8g1ckzuq.cognition.run/","en-US,en;q=0.9","7vun7gswvna313j","21","[""Asian"",""Black or African-American"",""White""]","Yes","Male","1098895","null","","<p></p>","null","rating","bww","catch","null","televisions","85","70","10","45","25","15","2","","","","","","","","","",""
"","","","","","rating_trial","survey-html-form","40","460214","0.0-3.0-1.18","166","1","2025-04-14 14:23:26","bb671e3ae32f654b8954ea4c4635f915","","Mozilla/5.0 (Macintosh; Intel Mac OS X 10_15_7) AppleWebKit/605.1.15 (KHTML, like Gecko) Version/18.3.1 Safari/605.1.15","Macintosh","Safari","18.3.1","OS X","10_15_7","https://hz8g1ckzuq.cognition.run/","en-US,en;q=0.9","7vun7gswvna313j","21","[""Asian"",""Black or African-American"",""White""]","Yes","Male","1098895","22289","","","{""price_1"":""400"",""price_2"":""200"",""price_3"":""125""}","rating","bww","catch","null","televisions","85","70","10","45","25","15","2","null","null","null","null","null","null","Screen size","Average lifespan","",""
"","","","","","rating_trial_setup","html-keyboard-response","41","460519","0.0-3.0-0.19","166","1","2025-04-14 14:23:26","bb671e3ae32f654b8954ea4c4635f915","","Mozilla/5.0 (Macintosh; Intel Mac OS X 10_15_7) AppleWebKit/605.1.15 (KHTML, like Gecko) Version/18.3.1 Safari/605.1.15","Macintosh","Safari","18.3.1","OS X","10_15_7","https://hz8g1ckzuq.cognition.run/","en-US,en;q=0.9","7vun7gswvna313j","21","[""Asian"",""Black or African-American"",""White""]","Yes","Male","1098895","null","","<p></p>","null","rating","cdt","attraction_2","2","televisions","null","null","null","null","null","null","1","","","","","","","","","",""
"","","","","","rating_trial","survey-html-form","42","474043","0.0-3.0-1.19","166","1","2025-04-14 14:23:26","bb671e3ae32f654b8954ea4c4635f915","","Mozilla/5.0 (Macintosh; Intel Mac OS X 10_15_7) AppleWebKit/605.1.15 (KHTML, like Gecko) Version/18.3.1 Safari/605.1.15","Macintosh","Safari","18.3.1","OS X","10_15_7","https://hz8g1ckzuq.cognition.run/","en-US,en;q=0.9","7vun7gswvna313j","21","[""Asian"",""Black or African-American"",""White""]","Yes","Male","1098895","13513","","","{""price_1"":""300"",""price_2"":""280"",""price_3"":""390""}","rating","cdt","attraction_2","2","televisions","null","null","null","null","null","null","1","50","60","40","60","50","60","Screen size","Average lifespan","",""
"","","","","","rating_trial_setup","html-keyboard-response","43","474346","0.0-3.0-0.20","166","1","2025-04-14 14:23:26","bb671e3ae32f654b8954ea4c4635f915","","Mozilla/5.0 (Macintosh; Intel Mac OS X 10_15_7) AppleWebKit/605.1.15 (KHTML, like Gecko) Version/18.3.1 Safari/605.1.15","Macintosh","Safari","18.3.1","OS X","10_15_7","https://hz8g1ckzuq.cognition.run/","en-US,en;q=0.9","7vun7gswvna313j","21","[""Asian"",""Black or African-American"",""White""]","Yes","Male","1098895","null","","<p></p>","null","rating","bww","catch","null","washing machines","75","95","40","45","30","40","1","","","","","","","","","",""
"","","","","","rating_trial","survey-html-form","44","497542","0.0-3.0-1.20","166","1","2025-04-14 14:23:26","bb671e3ae32f654b8954ea4c4635f915","","Mozilla/5.0 (Macintosh; Intel Mac OS X 10_15_7) AppleWebKit/605.1.15 (KHTML, like Gecko) Version/18.3.1 Safari/605.1.15","Macintosh","Safari","18.3.1","OS X","10_15_7","https://hz8g1ckzuq.cognition.run/","en-US,en;q=0.9","7vun7gswvna313j","21","[""Asian"",""Black or African-American"",""White""]","Yes","Male","1098895","23187","","","{""price_1"":""500"",""price_2"":""275"",""price_3"":""260""}","rating","bww","catch","null","washing machines","75","95","40","45","30","40","1","null","null","null","null","null","null","Average lifespan","Energy savings","",""
"","","","","","rating_trial_setup","html-keyboard-response","45","497846","0.0-3.0-0.21","166","1","2025-04-14 14:23:26","bb671e3ae32f654b8954ea4c4635f915","","Mozilla/5.0 (Macintosh; Intel Mac OS X 10_15_7) AppleWebKit/605.1.15 (KHTML, like Gecko) Version/18.3.1 Safari/605.1.15","Macintosh","Safari","18.3.1","OS X","10_15_7","https://hz8g1ckzuq.cognition.run/","en-US,en;q=0.9","7vun7gswvna313j","21","[""Asian"",""Black or African-American"",""White""]","Yes","Male","1098895","null","","<p></p>","null","rating","bww","catch","null","laptops","95","95","50","45","15","45","1","","","","","","","","","",""
"","","","","","rating_trial","survey-html-form","46","522673","0.0-3.0-1.21","166","1","2025-04-14 14:23:26","bb671e3ae32f654b8954ea4c4635f915","","Mozilla/5.0 (Macintosh; Intel Mac OS X 10_15_7) AppleWebKit/605.1.15 (KHTML, like Gecko) Version/18.3.1 Safari/605.1.15","Macintosh","Safari","18.3.1","OS X","10_15_7","https://hz8g1ckzuq.cognition.run/","en-US,en;q=0.9","7vun7gswvna313j","21","[""Asian"",""Black or African-American"",""White""]","Yes","Male","1098895","24815","","","{""price_1"":""450"",""price_2"":""225"",""price_3"":""175""}","rating","bww","catch","null","laptops","95","95","50","45","15","45","1","null","null","null","null","null","null","Processing speed","Memory (RAM)","",""
"","","","","","rating_trial_setup","html-keyboard-response","47","522976","0.0-3.0-0.22","166","1","2025-04-14 14:23:26","bb671e3ae32f654b8954ea4c4635f915","","Mozilla/5.0 (Macintosh; Intel Mac OS X 10_15_7) AppleWebKit/605.1.15 (KHTML, like Gecko) Version/18.3.1 Safari/605.1.15","Macintosh","Safari","18.3.1","OS X","10_15_7","https://hz8g1ckzuq.cognition.run/","en-US,en;q=0.9","7vun7gswvna313j","21","[""Asian"",""Black or African-American"",""White""]","Yes","Male","1098895","null","","<p></p>","null","rating","ctd","attraction_2","2","laptops","null","null","null","null","null","null","1","","","","","","","","","",""
"","","","","","rating_trial","survey-html-form","48","538051","0.0-3.0-1.22","166","1","2025-04-14 14:23:26","bb671e3ae32f654b8954ea4c4635f915","","Mozilla/5.0 (Macintosh; Intel Mac OS X 10_15_7) AppleWebKit/605.1.15 (KHTML, like Gecko) Version/18.3.1 Safari/605.1.15","Macintosh","Safari","18.3.1","OS X","10_15_7","https://hz8g1ckzuq.cognition.run/","en-US,en;q=0.9","7vun7gswvna313j","21","[""Asian"",""Black or African-American"",""White""]","Yes","Male","1098895","15065","","","{""price_1"":""240"",""price_2"":""250"",""price_3"":""230""}","rating","ctd","attraction_2","2","laptops","null","null","null","null","null","null","1","50","60","40","60","50","60","Processing speed","Memory (RAM)","",""
"","","","","","rating_trial_setup","html-keyboard-response","49","538355","0.0-3.0-0.23","166","1","2025-04-14 14:23:26","bb671e3ae32f654b8954ea4c4635f915","","Mozilla/5.0 (Macintosh; Intel Mac OS X 10_15_7) AppleWebKit/605.1.15 (KHTML, like Gecko) Version/18.3.1 Safari/605.1.15","Macintosh","Safari","18.3.1","OS X","10_15_7","https://hz8g1ckzuq.cognition.run/","en-US,en;q=0.9","7vun7gswvna313j","21","[""Asian"",""Black or African-American"",""White""]","Yes","Male","1098895","null","","<p></p>","null","rating","tdc","attraction_2","1","laptops","null","null","null","null","null","null","1","","","","","","","","","",""
"","","","","","rating_trial","survey-html-form","50","548852","0.0-3.0-1.23","166","1","2025-04-14 14:23:26","bb671e3ae32f654b8954ea4c4635f915","","Mozilla/5.0 (Macintosh; Intel Mac OS X 10_15_7) AppleWebKit/605.1.15 (KHTML, like Gecko) Version/18.3.1 Safari/605.1.15","Macintosh","Safari","18.3.1","OS X","10_15_7","https://hz8g1ckzuq.cognition.run/","en-US,en;q=0.9","7vun7gswvna313j","21","[""Asian"",""Black or African-American"",""White""]","Yes","Male","1098895","10491","","","{""price_1"":""240"",""price_2"":""230"",""price_3"":""250""}","rating","tdc","attraction_2","1","laptops","null","null","null","null","null","null","1","60","50","60","50","60","40","Processing speed","Memory (RAM)","",""
"","","","","","rating_trial_setup","html-keyboard-response","51","549156","0.0-3.0-0.24","166","1","2025-04-14 14:23:26","bb671e3ae32f654b8954ea4c4635f915","","Mozilla/5.0 (Macintosh; Intel Mac OS X 10_15_7) AppleWebKit/605.1.15 (KHTML, like Gecko) Version/18.3.1 Safari/605.1.15","Macintosh","Safari","18.3.1","OS X","10_15_7","https://hz8g1ckzuq.cognition.run/","en-US,en;q=0.9","7vun7gswvna313j","21","[""Asian"",""Black or African-American"",""White""]","Yes","Male","1098895","null","","<p></p>","null","rating","cdt","repulsion_2","2","washing machines","null","null","null","null","null","null","2","","","","","","","","","",""
"","","","","","rating_trial","survey-html-form","52","564460","0.0-3.0-1.24","166","1","2025-04-14 14:23:26","bb671e3ae32f654b8954ea4c4635f915","","Mozilla/5.0 (Macintosh; Intel Mac OS X 10_15_7) AppleWebKit/605.1.15 (KHTML, like Gecko) Version/18.3.1 Safari/605.1.15","Macintosh","Safari","18.3.1","OS X","10_15_7","https://hz8g1ckzuq.cognition.run/","en-US,en;q=0.9","7vun7gswvna313j","21","[""Asian"",""Black or African-American"",""White""]","Yes","Male","1098895","15294","","","{""price_1"":""400"",""price_2"":""350"",""price_3"":""380""}","rating","cdt","repulsion_2","2","washing machines","null","null","null","null","null","null","2","30","40","20","100","90","100","Average lifespan","Energy savings","",""
"","","","","","rating_trial_setup","html-keyboard-response","53","564763","0.0-3.0-0.25","166","1","2025-04-14 14:23:26","bb671e3ae32f654b8954ea4c4635f915","","Mozilla/5.0 (Macintosh; Intel Mac OS X 10_15_7) AppleWebKit/605.1.15 (KHTML, like Gecko) Version/18.3.1 Safari/605.1.15","Macintosh","Safari","18.3.1","OS X","10_15_7","https://hz8g1ckzuq.cognition.run/","en-US,en;q=0.9","7vun7gswvna313j","21","[""Asian"",""Black or African-American"",""White""]","Yes","Male","1098895","null","","<p></p>","null","rating","dtc","attraction_1","1","televisions","null","null","null","null","null","null","2","","","","","","","","","",""
"","","","","","rating_trial","survey-html-form","54","579588","0.0-3.0-1.25","166","1","2025-04-14 14:23:26","bb671e3ae32f654b8954ea4c4635f915","","Mozilla/5.0 (Macintosh; Intel Mac OS X 10_15_7) AppleWebKit/605.1.15 (KHTML, like Gecko) Version/18.3.1 Safari/605.1.15","Macintosh","Safari","18.3.1","OS X","10_15_7","https://hz8g1ckzuq.cognition.run/","en-US,en;q=0.9","7vun7gswvna313j","21","[""Asian"",""Black or African-American"",""White""]","Yes","Male","1098895","14815","","","{""price_1"":""330"",""price_2"":""340"",""price_3"":""350""}","rating","dtc","attraction_1","1","televisions","null","null","null","null","null","null","2","60","50","60","50","60","45","Screen size","Average lifespan","",""
"","","","","","rating_trial_setup","html-keyboard-response","55","579892","0.0-3.0-0.26","166","1","2025-04-14 14:23:26","bb671e3ae32f654b8954ea4c4635f915","","Mozilla/5.0 (Macintosh; Intel Mac OS X 10_15_7) AppleWebKit/605.1.15 (KHTML, like Gecko) Version/18.3.1 Safari/605.1.15","Macintosh","Safari","18.3.1","OS X","10_15_7","https://hz8g1ckzuq.cognition.run/","en-US,en;q=0.9","7vun7gswvna313j","21","[""Asian"",""Black or African-American"",""White""]","Yes","Male","1098895","null","","<p></p>","null","rating","wbw","catch","null","microwave ovens","50","95","15","50","15","50","2","","","","","","","","","",""
"","","","","","rating_trial","survey-html-form","56","595382","0.0-3.0-1.26","166","1","2025-04-14 14:23:26","bb671e3ae32f654b8954ea4c4635f915","","Mozilla/5.0 (Macintosh; Intel Mac OS X 10_15_7) AppleWebKit/605.1.15 (KHTML, like Gecko) Version/18.3.1 Safari/605.1.15","Macintosh","Safari","18.3.1","OS X","10_15_7","https://hz8g1ckzuq.cognition.run/","en-US,en;q=0.9","7vun7gswvna313j","21","[""Asian"",""Black or African-American"",""White""]","Yes","Male","1098895","15480","","","{""price_1"":""125"",""price_2"":""180"",""price_3"":""125""}","rating","wbw","catch","null","microwave ovens","50","95","15","50","15","50","2","null","null","null","null","null","null","Warranty","Cooking power","",""
"","","","","","rating_trial_setup","html-keyboard-response","57","595686","0.0-3.0-0.27","166","1","2025-04-14 14:23:26","bb671e3ae32f654b8954ea4c4635f915","","Mozilla/5.0 (Macintosh; Intel Mac OS X 10_15_7) AppleWebKit/605.1.15 (KHTML, like Gecko) Version/18.3.1 Safari/605.1.15","Macintosh","Safari","18.3.1","OS X","10_15_7","https://hz8g1ckzuq.cognition.run/","en-US,en;q=0.9","7vun7gswvna313j","21","[""Asian"",""Black or African-American"",""White""]","Yes","Male","1098895","null","","<p></p>","null","rating","tdc","attraction_1","1","microwave ovens","null","null","null","null","null","null","1","","","","","","","","","",""
"","","","","","rating_trial","survey-html-form","58","613140","0.0-3.0-1.27","166","1","2025-04-14 14:23:26","bb671e3ae32f654b8954ea4c4635f915","","Mozilla/5.0 (Macintosh; Intel Mac OS X 10_15_7) AppleWebKit/605.1.15 (KHTML, like Gecko) Version/18.3.1 Safari/605.1.15","Macintosh","Safari","18.3.1","OS X","10_15_7","https://hz8g1ckzuq.cognition.run/","en-US,en;q=0.9","7vun7gswvna313j","21","[""Asian"",""Black or African-American"",""White""]","Yes","Male","1098895","17443","","","{""price_1"":""140"",""price_2"":""130"",""price_3"":""150""}","rating","tdc","attraction_1","1","microwave ovens","null","null","null","null","null","null","1","60","50","60","50","60","45","Warranty","Cooking power","",""
"","","","","","rating_trial_setup","html-keyboard-response","59","613446","0.0-3.0-0.28","166","1","2025-04-14 14:23:26","bb671e3ae32f654b8954ea4c4635f915","","Mozilla/5.0 (Macintosh; Intel Mac OS X 10_15_7) AppleWebKit/605.1.15 (KHTML, like Gecko) Version/18.3.1 Safari/605.1.15","Macintosh","Safari","18.3.1","OS X","10_15_7","https://hz8g1ckzuq.cognition.run/","en-US,en;q=0.9","7vun7gswvna313j","21","[""Asian"",""Black or African-American"",""White""]","Yes","Male","1098895","null","","<p></p>","null","rating","wbw","catch","null","microwave ovens","55","55","15","35","5","50","1","","","","","","","","","",""
"","","","","","rating_trial","survey-html-form","60","625657","0.0-3.0-1.28","166","1","2025-04-14 14:23:26","bb671e3ae32f654b8954ea4c4635f915","","Mozilla/5.0 (Macintosh; Intel Mac OS X 10_15_7) AppleWebKit/605.1.15 (KHTML, like Gecko) Version/18.3.1 Safari/605.1.15","Macintosh","Safari","18.3.1","OS X","10_15_7","https://hz8g1ckzuq.cognition.run/","en-US,en;q=0.9","7vun7gswvna313j","21","[""Asian"",""Black or African-American"",""White""]","Yes","Male","1098895","12201","","","{""price_1"":""115"",""price_2"":""150"",""price_3"":""100""}","rating","wbw","catch","null","microwave ovens","55","55","15","35","5","50","1","null","null","null","null","null","null","Warranty","Cooking power","",""
"","","","","","rating_trial_setup","html-keyboard-response","61","625962","0.0-3.0-0.29","166","1","2025-04-14 14:23:26","bb671e3ae32f654b8954ea4c4635f915","","Mozilla/5.0 (Macintosh; Intel Mac OS X 10_15_7) AppleWebKit/605.1.15 (KHTML, like Gecko) Version/18.3.1 Safari/605.1.15","Macintosh","Safari","18.3.1","OS X","10_15_7","https://hz8g1ckzuq.cognition.run/","en-US,en;q=0.9","7vun7gswvna313j","21","[""Asian"",""Black or African-American"",""White""]","Yes","Male","1098895","null","","<p></p>","null","rating","tcd","repulsion_2","2","microwave ovens","null","null","null","null","null","null","1","","","","","","","","","",""
"","","","","","rating_trial","survey-html-form","62","643113","0.0-3.0-1.29","166","1","2025-04-14 14:23:26","bb671e3ae32f654b8954ea4c4635f915","","Mozilla/5.0 (Macintosh; Intel Mac OS X 10_15_7) AppleWebKit/605.1.15 (KHTML, like Gecko) Version/18.3.1 Safari/605.1.15","Macintosh","Safari","18.3.1","OS X","10_15_7","https://hz8g1ckzuq.cognition.run/","en-US,en;q=0.9","7vun7gswvna313j","21","[""Asian"",""Black or African-American"",""White""]","Yes","Male","1098895","17141","","","{""price_1"":""160"",""price_2"":""160"",""price_3"":""140""}","rating","tcd","repulsion_2","2","microwave ovens","null","null","null","null","null","null","1","30","40","20","100","90","100","Warranty","Cooking power","",""
"","","","","","rating_trial_setup","html-keyboard-response","63","643417","0.0-3.0-0.30","166","1","2025-04-14 14:23:26","bb671e3ae32f654b8954ea4c4635f915","","Mozilla/5.0 (Macintosh; Intel Mac OS X 10_15_7) AppleWebKit/605.1.15 (KHTML, like Gecko) Version/18.3.1 Safari/605.1.15","Macintosh","Safari","18.3.1","OS X","10_15_7","https://hz8g1ckzuq.cognition.run/","en-US,en;q=0.9","7vun7gswvna313j","21","[""Asian"",""Black or African-American"",""White""]","Yes","Male","1098895","null","","<p></p>","null","rating","tdc","attraction_2","2","microwave ovens","null","null","null","null","null","null","2","","","","","","","","","",""
"","","","","","rating_trial","survey-html-form","64","660526","0.0-3.0-1.30","166","1","2025-04-14 14:23:26","bb671e3ae32f654b8954ea4c4635f915","","Mozilla/5.0 (Macintosh; Intel Mac OS X 10_15_7) AppleWebKit/605.1.15 (KHTML, like Gecko) Version/18.3.1 Safari/605.1.15","Macintosh","Safari","18.3.1","OS X","10_15_7","https://hz8g1ckzuq.cognition.run/","en-US,en;q=0.9","7vun7gswvna313j","21","[""Asian"",""Black or African-American"",""White""]","Yes","Male","1098895","17098","","","{""price_1"":""150"",""price_2"":""130"",""price_3"":""140""}","rating","tdc","attraction_2","2","microwave ovens","null","null","null","null","null","null","2","50","60","40","60","50","60","Warranty","Cooking power","",""
"","","","","","rating_trial_setup","html-keyboard-response","65","660832","0.0-3.0-0.31","166","1","2025-04-14 14:23:26","bb671e3ae32f654b8954ea4c4635f915","","Mozilla/5.0 (Macintosh; Intel Mac OS X 10_15_7) AppleWebKit/605.1.15 (KHTML, like Gecko) Version/18.3.1 Safari/605.1.15","Macintosh","Safari","18.3.1","OS X","10_15_7","https://hz8g1ckzuq.cognition.run/","en-US,en;q=0.9","7vun7gswvna313j","21","[""Asian"",""Black or African-American"",""White""]","Yes","Male","1098895","null","","<p></p>","null","rating","wwb","catch","null","televisions","55","85","45","5","5","15","2","","","","","","","","","",""
"","","","","","rating_trial","survey-html-form","66","676734","0.0-3.0-1.31","166","1","2025-04-14 14:23:26","bb671e3ae32f654b8954ea4c4635f915","","Mozilla/5.0 (Macintosh; Intel Mac OS X 10_15_7) AppleWebKit/605.1.15 (KHTML, like Gecko) Version/18.3.1 Safari/605.1.15","Macintosh","Safari","18.3.1","OS X","10_15_7","https://hz8g1ckzuq.cognition.run/","en-US,en;q=0.9","7vun7gswvna313j","21","[""Asian"",""Black or African-American"",""White""]","Yes","Male","1098895","15891","","","{""price_1"":""150"",""price_2"":""115"",""price_3"":""335""}","rating","wwb","catch","null","televisions","55","85","45","5","5","15","2","null","null","null","null","null","null","Screen size","Average lifespan","",""
"","","","","","rating_trial_setup","html-keyboard-response","67","677039","0.0-3.0-0.32","166","1","2025-04-14 14:23:26","bb671e3ae32f654b8954ea4c4635f915","","Mozilla/5.0 (Macintosh; Intel Mac OS X 10_15_7) AppleWebKit/605.1.15 (KHTML, like Gecko) Version/18.3.1 Safari/605.1.15","Macintosh","Safari","18.3.1","OS X","10_15_7","https://hz8g1ckzuq.cognition.run/","en-US,en;q=0.9","7vun7gswvna313j","21","[""Asian"",""Black or African-American"",""White""]","Yes","Male","1098895","null","","<p></p>","null","rating","ctd","attraction_1","2","televisions","null","null","null","null","null","null","1","","","","","","","","","",""
"","","","","","rating_trial","survey-html-form","68","697237","0.0-3.0-1.32","166","1","2025-04-14 14:23:26","bb671e3ae32f654b8954ea4c4635f915","","Mozilla/5.0 (Macintosh; Intel Mac OS X 10_15_7) AppleWebKit/605.1.15 (KHTML, like Gecko) Version/18.3.1 Safari/605.1.15","Macintosh","Safari","18.3.1","OS X","10_15_7","https://hz8g1ckzuq.cognition.run/","en-US,en;q=0.9","7vun7gswvna313j","21","[""Asian"",""Black or African-American"",""White""]","Yes","Male","1098895","20187","","","{""price_1"":""290"",""price_2"":""300"",""price_3"":""280""}","rating","ctd","attraction_1","2","televisions","null","null","null","null","null","null","1","50","60","45","60","50","60","Screen size","Average lifespan","",""
"","","","","","rating_trial_setup","html-keyboard-response","69","697543","0.0-3.0-0.33","166","1","2025-04-14 14:23:26","bb671e3ae32f654b8954ea4c4635f915","","Mozilla/5.0 (Macintosh; Intel Mac OS X 10_15_7) AppleWebKit/605.1.15 (KHTML, like Gecko) Version/18.3.1 Safari/605.1.15","Macintosh","Safari","18.3.1","OS X","10_15_7","https://hz8g1ckzuq.cognition.run/","en-US,en;q=0.9","7vun7gswvna313j","21","[""Asian"",""Black or African-American"",""White""]","Yes","Male","1098895","null","","<p></p>","null","rating","cdt","repulsion_1","2","microwave ovens","null","null","null","null","null","null","1","","","","","","","","","",""
"","","","","","rating_trial","survey-html-form","70","712467","0.0-3.0-1.33","166","1","2025-04-14 14:23:26","bb671e3ae32f654b8954ea4c4635f915","","Mozilla/5.0 (Macintosh; Intel Mac OS X 10_15_7) AppleWebKit/605.1.15 (KHTML, like Gecko) Version/18.3.1 Safari/605.1.15","Macintosh","Safari","18.3.1","OS X","10_15_7","https://hz8g1ckzuq.cognition.run/","en-US,en;q=0.9","7vun7gswvna313j","21","[""Asian"",""Black or African-American"",""White""]","Yes","Male","1098895","14913","","","{""price_1"":""170"",""price_2"":""160"",""price_3"":""170""}","rating","cdt","repulsion_1","2","microwave ovens","null","null","null","null","null","null","1","30","40","25","100","90","100","Warranty","Cooking power","",""
"","","","","","rating_trial_setup","html-keyboard-response","71","712771","0.0-3.0-0.34","166","1","2025-04-14 14:23:26","bb671e3ae32f654b8954ea4c4635f915","","Mozilla/5.0 (Macintosh; Intel Mac OS X 10_15_7) AppleWebKit/605.1.15 (KHTML, like Gecko) Version/18.3.1 Safari/605.1.15","Macintosh","Safari","18.3.1","OS X","10_15_7","https://hz8g1ckzuq.cognition.run/","en-US,en;q=0.9","7vun7gswvna313j","21","[""Asian"",""Black or African-American"",""White""]","Yes","Male","1098895","null","","<p></p>","null","rating","wbw","catch","null","washing machines","70","90","20","15","50","30","1","","","","","","","","","",""
"","","","","","rating_trial","survey-html-form","72","724814","0.0-3.0-1.34","166","1","2025-04-14 14:23:26","bb671e3ae32f654b8954ea4c4635f915","","Mozilla/5.0 (Macintosh; Intel Mac OS X 10_15_7) AppleWebKit/605.1.15 (KHTML, like Gecko) Version/18.3.1 Safari/605.1.15","Macintosh","Safari","18.3.1","OS X","10_15_7","https://hz8g1ckzuq.cognition.run/","en-US,en;q=0.9","7vun7gswvna313j","21","[""Asian"",""Black or African-American"",""White""]","Yes","Male","1098895","12032","","","{""price_1"":""180"",""price_2"":""400"",""price_3"":""350""}","rating","wbw","catch","null","washing machines","70","90","20","15","50","30","1","null","null","null","null","null","null","Average lifespan","Energy savings","",""
"","","","","","rating_trial_setup","html-keyboard-response","73","725118","0.0-3.0-0.35","166","1","2025-04-14 14:23:26","bb671e3ae32f654b8954ea4c4635f915","","Mozilla/5.0 (Macintosh; Intel Mac OS X 10_15_7) AppleWebKit/605.1.15 (KHTML, like Gecko) Version/18.3.1 Safari/605.1.15","Macintosh","Safari","18.3.1","OS X","10_15_7","https://hz8g1ckzuq.cognition.run/","en-US,en;q=0.9","7vun7gswvna313j","21","[""Asian"",""Black or African-American"",""White""]","Yes","Male","1098895","null","","<p></p>","null","rating","cdt","attraction_2","1","microwave ovens","null","null","null","null","null","null","2","","","","","","","","","",""
"","","","","","rating_trial","survey-html-form","74","741174","0.0-3.0-1.35","166","1","2025-04-14 14:23:26","bb671e3ae32f654b8954ea4c4635f915","","Mozilla/5.0 (Macintosh; Intel Mac OS X 10_15_7) AppleWebKit/605.1.15 (KHTML, like Gecko) Version/18.3.1 Safari/605.1.15","Macintosh","Safari","18.3.1","OS X","10_15_7","https://hz8g1ckzuq.cognition.run/","en-US,en;q=0.9","7vun7gswvna313j","21","[""Asian"",""Black or African-American"",""White""]","Yes","Male","1098895","16044","","","{""price_1"":""160"",""price_2"":""140"",""price_3"":""150""}","rating","cdt","attraction_2","1","microwave ovens","null","null","null","null","null","null","2","60","50","60","50","60","40","Warranty","Cooking power","",""
"","","","","","rating_trial_setup","html-keyboard-response","75","741479","0.0-3.0-0.36","166","1","2025-04-14 14:23:26","bb671e3ae32f654b8954ea4c4635f915","","Mozilla/5.0 (Macintosh; Intel Mac OS X 10_15_7) AppleWebKit/605.1.15 (KHTML, like Gecko) Version/18.3.1 Safari/605.1.15","Macintosh","Safari","18.3.1","OS X","10_15_7","https://hz8g1ckzuq.cognition.run/","en-US,en;q=0.9","7vun7gswvna313j","21","[""Asian"",""Black or African-American"",""White""]","Yes","Male","1098895","null","","<p></p>","null","rating","cdt","repulsion_2","2","laptops","null","null","null","null","null","null","1","","","","","","","","","",""
"","","","","","rating_trial","survey-html-form","76","760681","0.0-3.0-1.36","166","1","2025-04-14 14:23:26","bb671e3ae32f654b8954ea4c4635f915","","Mozilla/5.0 (Macintosh; Intel Mac OS X 10_15_7) AppleWebKit/605.1.15 (KHTML, like Gecko) Version/18.3.1 Safari/605.1.15","Macintosh","Safari","18.3.1","OS X","10_15_7","https://hz8g1ckzuq.cognition.run/","en-US,en;q=0.9","7vun7gswvna313j","21","[""Asian"",""Black or African-American"",""White""]","Yes","Male","1098895","19191","","","{""price_1"":""250"",""price_2"":""200"",""price_3"":""220""}","rating","cdt","repulsion_2","2","laptops","null","null","null","null","null","null","1","30","40","20","100","90","100","Processing speed","Memory (RAM)","",""
"","","","","","rating_trial_setup","html-keyboard-response","77","760986","0.0-3.0-0.37","166","1","2025-04-14 14:23:26","bb671e3ae32f654b8954ea4c4635f915","","Mozilla/5.0 (Macintosh; Intel Mac OS X 10_15_7) AppleWebKit/605.1.15 (KHTML, like Gecko) Version/18.3.1 Safari/605.1.15","Macintosh","Safari","18.3.1","OS X","10_15_7","https://hz8g1ckzuq.cognition.run/","en-US,en;q=0.9","7vun7gswvna313j","21","[""Asian"",""Black or African-American"",""White""]","Yes","Male","1098895","null","","<p></p>","null","rating","tdc","repulsion_1","1","laptops","null","null","null","null","null","null","1","","","","","","","","","",""
"","","","","","rating_trial","survey-html-form","78","773579","0.0-3.0-1.37","166","1","2025-04-14 14:23:26","bb671e3ae32f654b8954ea4c4635f915","","Mozilla/5.0 (Macintosh; Intel Mac OS X 10_15_7) AppleWebKit/605.1.15 (KHTML, like Gecko) Version/18.3.1 Safari/605.1.15","Macintosh","Safari","18.3.1","OS X","10_15_7","https://hz8g1ckzuq.cognition.run/","en-US,en;q=0.9","7vun7gswvna313j","21","[""Asian"",""Black or African-American"",""White""]","Yes","Male","1098895","12581","","","{""price_1"":""220"",""price_2"":""210"",""price_3"":""240""}","rating","tdc","repulsion_1","1","laptops","null","null","null","null","null","null","1","100","90","100","30","40","25","Processing speed","Memory (RAM)","",""
"","","","","","rating_trial_setup","html-keyboard-response","79","773884","0.0-3.0-0.38","166","1","2025-04-14 14:23:26","bb671e3ae32f654b8954ea4c4635f915","","Mozilla/5.0 (Macintosh; Intel Mac OS X 10_15_7) AppleWebKit/605.1.15 (KHTML, like Gecko) Version/18.3.1 Safari/605.1.15","Macintosh","Safari","18.3.1","OS X","10_15_7","https://hz8g1ckzuq.cognition.run/","en-US,en;q=0.9","7vun7gswvna313j","21","[""Asian"",""Black or African-American"",""White""]","Yes","Male","1098895","null","","<p></p>","null","rating","dtc","attraction_1","1","laptops","null","null","null","null","null","null","2","","","","","","","","","",""
"","","","","","rating_trial","survey-html-form","80","788870","0.0-3.0-1.38","166","1","2025-04-14 14:23:26","bb671e3ae32f654b8954ea4c4635f915","","Mozilla/5.0 (Macintosh; Intel Mac OS X 10_15_7) AppleWebKit/605.1.15 (KHTML, like Gecko) Version/18.3.1 Safari/605.1.15","Macintosh","Safari","18.3.1","OS X","10_15_7","https://hz8g1ckzuq.cognition.run/","en-US,en;q=0.9","7vun7gswvna313j","21","[""Asian"",""Black or African-American"",""White""]","Yes","Male","1098895","14976","","","{""price_1"":""240"",""price_2"":""250"",""price_3"":""360""}","rating","dtc","attraction_1","1","laptops","null","null","null","null","null","null","2","60","50","60","50","60","45","Processing speed","Memory (RAM)","",""
"","","","","","rating_trial_setup","html-keyboard-response","81","789177","0.0-3.0-0.39","166","1","2025-04-14 14:23:26","bb671e3ae32f654b8954ea4c4635f915","","Mozilla/5.0 (Macintosh; Intel Mac OS X 10_15_7) AppleWebKit/605.1.15 (KHTML, like Gecko) Version/18.3.1 Safari/605.1.15","Macintosh","Safari","18.3.1","OS X","10_15_7","https://hz8g1ckzuq.cognition.run/","en-US,en;q=0.9","7vun7gswvna313j","21","[""Asian"",""Black or African-American"",""White""]","Yes","Male","1098895","null","","<p></p>","null","rating","dtc","repulsion_1","2","laptops","null","null","null","null","null","null","2","","","","","","","","","",""
"","","","","","rating_trial","survey-html-form","82","803696","0.0-3.0-1.39","166","1","2025-04-14 14:23:26","bb671e3ae32f654b8954ea4c4635f915","","Mozilla/5.0 (Macintosh; Intel Mac OS X 10_15_7) AppleWebKit/605.1.15 (KHTML, like Gecko) Version/18.3.1 Safari/605.1.15","Macintosh","Safari","18.3.1","OS X","10_15_7","https://hz8g1ckzuq.cognition.run/","en-US,en;q=0.9","7vun7gswvna313j","21","[""Asian"",""Black or African-American"",""White""]","Yes","Male","1098895","14507","","","{""price_1"":""230"",""price_2"":""240"",""price_3"":""260""}","rating","dtc","repulsion_1","2","laptops","null","null","null","null","null","null","2","30","40","25","100","90","100","Processing speed","Memory (RAM)","",""
"","","","","","","instructions","83","830179","0.0-4.0","166","1","2025-04-14 14:23:26","bb671e3ae32f654b8954ea4c4635f915","","Mozilla/5.0 (Macintosh; Intel Mac OS X 10_15_7) AppleWebKit/605.1.15 (KHTML, like Gecko) Version/18.3.1 Safari/605.1.15","Macintosh","Safari","18.3.1","OS X","10_15_7","https://hz8g1ckzuq.cognition.run/","en-US,en;q=0.9","7vun7gswvna313j","21","[""Asian"",""Black or African-American"",""White""]","Yes","Male","1098895","26480","[{""page_index"":0,""viewing_time"":1670},{""page_index"":1,""viewing_time"":1082},{""page_index"":2,""viewing_time"":2080},{""page_index"":3,""viewing_time"":2233},{""page_index"":4,""viewing_time"":5338},{""page_index"":5,""viewing_time"":2330},{""page_index"":6,""viewing_time"":8769},{""page_index"":7,""viewing_time"":2978}]","","","","","","","","","","","","","","","","","","","","","","","",""
"","","","","","choice_trial_setup","html-keyboard-response","84","830482","0.0-5.0-0.0","166","1","2025-04-14 14:23:26","bb671e3ae32f654b8954ea4c4635f915","","Mozilla/5.0 (Macintosh; Intel Mac OS X 10_15_7) AppleWebKit/605.1.15 (KHTML, like Gecko) Version/18.3.1 Safari/605.1.15","Macintosh","Safari","18.3.1","OS X","10_15_7","https://hz8g1ckzuq.cognition.run/","en-US,en;q=0.9","7vun7gswvna313j","21","[""Asian"",""Black or African-American"",""White""]","Yes","Male","1098895","null","","<p></p>","null","choice","tdc","attraction_1","2","microwave ovens","null","null","null","null","null","null","1","","","","","","","","","",""
"","","","","","choice_trial","survey-html-form","85","839509","0.0-5.0-1.0","166","1","2025-04-14 14:23:26","bb671e3ae32f654b8954ea4c4635f915","","Mozilla/5.0 (Macintosh; Intel Mac OS X 10_15_7) AppleWebKit/605.1.15 (KHTML, like Gecko) Version/18.3.1 Safari/605.1.15","Macintosh","Safari","18.3.1","OS X","10_15_7","https://hz8g1ckzuq.cognition.run/","en-US,en;q=0.9","7vun7gswvna313j","21","[""Asian"",""Black or African-American"",""White""]","Yes","Male","1098895","9013","","","{""product_choice"":""A""}","choice","tdc","attraction_1","2","microwave ovens","null","null","null","null","null","null","1","50","60","45","60","50","60","Warranty","Cooking power","",""
"","","","","","choice_trial_setup","html-keyboard-response","86","839814","0.0-5.0-0.1","166","1","2025-04-14 14:23:26","bb671e3ae32f654b8954ea4c4635f915","","Mozilla/5.0 (Macintosh; Intel Mac OS X 10_15_7) AppleWebKit/605.1.15 (KHTML, like Gecko) Version/18.3.1 Safari/605.1.15","Macintosh","Safari","18.3.1","OS X","10_15_7","https://hz8g1ckzuq.cognition.run/","en-US,en;q=0.9","7vun7gswvna313j","21","[""Asian"",""Black or African-American"",""White""]","Yes","Male","1098895","null","","<p></p>","null","choice","wbw","catch","null","washing machines","60","85","40","25","45","15","1","","","","","","","","","",""
"","","","","","choice_trial","survey-html-form","87","845818","0.0-5.0-1.1","166","1","2025-04-14 14:23:26","bb671e3ae32f654b8954ea4c4635f915","","Mozilla/5.0 (Macintosh; Intel Mac OS X 10_15_7) AppleWebKit/605.1.15 (KHTML, like Gecko) Version/18.3.1 Safari/605.1.15","Macintosh","Safari","18.3.1","OS X","10_15_7","https://hz8g1ckzuq.cognition.run/","en-US,en;q=0.9","7vun7gswvna313j","21","[""Asian"",""Black or African-American"",""White""]","Yes","Male","1098895","5992","","","{""product_choice"":""B""}","choice","wbw","catch","null","washing machines","60","85","40","25","45","15","1","null","null","null","null","null","null","Average lifespan","Energy savings","",""
"","","","","","choice_trial_setup","html-keyboard-response","88","846124","0.0-5.0-0.2","166","1","2025-04-14 14:23:26","bb671e3ae32f654b8954ea4c4635f915","","Mozilla/5.0 (Macintosh; Intel Mac OS X 10_15_7) AppleWebKit/605.1.15 (KHTML, like Gecko) Version/18.3.1 Safari/605.1.15","Macintosh","Safari","18.3.1","OS X","10_15_7","https://hz8g1ckzuq.cognition.run/","en-US,en;q=0.9","7vun7gswvna313j","21","[""Asian"",""Black or African-American"",""White""]","Yes","Male","1098895","null","","<p></p>","null","choice","dtc","attraction_2","1","washing machines","null","null","null","null","null","null","1","","","","","","","","","",""
"","","","","","choice_trial","survey-html-form","89","850639","0.0-5.0-1.2","166","1","2025-04-14 14:23:26","bb671e3ae32f654b8954ea4c4635f915","","Mozilla/5.0 (Macintosh; Intel Mac OS X 10_15_7) AppleWebKit/605.1.15 (KHTML, like Gecko) Version/18.3.1 Safari/605.1.15","Macintosh","Safari","18.3.1","OS X","10_15_7","https://hz8g1ckzuq.cognition.run/","en-US,en;q=0.9","7vun7gswvna313j","21","[""Asian"",""Black or African-American"",""White""]","Yes","Male","1098895","4503","","","{""product_choice"":""B""}","choice","dtc","attraction_2","1","washing machines","null","null","null","null","null","null","1","60","50","60","50","60","40","Average lifespan","Energy savings","",""
"","","","","","choice_trial_setup","html-keyboard-response","90","850944","0.0-5.0-0.3","166","1","2025-04-14 14:23:26","bb671e3ae32f654b8954ea4c4635f915","","Mozilla/5.0 (Macintosh; Intel Mac OS X 10_15_7) AppleWebKit/605.1.15 (KHTML, like Gecko) Version/18.3.1 Safari/605.1.15","Macintosh","Safari","18.3.1","OS X","10_15_7","https://hz8g1ckzuq.cognition.run/","en-US,en;q=0.9","7vun7gswvna313j","21","[""Asian"",""Black or African-American"",""White""]","Yes","Male","1098895","null","","<p></p>","null","choice","dct","attraction_1","1","televisions","null","null","null","null","null","null","2","","","","","","","","","",""
"","","","","","choice_trial","survey-html-form","91","854830","0.0-5.0-1.3","166","1","2025-04-14 14:23:26","bb671e3ae32f654b8954ea4c4635f915","","Mozilla/5.0 (Macintosh; Intel Mac OS X 10_15_7) AppleWebKit/605.1.15 (KHTML, like Gecko) Version/18.3.1 Safari/605.1.15","Macintosh","Safari","18.3.1","OS X","10_15_7","https://hz8g1ckzuq.cognition.run/","en-US,en;q=0.9","7vun7gswvna313j","21","[""Asian"",""Black or African-American"",""White""]","Yes","Male","1098895","3871","","","{""product_choice"":""C""}","choice","dct","attraction_1","1","televisions","null","null","null","null","null","null","2","60","50","60","50","60","45","Screen size","Average lifespan","",""
"","","","","","choice_trial_setup","html-keyboard-response","92","855135","0.0-5.0-0.4","166","1","2025-04-14 14:23:26","bb671e3ae32f654b8954ea4c4635f915","","Mozilla/5.0 (Macintosh; Intel Mac OS X 10_15_7) AppleWebKit/605.1.15 (KHTML, like Gecko) Version/18.3.1 Safari/605.1.15","Macintosh","Safari","18.3.1","OS X","10_15_7","https://hz8g1ckzuq.cognition.run/","en-US,en;q=0.9","7vun7gswvna313j","21","[""Asian"",""Black or African-American"",""White""]","Yes","Male","1098895","null","","<p></p>","null","choice","wwb","catch","null","microwave ovens","65","50","50","40","5","25","2","","","","","","","","","",""
"","","","","","choice_trial","survey-html-form","93","860987","0.0-5.0-1.4","166","1","2025-04-14 14:23:26","bb671e3ae32f654b8954ea4c4635f915","","Mozilla/5.0 (Macintosh; Intel Mac OS X 10_15_7) AppleWebKit/605.1.15 (KHTML, like Gecko) Version/18.3.1 Safari/605.1.15","Macintosh","Safari","18.3.1","OS X","10_15_7","https://hz8g1ckzuq.cognition.run/","en-US,en;q=0.9","7vun7gswvna313j","21","[""Asian"",""Black or African-American"",""White""]","Yes","Male","1098895","5839","","","{""product_choice"":""C""}","choice","wwb","catch","null","microwave ovens","65","50","50","40","5","25","2","null","null","null","null","null","null","Warranty","Cooking power","",""
"","","","","","choice_trial_setup","html-keyboard-response","94","861292","0.0-5.0-0.5","166","1","2025-04-14 14:23:26","bb671e3ae32f654b8954ea4c4635f915","","Mozilla/5.0 (Macintosh; Intel Mac OS X 10_15_7) AppleWebKit/605.1.15 (KHTML, like Gecko) Version/18.3.1 Safari/605.1.15","Macintosh","Safari","18.3.1","OS X","10_15_7","https://hz8g1ckzuq.cognition.run/","en-US,en;q=0.9","7vun7gswvna313j","21","[""Asian"",""Black or African-American"",""White""]","Yes","Male","1098895","null","","<p></p>","null","choice","wbw","catch","null","microwave ovens","90","90","25","40","10","40","1","","","","","","","","","",""
"","","","","","choice_trial","survey-html-form","95","863349","0.0-5.0-1.5","166","1","2025-04-14 14:23:26","bb671e3ae32f654b8954ea4c4635f915","","Mozilla/5.0 (Macintosh; Intel Mac OS X 10_15_7) AppleWebKit/605.1.15 (KHTML, like Gecko) Version/18.3.1 Safari/605.1.15","Macintosh","Safari","18.3.1","OS X","10_15_7","https://hz8g1ckzuq.cognition.run/","en-US,en;q=0.9","7vun7gswvna313j","21","[""Asian"",""Black or African-American"",""White""]","Yes","Male","1098895","2045","","","{""product_choice"":""B""}","choice","wbw","catch","null","microwave ovens","90","90","25","40","10","40","1","null","null","null","null","null","null","Warranty","Cooking power","",""
"","","","","","choice_trial_setup","html-keyboard-response","96","863653","0.0-5.0-0.6","166","1","2025-04-14 14:23:26","bb671e3ae32f654b8954ea4c4635f915","","Mozilla/5.0 (Macintosh; Intel Mac OS X 10_15_7) AppleWebKit/605.1.15 (KHTML, like Gecko) Version/18.3.1 Safari/605.1.15","Macintosh","Safari","18.3.1","OS X","10_15_7","https://hz8g1ckzuq.cognition.run/","en-US,en;q=0.9","7vun7gswvna313j","21","[""Asian"",""Black or African-American"",""White""]","Yes","Male","1098895","null","","<p></p>","null","choice","tcd","attraction_1","1","microwave ovens","null","null","null","null","null","null","2","","","","","","","","","",""
"","","","","","choice_trial","survey-html-form","97","867293","0.0-5.0-1.6","166","1","2025-04-14 14:23:26","bb671e3ae32f654b8954ea4c4635f915","","Mozilla/5.0 (Macintosh; Intel Mac OS X 10_15_7) AppleWebKit/605.1.15 (KHTML, like Gecko) Version/18.3.1 Safari/605.1.15","Macintosh","Safari","18.3.1","OS X","10_15_7","https://hz8g1ckzuq.cognition.run/","en-US,en;q=0.9","7vun7gswvna313j","21","[""Asian"",""Black or African-American"",""White""]","Yes","Male","1098895","3625","","","{""product_choice"":""B""}","choice","tcd","attraction_1","1","microwave ovens","null","null","null","null","null","null","2","60","50","60","50","60","45","Warranty","Cooking power","",""
"","","","","","choice_trial_setup","html-keyboard-response","98","867598","0.0-5.0-0.7","166","1","2025-04-14 14:23:26","bb671e3ae32f654b8954ea4c4635f915","","Mozilla/5.0 (Macintosh; Intel Mac OS X 10_15_7) AppleWebKit/605.1.15 (KHTML, like Gecko) Version/18.3.1 Safari/605.1.15","Macintosh","Safari","18.3.1","OS X","10_15_7","https://hz8g1ckzuq.cognition.run/","en-US,en;q=0.9","7vun7gswvna313j","21","[""Asian"",""Black or African-American"",""White""]","Yes","Male","1098895","null","","<p></p>","null","choice","cdt","repulsion_1","1","washing machines","null","null","null","null","null","null","2","","","","","","","","","",""
"","","","","","choice_trial","survey-html-form","99","873467","0.0-5.0-1.7","166","1","2025-04-14 14:23:26","bb671e3ae32f654b8954ea4c4635f915","","Mozilla/5.0 (Macintosh; Intel Mac OS X 10_15_7) AppleWebKit/605.1.15 (KHTML, like Gecko) Version/18.3.1 Safari/605.1.15","Macintosh","Safari","18.3.1","OS X","10_15_7","https://hz8g1ckzuq.cognition.run/","en-US,en;q=0.9","7vun7gswvna313j","21","[""Asian"",""Black or African-American"",""White""]","Yes","Male","1098895","5853","","","{""product_choice"":""A""}","choice","cdt","repulsion_1","1","washing machines","null","null","null","null","null","null","2","100","90","100","30","40","25","Average lifespan","Energy savings","",""
"","","","","","choice_trial_setup","html-keyboard-response","100","873772","0.0-5.0-0.8","166","1","2025-04-14 14:23:26","bb671e3ae32f654b8954ea4c4635f915","","Mozilla/5.0 (Macintosh; Intel Mac OS X 10_15_7) AppleWebKit/605.1.15 (KHTML, like Gecko) Version/18.3.1 Safari/605.1.15","Macintosh","Safari","18.3.1","OS X","10_15_7","https://hz8g1ckzuq.cognition.run/","en-US,en;q=0.9","7vun7gswvna313j","21","[""Asian"",""Black or African-American"",""White""]","Yes","Male","1098895","null","","<p></p>","null","choice","ctd","repulsion_1","1","laptops","null","null","null","null","null","null","1","","","","","","","","","",""
"","","","","","choice_trial","survey-html-form","101","877081","0.0-5.0-1.8","166","1","2025-04-14 14:23:26","bb671e3ae32f654b8954ea4c4635f915","","Mozilla/5.0 (Macintosh; Intel Mac OS X 10_15_7) AppleWebKit/605.1.15 (KHTML, like Gecko) Version/18.3.1 Safari/605.1.15","Macintosh","Safari","18.3.1","OS X","10_15_7","https://hz8g1ckzuq.cognition.run/","en-US,en;q=0.9","7vun7gswvna313j","21","[""Asian"",""Black or African-American"",""White""]","Yes","Male","1098895","3296","","","{""product_choice"":""A""}","choice","ctd","repulsion_1","1","laptops","null","null","null","null","null","null","1","100","90","100","30","40","25","Processing speed","Memory (RAM)","",""
"","","","","","choice_trial_setup","html-keyboard-response","102","877386","0.0-5.0-0.9","166","1","2025-04-14 14:23:26","bb671e3ae32f654b8954ea4c4635f915","","Mozilla/5.0 (Macintosh; Intel Mac OS X 10_15_7) AppleWebKit/605.1.15 (KHTML, like Gecko) Version/18.3.1 Safari/605.1.15","Macintosh","Safari","18.3.1","OS X","10_15_7","https://hz8g1ckzuq.cognition.run/","en-US,en;q=0.9","7vun7gswvna313j","21","[""Asian"",""Black or African-American"",""White""]","Yes","Male","1098895","null","","<p></p>","null","choice","dct","attraction_1","2","laptops","null","null","null","null","null","null","1","","","","","","","","","",""
"","","","","","choice_trial","survey-html-form","103","881956","0.0-5.0-1.9","166","1","2025-04-14 14:23:26","bb671e3ae32f654b8954ea4c4635f915","","Mozilla/5.0 (Macintosh; Intel Mac OS X 10_15_7) AppleWebKit/605.1.15 (KHTML, like Gecko) Version/18.3.1 Safari/605.1.15","Macintosh","Safari","18.3.1","OS X","10_15_7","https://hz8g1ckzuq.cognition.run/","en-US,en;q=0.9","7vun7gswvna313j","21","[""Asian"",""Black or African-American"",""White""]","Yes","Male","1098895","4557","","","{""product_choice"":""C""}","choice","dct","attraction_1","2","laptops","null","null","null","null","null","null","1","50","60","45","60","50","60","Processing speed","Memory (RAM)","",""
"","","","","","choice_trial_setup","html-keyboard-response","104","882261","0.0-5.0-0.10","166","1","2025-04-14 14:23:26","bb671e3ae32f654b8954ea4c4635f915","","Mozilla/5.0 (Macintosh; Intel Mac OS X 10_15_7) AppleWebKit/605.1.15 (KHTML, like Gecko) Version/18.3.1 Safari/605.1.15","Macintosh","Safari","18.3.1","OS X","10_15_7","https://hz8g1ckzuq.cognition.run/","en-US,en;q=0.9","7vun7gswvna313j","21","[""Asian"",""Black or African-American"",""White""]","Yes","Male","1098895","null","","<p></p>","null","choice","ctd","attraction_2","1","microwave ovens","null","null","null","null","null","null","1","","","","","","","","","",""
"","","","","","choice_trial","survey-html-form","105","886229","0.0-5.0-1.10","166","1","2025-04-14 14:23:26","bb671e3ae32f654b8954ea4c4635f915","","Mozilla/5.0 (Macintosh; Intel Mac OS X 10_15_7) AppleWebKit/605.1.15 (KHTML, like Gecko) Version/18.3.1 Safari/605.1.15","Macintosh","Safari","18.3.1","OS X","10_15_7","https://hz8g1ckzuq.cognition.run/","en-US,en;q=0.9","7vun7gswvna313j","21","[""Asian"",""Black or African-American"",""White""]","Yes","Male","1098895","3956","","","{""product_choice"":""A""}","choice","ctd","attraction_2","1","microwave ovens","null","null","null","null","null","null","1","60","50","60","50","60","40","Warranty","Cooking power","",""
"","","","","","choice_trial_setup","html-keyboard-response","106","886535","0.0-5.0-0.11","166","1","2025-04-14 14:23:26","bb671e3ae32f654b8954ea4c4635f915","","Mozilla/5.0 (Macintosh; Intel Mac OS X 10_15_7) AppleWebKit/605.1.15 (KHTML, like Gecko) Version/18.3.1 Safari/605.1.15","Macintosh","Safari","18.3.1","OS X","10_15_7","https://hz8g1ckzuq.cognition.run/","en-US,en;q=0.9","7vun7gswvna313j","21","[""Asian"",""Black or African-American"",""White""]","Yes","Male","1098895","null","","<p></p>","null","choice","wbw","catch","null","televisions","60","65","35","10","45","30","2","","","","","","","","","",""
"","","","","","choice_trial","survey-html-form","107","889624","0.0-5.0-1.11","166","1","2025-04-14 14:23:26","bb671e3ae32f654b8954ea4c4635f915","","Mozilla/5.0 (Macintosh; Intel Mac OS X 10_15_7) AppleWebKit/605.1.15 (KHTML, like Gecko) Version/18.3.1 Safari/605.1.15","Macintosh","Safari","18.3.1","OS X","10_15_7","https://hz8g1ckzuq.cognition.run/","en-US,en;q=0.9","7vun7gswvna313j","21","[""Asian"",""Black or African-American"",""White""]","Yes","Male","1098895","3074","","","{""product_choice"":""B""}","choice","wbw","catch","null","televisions","60","65","35","10","45","30","2","null","null","null","null","null","null","Screen size","Average lifespan","",""
"","","","","","choice_trial_setup","html-keyboard-response","108","889930","0.0-5.0-0.12","166","1","2025-04-14 14:23:26","bb671e3ae32f654b8954ea4c4635f915","","Mozilla/5.0 (Macintosh; Intel Mac OS X 10_15_7) AppleWebKit/605.1.15 (KHTML, like Gecko) Version/18.3.1 Safari/605.1.15","Macintosh","Safari","18.3.1","OS X","10_15_7","https://hz8g1ckzuq.cognition.run/","en-US,en;q=0.9","7vun7gswvna313j","21","[""Asian"",""Black or African-American"",""White""]","Yes","Male","1098895","null","","<p></p>","null","choice","tdc","repulsion_2","2","washing machines","null","null","null","null","null","null","2","","","","","","","","","",""
"","","","","","choice_trial","survey-html-form","109","893637","0.0-5.0-1.12","166","1","2025-04-14 14:23:26","bb671e3ae32f654b8954ea4c4635f915","","Mozilla/5.0 (Macintosh; Intel Mac OS X 10_15_7) AppleWebKit/605.1.15 (KHTML, like Gecko) Version/18.3.1 Safari/605.1.15","Macintosh","Safari","18.3.1","OS X","10_15_7","https://hz8g1ckzuq.cognition.run/","en-US,en;q=0.9","7vun7gswvna313j","21","[""Asian"",""Black or African-American"",""White""]","Yes","Male","1098895","3696","","","{""product_choice"":""C""}","choice","tdc","repulsion_2","2","washing machines","null","null","null","null","null","null","2","30","40","20","100","90","100","Average lifespan","Energy savings","",""
"","","","","","choice_trial_setup","html-keyboard-response","110","893943","0.0-5.0-0.13","166","1","2025-04-14 14:23:26","bb671e3ae32f654b8954ea4c4635f915","","Mozilla/5.0 (Macintosh; Intel Mac OS X 10_15_7) AppleWebKit/605.1.15 (KHTML, like Gecko) Version/18.3.1 Safari/605.1.15","Macintosh","Safari","18.3.1","OS X","10_15_7","https://hz8g1ckzuq.cognition.run/","en-US,en;q=0.9","7vun7gswvna313j","21","[""Asian"",""Black or African-American"",""White""]","Yes","Male","1098895","null","","<p></p>","null","choice","ctd","repulsion_1","2","microwave ovens","null","null","null","null","null","null","2","","","","","","","","","",""
"","","","","","choice_trial","survey-html-form","111","897697","0.0-5.0-1.13","166","1","2025-04-14 14:23:26","bb671e3ae32f654b8954ea4c4635f915","","Mozilla/5.0 (Macintosh; Intel Mac OS X 10_15_7) AppleWebKit/605.1.15 (KHTML, like Gecko) Version/18.3.1 Safari/605.1.15","Macintosh","Safari","18.3.1","OS X","10_15_7","https://hz8g1ckzuq.cognition.run/","en-US,en;q=0.9","7vun7gswvna313j","21","[""Asian"",""Black or African-American"",""White""]","Yes","Male","1098895","3742","","","{""product_choice"":""B""}","choice","ctd","repulsion_1","2","microwave ovens","null","null","null","null","null","null","2","30","40","25","100","90","100","Warranty","Cooking power","",""
"","","","","","choice_trial_setup","html-keyboard-response","112","898004","0.0-5.0-0.14","166","1","2025-04-14 14:23:26","bb671e3ae32f654b8954ea4c4635f915","","Mozilla/5.0 (Macintosh; Intel Mac OS X 10_15_7) AppleWebKit/605.1.15 (KHTML, like Gecko) Version/18.3.1 Safari/605.1.15","Macintosh","Safari","18.3.1","OS X","10_15_7","https://hz8g1ckzuq.cognition.run/","en-US,en;q=0.9","7vun7gswvna313j","21","[""Asian"",""Black or African-American"",""White""]","Yes","Male","1098895","null","","<p></p>","null","choice","dct","repulsion_2","1","laptops","null","null","null","null","null","null","1","","","","","","","","","",""
"","","","","","choice_trial","survey-html-form","113","901290","0.0-5.0-1.14","166","1","2025-04-14 14:23:26","bb671e3ae32f654b8954ea4c4635f915","","Mozilla/5.0 (Macintosh; Intel Mac OS X 10_15_7) AppleWebKit/605.1.15 (KHTML, like Gecko) Version/18.3.1 Safari/605.1.15","Macintosh","Safari","18.3.1","OS X","10_15_7","https://hz8g1ckzuq.cognition.run/","en-US,en;q=0.9","7vun7gswvna313j","21","[""Asian"",""Black or African-American"",""White""]","Yes","Male","1098895","3272","","","{""product_choice"":""B""}","choice","dct","repulsion_2","1","laptops","null","null","null","null","null","null","1","100","90","100","30","40","20","Processing speed","Memory (RAM)","",""
"","","","","","choice_trial_setup","html-keyboard-response","114","901596","0.0-5.0-0.15","166","1","2025-04-14 14:23:26","bb671e3ae32f654b8954ea4c4635f915","","Mozilla/5.0 (Macintosh; Intel Mac OS X 10_15_7) AppleWebKit/605.1.15 (KHTML, like Gecko) Version/18.3.1 Safari/605.1.15","Macintosh","Safari","18.3.1","OS X","10_15_7","https://hz8g1ckzuq.cognition.run/","en-US,en;q=0.9","7vun7gswvna313j","21","[""Asian"",""Black or African-American"",""White""]","Yes","Male","1098895","null","","<p></p>","null","choice","cdt","repulsion_2","1","washing machines","null","null","null","null","null","null","2","","","","","","","","","",""
"","","","","","choice_trial","survey-html-form","115","906065","0.0-5.0-1.15","166","1","2025-04-14 14:23:26","bb671e3ae32f654b8954ea4c4635f915","","Mozilla/5.0 (Macintosh; Intel Mac OS X 10_15_7) AppleWebKit/605.1.15 (KHTML, like Gecko) Version/18.3.1 Safari/605.1.15","Macintosh","Safari","18.3.1","OS X","10_15_7","https://hz8g1ckzuq.cognition.run/","en-US,en;q=0.9","7vun7gswvna313j","21","[""Asian"",""Black or African-American"",""White""]","Yes","Male","1098895","4457","","","{""product_choice"":""C""}","choice","cdt","repulsion_2","1","washing machines","null","null","null","null","null","null","2","100","90","100","30","40","20","Average lifespan","Energy savings","",""
"","","","","","choice_trial_setup","html-keyboard-response","116","906371","0.0-5.0-0.16","166","1","2025-04-14 14:23:26","bb671e3ae32f654b8954ea4c4635f915","","Mozilla/5.0 (Macintosh; Intel Mac OS X 10_15_7) AppleWebKit/605.1.15 (KHTML, like Gecko) Version/18.3.1 Safari/605.1.15","Macintosh","Safari","18.3.1","OS X","10_15_7","https://hz8g1ckzuq.cognition.run/","en-US,en;q=0.9","7vun7gswvna313j","21","[""Asian"",""Black or African-American"",""White""]","Yes","Male","1098895","null","","<p></p>","null","choice","tcd","repulsion_1","1","televisions","null","null","null","null","null","null","1","","","","","","","","","",""
"","","","","","choice_trial","survey-html-form","117","911907","0.0-5.0-1.16","166","1","2025-04-14 14:23:26","bb671e3ae32f654b8954ea4c4635f915","","Mozilla/5.0 (Macintosh; Intel Mac OS X 10_15_7) AppleWebKit/605.1.15 (KHTML, like Gecko) Version/18.3.1 Safari/605.1.15","Macintosh","Safari","18.3.1","OS X","10_15_7","https://hz8g1ckzuq.cognition.run/","en-US,en;q=0.9","7vun7gswvna313j","21","[""Asian"",""Black or African-American"",""White""]","Yes","Male","1098895","5524","","","{""product_choice"":""A""}","choice","tcd","repulsion_1","1","televisions","null","null","null","null","null","null","1","100","90","100","30","40","25","Screen size","Average lifespan","",""
"","","","","","choice_trial_setup","html-keyboard-response","118","912213","0.0-5.0-0.17","166","1","2025-04-14 14:23:26","bb671e3ae32f654b8954ea4c4635f915","","Mozilla/5.0 (Macintosh; Intel Mac OS X 10_15_7) AppleWebKit/605.1.15 (KHTML, like Gecko) Version/18.3.1 Safari/605.1.15","Macintosh","Safari","18.3.1","OS X","10_15_7","https://hz8g1ckzuq.cognition.run/","en-US,en;q=0.9","7vun7gswvna313j","21","[""Asian"",""Black or African-American"",""White""]","Yes","Male","1098895","null","","<p></p>","null","choice","cdt","repulsion_1","2","televisions","null","null","null","null","null","null","1","","","","","","","","","",""
"","","","","","choice_trial","survey-html-form","119","916068","0.0-5.0-1.17","166","1","2025-04-14 14:23:26","bb671e3ae32f654b8954ea4c4635f915","","Mozilla/5.0 (Macintosh; Intel Mac OS X 10_15_7) AppleWebKit/605.1.15 (KHTML, like Gecko) Version/18.3.1 Safari/605.1.15","Macintosh","Safari","18.3.1","OS X","10_15_7","https://hz8g1ckzuq.cognition.run/","en-US,en;q=0.9","7vun7gswvna313j","21","[""Asian"",""Black or African-American"",""White""]","Yes","Male","1098895","3841","","","{""product_choice"":""A""}","choice","cdt","repulsion_1","2","televisions","null","null","null","null","null","null","1","30","40","25","100","90","100","Screen size","Average lifespan","",""
"","","","","","choice_trial_setup","html-keyboard-response","120","916375","0.0-5.0-0.18","166","1","2025-04-14 14:23:26","bb671e3ae32f654b8954ea4c4635f915","","Mozilla/5.0 (Macintosh; Intel Mac OS X 10_15_7) AppleWebKit/605.1.15 (KHTML, like Gecko) Version/18.3.1 Safari/605.1.15","Macintosh","Safari","18.3.1","OS X","10_15_7","https://hz8g1ckzuq.cognition.run/","en-US,en;q=0.9","7vun7gswvna313j","21","[""Asian"",""Black or African-American"",""White""]","Yes","Male","1098895","null","","<p></p>","null","choice","tcd","attraction_2","1","laptops","null","null","null","null","null","null","2","","","","","","","","","",""
"","","","","","choice_trial","survey-html-form","121","920311","0.0-5.0-1.18","166","1","2025-04-14 14:23:26","bb671e3ae32f654b8954ea4c4635f915","","Mozilla/5.0 (Macintosh; Intel Mac OS X 10_15_7) AppleWebKit/605.1.15 (KHTML, like Gecko) Version/18.3.1 Safari/605.1.15","Macintosh","Safari","18.3.1","OS X","10_15_7","https://hz8g1ckzuq.cognition.run/","en-US,en;q=0.9","7vun7gswvna313j","21","[""Asian"",""Black or African-American"",""White""]","Yes","Male","1098895","3920","","","{""product_choice"":""B""}","choice","tcd","attraction_2","1","laptops","null","null","null","null","null","null","2","60","50","60","50","60","40","Processing speed","Memory (RAM)","",""
"","","","","","choice_trial_setup","html-keyboard-response","122","920616","0.0-5.0-0.19","166","1","2025-04-14 14:23:26","bb671e3ae32f654b8954ea4c4635f915","","Mozilla/5.0 (Macintosh; Intel Mac OS X 10_15_7) AppleWebKit/605.1.15 (KHTML, like Gecko) Version/18.3.1 Safari/605.1.15","Macintosh","Safari","18.3.1","OS X","10_15_7","https://hz8g1ckzuq.cognition.run/","en-US,en;q=0.9","7vun7gswvna313j","21","[""Asian"",""Black or African-American"",""White""]","Yes","Male","1098895","null","","<p></p>","null","choice","dct","attraction_1","1","laptops","null","null","null","null","null","null","2","","","","","","","","","",""
"","","","","","choice_trial","survey-html-form","123","924114","0.0-5.0-1.19","166","1","2025-04-14 14:23:26","bb671e3ae32f654b8954ea4c4635f915","","Mozilla/5.0 (Macintosh; Intel Mac OS X 10_15_7) AppleWebKit/605.1.15 (KHTML, like Gecko) Version/18.3.1 Safari/605.1.15","Macintosh","Safari","18.3.1","OS X","10_15_7","https://hz8g1ckzuq.cognition.run/","en-US,en;q=0.9","7vun7gswvna313j","21","[""Asian"",""Black or African-American"",""White""]","Yes","Male","1098895","3481","","","{""product_choice"":""B""}","choice","dct","attraction_1","1","laptops","null","null","null","null","null","null","2","60","50","60","50","60","45","Processing speed","Memory (RAM)","",""
"","","","","","choice_trial_setup","html-keyboard-response","124","924420","0.0-5.0-0.20","166","1","2025-04-14 14:23:26","bb671e3ae32f654b8954ea4c4635f915","","Mozilla/5.0 (Macintosh; Intel Mac OS X 10_15_7) AppleWebKit/605.1.15 (KHTML, like Gecko) Version/18.3.1 Safari/605.1.15","Macintosh","Safari","18.3.1","OS X","10_15_7","https://hz8g1ckzuq.cognition.run/","en-US,en;q=0.9","7vun7gswvna313j","21","[""Asian"",""Black or African-American"",""White""]","Yes","Male","1098895","null","","<p></p>","null","choice","cdt","repulsion_1","2","washing machines","null","null","null","null","null","null","1","","","","","","","","","",""
"","","","","","choice_trial","survey-html-form","125","929067","0.0-5.0-1.20","166","1","2025-04-14 14:23:26","bb671e3ae32f654b8954ea4c4635f915","","Mozilla/5.0 (Macintosh; Intel Mac OS X 10_15_7) AppleWebKit/605.1.15 (KHTML, like Gecko) Version/18.3.1 Safari/605.1.15","Macintosh","Safari","18.3.1","OS X","10_15_7","https://hz8g1ckzuq.cognition.run/","en-US,en;q=0.9","7vun7gswvna313j","21","[""Asian"",""Black or African-American"",""White""]","Yes","Male","1098895","4634","","","{""product_choice"":""A""}","choice","cdt","repulsion_1","2","washing machines","null","null","null","null","null","null","1","30","40","25","100","90","100","Average lifespan","Energy savings","",""
"","","","","","choice_trial_setup","html-keyboard-response","126","929373","0.0-5.0-0.21","166","1","2025-04-14 14:23:26","bb671e3ae32f654b8954ea4c4635f915","","Mozilla/5.0 (Macintosh; Intel Mac OS X 10_15_7) AppleWebKit/605.1.15 (KHTML, like Gecko) Version/18.3.1 Safari/605.1.15","Macintosh","Safari","18.3.1","OS X","10_15_7","https://hz8g1ckzuq.cognition.run/","en-US,en;q=0.9","7vun7gswvna313j","21","[""Asian"",""Black or African-American"",""White""]","Yes","Male","1098895","null","","<p></p>","null","choice","cdt","attraction_2","2","televisions","null","null","null","null","null","null","1","","","","","","","","","",""
"","","","","","choice_trial","survey-html-form","127","932097","0.0-5.0-1.21","166","1","2025-04-14 14:23:26","bb671e3ae32f654b8954ea4c4635f915","","Mozilla/5.0 (Macintosh; Intel Mac OS X 10_15_7) AppleWebKit/605.1.15 (KHTML, like Gecko) Version/18.3.1 Safari/605.1.15","Macintosh","Safari","18.3.1","OS X","10_15_7","https://hz8g1ckzuq.cognition.run/","en-US,en;q=0.9","7vun7gswvna313j","21","[""Asian"",""Black or African-American"",""White""]","Yes","Male","1098895","2711","","","{""product_choice"":""A""}","choice","cdt","attraction_2","2","televisions","null","null","null","null","null","null","1","50","60","40","60","50","60","Screen size","Average lifespan","",""
"","","","","","choice_trial_setup","html-keyboard-response","128","932403","0.0-5.0-0.22","166","1","2025-04-14 14:23:26","bb671e3ae32f654b8954ea4c4635f915","","Mozilla/5.0 (Macintosh; Intel Mac OS X 10_15_7) AppleWebKit/605.1.15 (KHTML, like Gecko) Version/18.3.1 Safari/605.1.15","Macintosh","Safari","18.3.1","OS X","10_15_7","https://hz8g1ckzuq.cognition.run/","en-US,en;q=0.9","7vun7gswvna313j","21","[""Asian"",""Black or African-American"",""White""]","Yes","Male","1098895","null","","<p></p>","null","choice","bww","catch","null","laptops","55","60","45","25","10","5","2","","","","","","","","","",""
"","","","","","choice_trial","survey-html-form","129","934724","0.0-5.0-1.22","166","1","2025-04-14 14:23:26","bb671e3ae32f654b8954ea4c4635f915","","Mozilla/5.0 (Macintosh; Intel Mac OS X 10_15_7) AppleWebKit/605.1.15 (KHTML, like Gecko) Version/18.3.1 Safari/605.1.15","Macintosh","Safari","18.3.1","OS X","10_15_7","https://hz8g1ckzuq.cognition.run/","en-US,en;q=0.9","7vun7gswvna313j","21","[""Asian"",""Black or African-American"",""White""]","Yes","Male","1098895","2306","","","{""product_choice"":""A""}","choice","bww","catch","null","laptops","55","60","45","25","10","5","2","null","null","null","null","null","null","Processing speed","Memory (RAM)","",""
"","","","","","choice_trial_setup","html-keyboard-response","130","935030","0.0-5.0-0.23","166","1","2025-04-14 14:23:26","bb671e3ae32f654b8954ea4c4635f915","","Mozilla/5.0 (Macintosh; Intel Mac OS X 10_15_7) AppleWebKit/605.1.15 (KHTML, like Gecko) Version/18.3.1 Safari/605.1.15","Macintosh","Safari","18.3.1","OS X","10_15_7","https://hz8g1ckzuq.cognition.run/","en-US,en;q=0.9","7vun7gswvna313j","21","[""Asian"",""Black or African-American"",""White""]","Yes","Male","1098895","null","","<p></p>","null","choice","tdc","repulsion_2","1","microwave ovens","null","null","null","null","null","null","2","","","","","","","","","",""
"","","","","","choice_trial","survey-html-form","131","938352","0.0-5.0-1.23","166","1","2025-04-14 14:23:26","bb671e3ae32f654b8954ea4c4635f915","","Mozilla/5.0 (Macintosh; Intel Mac OS X 10_15_7) AppleWebKit/605.1.15 (KHTML, like Gecko) Version/18.3.1 Safari/605.1.15","Macintosh","Safari","18.3.1","OS X","10_15_7","https://hz8g1ckzuq.cognition.run/","en-US,en;q=0.9","7vun7gswvna313j","21","[""Asian"",""Black or African-American"",""White""]","Yes","Male","1098895","3308","","","{""product_choice"":""C""}","choice","tdc","repulsion_2","1","microwave ovens","null","null","null","null","null","null","2","100","90","100","30","40","20","Warranty","Cooking power","",""
"","","","","","choice_trial_setup","html-keyboard-response","132","938659","0.0-5.0-0.24","166","1","2025-04-14 14:23:26","bb671e3ae32f654b8954ea4c4635f915","","Mozilla/5.0 (Macintosh; Intel Mac OS X 10_15_7) AppleWebKit/605.1.15 (KHTML, like Gecko) Version/18.3.1 Safari/605.1.15","Macintosh","Safari","18.3.1","OS X","10_15_7","https://hz8g1ckzuq.cognition.run/","en-US,en;q=0.9","7vun7gswvna313j","21","[""Asian"",""Black or African-American"",""White""]","Yes","Male","1098895","null","","<p></p>","null","choice","cdt","attraction_1","2","washing machines","null","null","null","null","null","null","1","","","","","","","","","",""
"","","","","","choice_trial","survey-html-form","133","944077","0.0-5.0-1.24","166","1","2025-04-14 14:23:26","bb671e3ae32f654b8954ea4c4635f915","","Mozilla/5.0 (Macintosh; Intel Mac OS X 10_15_7) AppleWebKit/605.1.15 (KHTML, like Gecko) Version/18.3.1 Safari/605.1.15","Macintosh","Safari","18.3.1","OS X","10_15_7","https://hz8g1ckzuq.cognition.run/","en-US,en;q=0.9","7vun7gswvna313j","21","[""Asian"",""Black or African-American"",""White""]","Yes","Male","1098895","5406","","","{""product_choice"":""A""}","choice","cdt","attraction_1","2","washing machines","null","null","null","null","null","null","1","50","60","45","60","50","60","Average lifespan","Energy savings","",""
"","","","","","choice_trial_setup","html-keyboard-response","134","944384","0.0-5.0-0.25","166","1","2025-04-14 14:23:26","bb671e3ae32f654b8954ea4c4635f915","","Mozilla/5.0 (Macintosh; Intel Mac OS X 10_15_7) AppleWebKit/605.1.15 (KHTML, like Gecko) Version/18.3.1 Safari/605.1.15","Macintosh","Safari","18.3.1","OS X","10_15_7","https://hz8g1ckzuq.cognition.run/","en-US,en;q=0.9","7vun7gswvna313j","21","[""Asian"",""Black or African-American"",""White""]","Yes","Male","1098895","null","","<p></p>","null","choice","tcd","repulsion_2","2","microwave ovens","null","null","null","null","null","null","1","","","","","","","","","",""
"","","","","","choice_trial","survey-html-form","135","949886","0.0-5.0-1.25","166","1","2025-04-14 14:23:26","bb671e3ae32f654b8954ea4c4635f915","","Mozilla/5.0 (Macintosh; Intel Mac OS X 10_15_7) AppleWebKit/605.1.15 (KHTML, like Gecko) Version/18.3.1 Safari/605.1.15","Macintosh","Safari","18.3.1","OS X","10_15_7","https://hz8g1ckzuq.cognition.run/","en-US,en;q=0.9","7vun7gswvna313j","21","[""Asian"",""Black or African-American"",""White""]","Yes","Male","1098895","5488","","","{""product_choice"":""A""}","choice","tcd","repulsion_2","2","microwave ovens","null","null","null","null","null","null","1","30","40","20","100","90","100","Warranty","Cooking power","",""
"","","","","","choice_trial_setup","html-keyboard-response","136","950192","0.0-5.0-0.26","166","1","2025-04-14 14:23:26","bb671e3ae32f654b8954ea4c4635f915","","Mozilla/5.0 (Macintosh; Intel Mac OS X 10_15_7) AppleWebKit/605.1.15 (KHTML, like Gecko) Version/18.3.1 Safari/605.1.15","Macintosh","Safari","18.3.1","OS X","10_15_7","https://hz8g1ckzuq.cognition.run/","en-US,en;q=0.9","7vun7gswvna313j","21","[""Asian"",""Black or African-American"",""White""]","Yes","Male","1098895","null","","<p></p>","null","choice","wwb","catch","null","laptops","85","85","5","50","40","50","2","","","","","","","","","",""
"","","","","","choice_trial","survey-html-form","137","954295","0.0-5.0-1.26","166","1","2025-04-14 14:23:26","bb671e3ae32f654b8954ea4c4635f915","","Mozilla/5.0 (Macintosh; Intel Mac OS X 10_15_7) AppleWebKit/605.1.15 (KHTML, like Gecko) Version/18.3.1 Safari/605.1.15","Macintosh","Safari","18.3.1","OS X","10_15_7","https://hz8g1ckzuq.cognition.run/","en-US,en;q=0.9","7vun7gswvna313j","21","[""Asian"",""Black or African-American"",""White""]","Yes","Male","1098895","4087","","","{""product_choice"":""C""}","choice","wwb","catch","null","laptops","85","85","5","50","40","50","2","null","null","null","null","null","null","Processing speed","Memory (RAM)","",""
"","","","","","choice_trial_setup","html-keyboard-response","138","954601","0.0-5.0-0.27","166","1","2025-04-14 14:23:26","bb671e3ae32f654b8954ea4c4635f915","","Mozilla/5.0 (Macintosh; Intel Mac OS X 10_15_7) AppleWebKit/605.1.15 (KHTML, like Gecko) Version/18.3.1 Safari/605.1.15","Macintosh","Safari","18.3.1","OS X","10_15_7","https://hz8g1ckzuq.cognition.run/","en-US,en;q=0.9","7vun7gswvna313j","21","[""Asian"",""Black or African-American"",""White""]","Yes","Male","1098895","null","","<p></p>","null","choice","ctd","repulsion_2","2","televisions","null","null","null","null","null","null","1","","","","","","","","","",""
"","","","","","choice_trial","survey-html-form","139","956861","0.0-5.0-1.27","166","1","2025-04-14 14:23:26","bb671e3ae32f654b8954ea4c4635f915","","Mozilla/5.0 (Macintosh; Intel Mac OS X 10_15_7) AppleWebKit/605.1.15 (KHTML, like Gecko) Version/18.3.1 Safari/605.1.15","Macintosh","Safari","18.3.1","OS X","10_15_7","https://hz8g1ckzuq.cognition.run/","en-US,en;q=0.9","7vun7gswvna313j","21","[""Asian"",""Black or African-American"",""White""]","Yes","Male","1098895","2246","","","{""product_choice"":""A""}","choice","ctd","repulsion_2","2","televisions","null","null","null","null","null","null","1","30","40","20","100","90","100","Screen size","Average lifespan","",""
"","","","","","choice_trial_setup","html-keyboard-response","140","957168","0.0-5.0-0.28","166","1","2025-04-14 14:23:26","bb671e3ae32f654b8954ea4c4635f915","","Mozilla/5.0 (Macintosh; Intel Mac OS X 10_15_7) AppleWebKit/605.1.15 (KHTML, like Gecko) Version/18.3.1 Safari/605.1.15","Macintosh","Safari","18.3.1","OS X","10_15_7","https://hz8g1ckzuq.cognition.run/","en-US,en;q=0.9","7vun7gswvna313j","21","[""Asian"",""Black or African-American"",""White""]","Yes","Male","1098895","null","","<p></p>","null","choice","dtc","attraction_2","1","televisions","null","null","null","null","null","null","1","","","","","","","","","",""
"","","","","","choice_trial","survey-html-form","141","961041","0.0-5.0-1.28","166","1","2025-04-14 14:23:26","bb671e3ae32f654b8954ea4c4635f915","","Mozilla/5.0 (Macintosh; Intel Mac OS X 10_15_7) AppleWebKit/605.1.15 (KHTML, like Gecko) Version/18.3.1 Safari/605.1.15","Macintosh","Safari","18.3.1","OS X","10_15_7","https://hz8g1ckzuq.cognition.run/","en-US,en;q=0.9","7vun7gswvna313j","21","[""Asian"",""Black or African-American"",""White""]","Yes","Male","1098895","3857","","","{""product_choice"":""B""}","choice","dtc","attraction_2","1","televisions","null","null","null","null","null","null","1","60","50","60","50","60","40","Screen size","Average lifespan","",""
"","","","","","choice_trial_setup","html-keyboard-response","142","961345","0.0-5.0-0.29","166","1","2025-04-14 14:23:26","bb671e3ae32f654b8954ea4c4635f915","","Mozilla/5.0 (Macintosh; Intel Mac OS X 10_15_7) AppleWebKit/605.1.15 (KHTML, like Gecko) Version/18.3.1 Safari/605.1.15","Macintosh","Safari","18.3.1","OS X","10_15_7","https://hz8g1ckzuq.cognition.run/","en-US,en;q=0.9","7vun7gswvna313j","21","[""Asian"",""Black or African-American"",""White""]","Yes","Male","1098895","null","","<p></p>","null","choice","cdt","attraction_2","2","washing machines","null","null","null","null","null","null","2","","","","","","","","","",""
"","","","","","choice_trial","survey-html-form","143","965948","0.0-5.0-1.29","166","1","2025-04-14 14:23:26","bb671e3ae32f654b8954ea4c4635f915","","Mozilla/5.0 (Macintosh; Intel Mac OS X 10_15_7) AppleWebKit/605.1.15 (KHTML, like Gecko) Version/18.3.1 Safari/605.1.15","Macintosh","Safari","18.3.1","OS X","10_15_7","https://hz8g1ckzuq.cognition.run/","en-US,en;q=0.9","7vun7gswvna313j","21","[""Asian"",""Black or African-American"",""White""]","Yes","Male","1098895","4593","","","{""product_choice"":""A""}","choice","cdt","attraction_2","2","washing machines","null","null","null","null","null","null","2","50","60","40","60","50","60","Average lifespan","Energy savings","",""
"","","","","","choice_trial_setup","html-keyboard-response","144","966255","0.0-5.0-0.30","166","1","2025-04-14 14:23:26","bb671e3ae32f654b8954ea4c4635f915","","Mozilla/5.0 (Macintosh; Intel Mac OS X 10_15_7) AppleWebKit/605.1.15 (KHTML, like Gecko) Version/18.3.1 Safari/605.1.15","Macintosh","Safari","18.3.1","OS X","10_15_7","https://hz8g1ckzuq.cognition.run/","en-US,en;q=0.9","7vun7gswvna313j","21","[""Asian"",""Black or African-American"",""White""]","Yes","Male","1098895","null","","<p></p>","null","choice","wwb","catch","null","washing machines","70","50","50","40","25","15","1","","","","","","","","","",""
"","","","","","choice_trial","survey-html-form","145","969210","0.0-5.0-1.30","166","1","2025-04-14 14:23:26","bb671e3ae32f654b8954ea4c4635f915","","Mozilla/5.0 (Macintosh; Intel Mac OS X 10_15_7) AppleWebKit/605.1.15 (KHTML, like Gecko) Version/18.3.1 Safari/605.1.15","Macintosh","Safari","18.3.1","OS X","10_15_7","https://hz8g1ckzuq.cognition.run/","en-US,en;q=0.9","7vun7gswvna313j","21","[""Asian"",""Black or African-American"",""White""]","Yes","Male","1098895","2942","","","{""product_choice"":""C""}","choice","wwb","catch","null","washing machines","70","50","50","40","25","15","1","null","null","null","null","null","null","Average lifespan","Energy savings","",""
"","","","","","choice_trial_setup","html-keyboard-response","146","969517","0.0-5.0-0.31","166","1","2025-04-14 14:23:26","bb671e3ae32f654b8954ea4c4635f915","","Mozilla/5.0 (Macintosh; Intel Mac OS X 10_15_7) AppleWebKit/605.1.15 (KHTML, like Gecko) Version/18.3.1 Safari/605.1.15","Macintosh","Safari","18.3.1","OS X","10_15_7","https://hz8g1ckzuq.cognition.run/","en-US,en;q=0.9","7vun7gswvna313j","21","[""Asian"",""Black or African-American"",""White""]","Yes","Male","1098895","null","","<p></p>","null","choice","dct","repulsion_1","1","microwave ovens","null","null","null","null","null","null","1","","","","","","","","","",""
"","","","","","choice_trial","survey-html-form","147","972936","0.0-5.0-1.31","166","1","2025-04-14 14:23:26","bb671e3ae32f654b8954ea4c4635f915","","Mozilla/5.0 (Macintosh; Intel Mac OS X 10_15_7) AppleWebKit/605.1.15 (KHTML, like Gecko) Version/18.3.1 Safari/605.1.15","Macintosh","Safari","18.3.1","OS X","10_15_7","https://hz8g1ckzuq.cognition.run/","en-US,en;q=0.9","7vun7gswvna313j","21","[""Asian"",""Black or African-American"",""White""]","Yes","Male","1098895","3405","","","{""product_choice"":""B""}","choice","dct","repulsion_1","1","microwave ovens","null","null","null","null","null","null","1","100","90","100","30","40","25","Warranty","Cooking power","",""
"","","","","","choice_trial_setup","html-keyboard-response","148","973242","0.0-5.0-0.32","166","1","2025-04-14 14:23:26","bb671e3ae32f654b8954ea4c4635f915","","Mozilla/5.0 (Macintosh; Intel Mac OS X 10_15_7) AppleWebKit/605.1.15 (KHTML, like Gecko) Version/18.3.1 Safari/605.1.15","Macintosh","Safari","18.3.1","OS X","10_15_7","https://hz8g1ckzuq.cognition.run/","en-US,en;q=0.9","7vun7gswvna313j","21","[""Asian"",""Black or African-American"",""White""]","Yes","Male","1098895","null","","<p></p>","null","choice","tcd","repulsion_1","2","laptops","null","null","null","null","null","null","2","","","","","","","","","",""
