"success","timeout","failed_images","failed_audio","failed_video","screen_id","trial_type","trial_index","time_elapsed","internal_node_id","run_id","condition","recorded_at","source_code_version","ip","user_agent","device","browser","browser_version","platform","platform_version","referer","accept_language","ppt_id","age","race","ethnicity","gender","exp_duration","rt","view_history","stimulus","response","phase","order","effect","t_high","category","d1_best","d2_best","d1_worst1","d2_worst1","d1_worst2","d2_worst2","first_dim","d1_t","d1_c","d1_d","d2_t","d2_c","d2_d","d1_name","d2_name","strategy_response","question_order"
"true","false","[]","[]","[]","img preload","preload","0","72257","0.0-0.0","168","1","2025-04-14 14:23:57","bb671e3ae32f654b8954ea4c4635f915","","Mozilla/5.0 (Windows NT 10.0; Win64; x64) AppleWebKit/537.36 (KHTML, like Gecko) Chrome/125.0.0.0 Safari/537.36","WebKit","Chrome","125.0.0.0","Windows","10.0","https://hz8g1ckzuq.cognition.run/","en-US,en;q=0.9","gzvv773kh1ltxcx","32","[""White""]","No","Female","995819.3999999985","","","","","","","","","","","","","","","","","","","","","","","","","",""
"true","","","","","","fullscreen","1","92736","0.0-1.0","168","1","2025-04-14 14:23:57","bb671e3ae32f654b8954ea4c4635f915","","Mozilla/5.0 (Windows NT 10.0; Win64; x64) AppleWebKit/537.36 (KHTML, like Gecko) Chrome/125.0.0.0 Safari/537.36","WebKit","Chrome","125.0.0.0","Windows","10.0","https://hz8g1ckzuq.cognition.run/","en-US,en;q=0.9","gzvv773kh1ltxcx","32","[""White""]","No","Female","995819.3999999985","19475","","","","","","","","","","","","","","","","","","","","","","","","",""
"","","","","","","instructions","2","237881","0.0-2.0","168","1","2025-04-14 14:23:57","bb671e3ae32f654b8954ea4c4635f915","","Mozilla/5.0 (Windows NT 10.0; Win64; x64) AppleWebKit/537.36 (KHTML, like Gecko) Chrome/125.0.0.0 Safari/537.36","WebKit","Chrome","125.0.0.0","Windows","10.0","https://hz8g1ckzuq.cognition.run/","en-US,en;q=0.9","gzvv773kh1ltxcx","32","[""White""]","No","Female","995819.3999999985","145142","[{""page_index"":0,""viewing_time"":1605},{""page_index"":1,""viewing_time"":8024},{""page_index"":2,""viewing_time"":29927},{""page_index"":3,""viewing_time"":18560},{""page_index"":4,""viewing_time"":19873},{""page_index"":5,""viewing_time"":15960},{""page_index"":6,""viewing_time"":21632},{""page_index"":7,""viewing_time"":14992},{""page_index"":8,""viewing_time"":9224},{""page_index"":9,""viewing_time"":5344}]","","","","","","","","","","","","","","","","","","","","","","","",""
"","","","","","rating_trial_setup","html-keyboard-response","3","238190","0.0-3.0-0.0","168","1","2025-04-14 14:23:57","bb671e3ae32f654b8954ea4c4635f915","","Mozilla/5.0 (Windows NT 10.0; Win64; x64) AppleWebKit/537.36 (KHTML, like Gecko) Chrome/125.0.0.0 Safari/537.36","WebKit","Chrome","125.0.0.0","Windows","10.0","https://hz8g1ckzuq.cognition.run/","en-US,en;q=0.9","gzvv773kh1ltxcx","32","[""White""]","No","Female","995819.3999999985","null","","<p></p>","null","rating","dtc","repulsion_1","1","laptops","null","null","null","null","null","null","1","","","","","","","","","",""
"","","","","","rating_trial","survey-html-form","4","267305","0.0-3.0-1.0","168","1","2025-04-14 14:23:57","bb671e3ae32f654b8954ea4c4635f915","","Mozilla/5.0 (Windows NT 10.0; Win64; x64) AppleWebKit/537.36 (KHTML, like Gecko) Chrome/125.0.0.0 Safari/537.36","WebKit","Chrome","125.0.0.0","Windows","10.0","https://hz8g1ckzuq.cognition.run/","en-US,en;q=0.9","gzvv773kh1ltxcx","32","[""White""]","No","Female","995819.3999999985","29108","","","{""price_1"":""200"",""price_2"":""300"",""price_3"":""350""}","rating","dtc","repulsion_1","1","laptops","null","null","null","null","null","null","1","100","90","100","30","40","25","Processing speed","Memory (RAM)","",""
"","","","","","rating_trial_setup","html-keyboard-response","5","267609","0.0-3.0-0.1","168","1","2025-04-14 14:23:57","bb671e3ae32f654b8954ea4c4635f915","","Mozilla/5.0 (Windows NT 10.0; Win64; x64) AppleWebKit/537.36 (KHTML, like Gecko) Chrome/125.0.0.0 Safari/537.36","WebKit","Chrome","125.0.0.0","Windows","10.0","https://hz8g1ckzuq.cognition.run/","en-US,en;q=0.9","gzvv773kh1ltxcx","32","[""White""]","No","Female","995819.3999999985","null","","<p></p>","null","rating","cdt","attraction_1","1","washing machines","null","null","null","null","null","null","1","","","","","","","","","",""
"","","","","","rating_trial","survey-html-form","6","288769","0.0-3.0-1.1","168","1","2025-04-14 14:23:57","bb671e3ae32f654b8954ea4c4635f915","","Mozilla/5.0 (Windows NT 10.0; Win64; x64) AppleWebKit/537.36 (KHTML, like Gecko) Chrome/125.0.0.0 Safari/537.36","WebKit","Chrome","125.0.0.0","Windows","10.0","https://hz8g1ckzuq.cognition.run/","en-US,en;q=0.9","gzvv773kh1ltxcx","32","[""White""]","No","Female","995819.3999999985","21153","","","{""price_1"":""700"",""price_2"":""450"",""price_3"":""600""}","rating","cdt","attraction_1","1","washing machines","null","null","null","null","null","null","1","60","50","60","50","60","45","Average lifespan","Energy savings","",""
"","","","","","rating_trial_setup","html-keyboard-response","7","289078","0.0-3.0-0.2","168","1","2025-04-14 14:23:57","bb671e3ae32f654b8954ea4c4635f915","","Mozilla/5.0 (Windows NT 10.0; Win64; x64) AppleWebKit/537.36 (KHTML, like Gecko) Chrome/125.0.0.0 Safari/537.36","WebKit","Chrome","125.0.0.0","Windows","10.0","https://hz8g1ckzuq.cognition.run/","en-US,en;q=0.9","gzvv773kh1ltxcx","32","[""White""]","No","Female","995819.3999999985","null","","<p></p>","null","rating","tdc","attraction_1","2","laptops","null","null","null","null","null","null","2","","","","","","","","","",""
"","","","","","rating_trial","survey-html-form","8","299232","0.0-3.0-1.2","168","1","2025-04-14 14:23:57","bb671e3ae32f654b8954ea4c4635f915","","Mozilla/5.0 (Windows NT 10.0; Win64; x64) AppleWebKit/537.36 (KHTML, like Gecko) Chrome/125.0.0.0 Safari/537.36","WebKit","Chrome","125.0.0.0","Windows","10.0","https://hz8g1ckzuq.cognition.run/","en-US,en;q=0.9","gzvv773kh1ltxcx","32","[""White""]","No","Female","995819.3999999985","10148","","","{""price_1"":""400"",""price_2"":""300"",""price_3"":""450""}","rating","tdc","attraction_1","2","laptops","null","null","null","null","null","null","2","50","60","45","60","50","60","Processing speed","Memory (RAM)","",""
"","","","","","rating_trial_setup","html-keyboard-response","9","299534","0.0-3.0-0.3","168","1","2025-04-14 14:23:57","bb671e3ae32f654b8954ea4c4635f915","","Mozilla/5.0 (Windows NT 10.0; Win64; x64) AppleWebKit/537.36 (KHTML, like Gecko) Chrome/125.0.0.0 Safari/537.36","WebKit","Chrome","125.0.0.0","Windows","10.0","https://hz8g1ckzuq.cognition.run/","en-US,en;q=0.9","gzvv773kh1ltxcx","32","[""White""]","No","Female","995819.3999999985","null","","<p></p>","null","rating","tcd","repulsion_2","1","televisions","null","null","null","null","null","null","1","","","","","","","","","",""
"","","","","","rating_trial","survey-html-form","10","313128","0.0-3.0-1.3","168","1","2025-04-14 14:23:57","bb671e3ae32f654b8954ea4c4635f915","","Mozilla/5.0 (Windows NT 10.0; Win64; x64) AppleWebKit/537.36 (KHTML, like Gecko) Chrome/125.0.0.0 Safari/537.36","WebKit","Chrome","125.0.0.0","Windows","10.0","https://hz8g1ckzuq.cognition.run/","en-US,en;q=0.9","gzvv773kh1ltxcx","32","[""White""]","No","Female","995819.3999999985","13588","","","{""price_1"":""780"",""price_2"":""80"",""price_3"":""650""}","rating","tcd","repulsion_2","1","televisions","null","null","null","null","null","null","1","100","90","100","30","40","20","Screen size","Average lifespan","",""
"","","","","","rating_trial_setup","html-keyboard-response","11","313432","0.0-3.0-0.4","168","1","2025-04-14 14:23:57","bb671e3ae32f654b8954ea4c4635f915","","Mozilla/5.0 (Windows NT 10.0; Win64; x64) AppleWebKit/537.36 (KHTML, like Gecko) Chrome/125.0.0.0 Safari/537.36","WebKit","Chrome","125.0.0.0","Windows","10.0","https://hz8g1ckzuq.cognition.run/","en-US,en;q=0.9","gzvv773kh1ltxcx","32","[""White""]","No","Female","995819.3999999985","null","","<p></p>","null","rating","tcd","repulsion_1","2","televisions","null","null","null","null","null","null","1","","","","","","","","","",""
"","","","","","rating_trial","survey-html-form","12","347137","0.0-3.0-1.4","168","1","2025-04-14 14:23:57","bb671e3ae32f654b8954ea4c4635f915","","Mozilla/5.0 (Windows NT 10.0; Win64; x64) AppleWebKit/537.36 (KHTML, like Gecko) Chrome/125.0.0.0 Safari/537.36","WebKit","Chrome","125.0.0.0","Windows","10.0","https://hz8g1ckzuq.cognition.run/","en-US,en;q=0.9","gzvv773kh1ltxcx","32","[""White""]","No","Female","995819.3999999985","33701","","","{""price_1"":""800"",""price_2"":""700"",""price_3"":""750""}","rating","tcd","repulsion_1","2","televisions","null","null","null","null","null","null","1","30","40","25","100","90","100","Screen size","Average lifespan","",""
"","","","","","rating_trial_setup","html-keyboard-response","13","347440","0.0-3.0-0.5","168","1","2025-04-14 14:23:57","bb671e3ae32f654b8954ea4c4635f915","","Mozilla/5.0 (Windows NT 10.0; Win64; x64) AppleWebKit/537.36 (KHTML, like Gecko) Chrome/125.0.0.0 Safari/537.36","WebKit","Chrome","125.0.0.0","Windows","10.0","https://hz8g1ckzuq.cognition.run/","en-US,en;q=0.9","gzvv773kh1ltxcx","32","[""White""]","No","Female","995819.3999999985","null","","<p></p>","null","rating","cdt","attraction_1","2","microwave ovens","null","null","null","null","null","null","2","","","","","","","","","",""
"","","","","","rating_trial","survey-html-form","14","367193","0.0-3.0-1.5","168","1","2025-04-14 14:23:57","bb671e3ae32f654b8954ea4c4635f915","","Mozilla/5.0 (Windows NT 10.0; Win64; x64) AppleWebKit/537.36 (KHTML, like Gecko) Chrome/125.0.0.0 Safari/537.36","WebKit","Chrome","125.0.0.0","Windows","10.0","https://hz8g1ckzuq.cognition.run/","en-US,en;q=0.9","gzvv773kh1ltxcx","32","[""White""]","No","Female","995819.3999999985","19747","","","{""price_1"":""450"",""price_2"":""400"",""price_3"":""420""}","rating","cdt","attraction_1","2","microwave ovens","null","null","null","null","null","null","2","50","60","45","60","50","60","Warranty","Cooking power","",""
"","","","","","rating_trial_setup","html-keyboard-response","15","367497","0.0-3.0-0.6","168","1","2025-04-14 14:23:57","bb671e3ae32f654b8954ea4c4635f915","","Mozilla/5.0 (Windows NT 10.0; Win64; x64) AppleWebKit/537.36 (KHTML, like Gecko) Chrome/125.0.0.0 Safari/537.36","WebKit","Chrome","125.0.0.0","Windows","10.0","https://hz8g1ckzuq.cognition.run/","en-US,en;q=0.9","gzvv773kh1ltxcx","32","[""White""]","No","Female","995819.3999999985","null","","<p></p>","null","rating","ctd","attraction_2","2","laptops","null","null","null","null","null","null","2","","","","","","","","","",""
"","","","","","rating_trial","survey-html-form","16","390129","0.0-3.0-1.6","168","1","2025-04-14 14:23:57","bb671e3ae32f654b8954ea4c4635f915","","Mozilla/5.0 (Windows NT 10.0; Win64; x64) AppleWebKit/537.36 (KHTML, like Gecko) Chrome/125.0.0.0 Safari/537.36","WebKit","Chrome","125.0.0.0","Windows","10.0","https://hz8g1ckzuq.cognition.run/","en-US,en;q=0.9","gzvv773kh1ltxcx","32","[""White""]","No","Female","995819.3999999985","22628","","","{""price_1"":""220"",""price_2"":""180"",""price_3"":""210""}","rating","ctd","attraction_2","2","laptops","null","null","null","null","null","null","2","50","60","40","60","50","60","Processing speed","Memory (RAM)","",""
"","","","","","rating_trial_setup","html-keyboard-response","17","390430","0.0-3.0-0.7","168","1","2025-04-14 14:23:57","bb671e3ae32f654b8954ea4c4635f915","","Mozilla/5.0 (Windows NT 10.0; Win64; x64) AppleWebKit/537.36 (KHTML, like Gecko) Chrome/125.0.0.0 Safari/537.36","WebKit","Chrome","125.0.0.0","Windows","10.0","https://hz8g1ckzuq.cognition.run/","en-US,en;q=0.9","gzvv773kh1ltxcx","32","[""White""]","No","Female","995819.3999999985","null","","<p></p>","null","rating","tdc","repulsion_2","1","laptops","null","null","null","null","null","null","1","","","","","","","","","",""
"","","","","","rating_trial","survey-html-form","18","399993","0.0-3.0-1.7","168","1","2025-04-14 14:23:57","bb671e3ae32f654b8954ea4c4635f915","","Mozilla/5.0 (Windows NT 10.0; Win64; x64) AppleWebKit/537.36 (KHTML, like Gecko) Chrome/125.0.0.0 Safari/537.36","WebKit","Chrome","125.0.0.0","Windows","10.0","https://hz8g1ckzuq.cognition.run/","en-US,en;q=0.9","gzvv773kh1ltxcx","32","[""White""]","No","Female","995819.3999999985","9559","","","{""price_1"":""320"",""price_2"":""250"",""price_3"":""270""}","rating","tdc","repulsion_2","1","laptops","null","null","null","null","null","null","1","100","90","100","30","40","20","Processing speed","Memory (RAM)","",""
"","","","","","rating_trial_setup","html-keyboard-response","19","400296","0.0-3.0-0.8","168","1","2025-04-14 14:23:57","bb671e3ae32f654b8954ea4c4635f915","","Mozilla/5.0 (Windows NT 10.0; Win64; x64) AppleWebKit/537.36 (KHTML, like Gecko) Chrome/125.0.0.0 Safari/537.36","WebKit","Chrome","125.0.0.0","Windows","10.0","https://hz8g1ckzuq.cognition.run/","en-US,en;q=0.9","gzvv773kh1ltxcx","32","[""White""]","No","Female","995819.3999999985","null","","<p></p>","null","rating","bww","catch","null","washing machines","50","65","5","20","35","50","2","","","","","","","","","",""
"","","","","","rating_trial","survey-html-form","20","407728","0.0-3.0-1.8","168","1","2025-04-14 14:23:57","bb671e3ae32f654b8954ea4c4635f915","","Mozilla/5.0 (Windows NT 10.0; Win64; x64) AppleWebKit/537.36 (KHTML, like Gecko) Chrome/125.0.0.0 Safari/537.36","WebKit","Chrome","125.0.0.0","Windows","10.0","https://hz8g1ckzuq.cognition.run/","en-US,en;q=0.9","gzvv773kh1ltxcx","32","[""White""]","No","Female","995819.3999999985","7427","","","{""price_1"":""650"",""price_2"":""450"",""price_3"":""630""}","rating","bww","catch","null","washing machines","50","65","5","20","35","50","2","null","null","null","null","null","null","Average lifespan","Energy savings","",""
"","","","","","rating_trial_setup","html-keyboard-response","21","408030","0.0-3.0-0.9","168","1","2025-04-14 14:23:57","bb671e3ae32f654b8954ea4c4635f915","","Mozilla/5.0 (Windows NT 10.0; Win64; x64) AppleWebKit/537.36 (KHTML, like Gecko) Chrome/125.0.0.0 Safari/537.36","WebKit","Chrome","125.0.0.0","Windows","10.0","https://hz8g1ckzuq.cognition.run/","en-US,en;q=0.9","gzvv773kh1ltxcx","32","[""White""]","No","Female","995819.3999999985","null","","<p></p>","null","rating","tdc","repulsion_1","1","washing machines","null","null","null","null","null","null","1","","","","","","","","","",""
"","","","","","rating_trial","survey-html-form","22","416385","0.0-3.0-1.9","168","1","2025-04-14 14:23:57","bb671e3ae32f654b8954ea4c4635f915","","Mozilla/5.0 (Windows NT 10.0; Win64; x64) AppleWebKit/537.36 (KHTML, like Gecko) Chrome/125.0.0.0 Safari/537.36","WebKit","Chrome","125.0.0.0","Windows","10.0","https://hz8g1ckzuq.cognition.run/","en-US,en;q=0.9","gzvv773kh1ltxcx","32","[""White""]","No","Female","995819.3999999985","8348","","","{""price_1"":""520"",""price_2"":""480"",""price_3"":""400""}","rating","tdc","repulsion_1","1","washing machines","null","null","null","null","null","null","1","100","90","100","30","40","25","Average lifespan","Energy savings","",""
"","","","","","rating_trial_setup","html-keyboard-response","23","416693","0.0-3.0-0.10","168","1","2025-04-14 14:23:57","bb671e3ae32f654b8954ea4c4635f915","","Mozilla/5.0 (Windows NT 10.0; Win64; x64) AppleWebKit/537.36 (KHTML, like Gecko) Chrome/125.0.0.0 Safari/537.36","WebKit","Chrome","125.0.0.0","Windows","10.0","https://hz8g1ckzuq.cognition.run/","en-US,en;q=0.9","gzvv773kh1ltxcx","32","[""White""]","No","Female","995819.3999999985","null","","<p></p>","null","rating","dtc","repulsion_2","2","laptops","null","null","null","null","null","null","2","","","","","","","","","",""
"","","","","","rating_trial","survey-html-form","24","430281","0.0-3.0-1.10","168","1","2025-04-14 14:23:57","bb671e3ae32f654b8954ea4c4635f915","","Mozilla/5.0 (Windows NT 10.0; Win64; x64) AppleWebKit/537.36 (KHTML, like Gecko) Chrome/125.0.0.0 Safari/537.36","WebKit","Chrome","125.0.0.0","Windows","10.0","https://hz8g1ckzuq.cognition.run/","en-US,en;q=0.9","gzvv773kh1ltxcx","32","[""White""]","No","Female","995819.3999999985","13582","","","{""price_1"":""250"",""price_2"":""200"",""price_3"":""240""}","rating","dtc","repulsion_2","2","laptops","null","null","null","null","null","null","2","30","40","20","100","90","100","Processing speed","Memory (RAM)","",""
"","","","","","rating_trial_setup","html-keyboard-response","25","430593","0.0-3.0-0.11","168","1","2025-04-14 14:23:57","bb671e3ae32f654b8954ea4c4635f915","","Mozilla/5.0 (Windows NT 10.0; Win64; x64) AppleWebKit/537.36 (KHTML, like Gecko) Chrome/125.0.0.0 Safari/537.36","WebKit","Chrome","125.0.0.0","Windows","10.0","https://hz8g1ckzuq.cognition.run/","en-US,en;q=0.9","gzvv773kh1ltxcx","32","[""White""]","No","Female","995819.3999999985","null","","<p></p>","null","rating","ctd","attraction_2","2","washing machines","null","null","null","null","null","null","1","","","","","","","","","",""
"","","","","","rating_trial","survey-html-form","26","440585","0.0-3.0-1.11","168","1","2025-04-14 14:23:57","bb671e3ae32f654b8954ea4c4635f915","","Mozilla/5.0 (Windows NT 10.0; Win64; x64) AppleWebKit/537.36 (KHTML, like Gecko) Chrome/125.0.0.0 Safari/537.36","WebKit","Chrome","125.0.0.0","Windows","10.0","https://hz8g1ckzuq.cognition.run/","en-US,en;q=0.9","gzvv773kh1ltxcx","32","[""White""]","No","Female","995819.3999999985","9988","","","{""price_1"":""850"",""price_2"":""458"",""price_3"":""650""}","rating","ctd","attraction_2","2","washing machines","null","null","null","null","null","null","1","50","60","40","60","50","60","Average lifespan","Energy savings","",""
"","","","","","rating_trial_setup","html-keyboard-response","27","440888","0.0-3.0-0.12","168","1","2025-04-14 14:23:57","bb671e3ae32f654b8954ea4c4635f915","","Mozilla/5.0 (Windows NT 10.0; Win64; x64) AppleWebKit/537.36 (KHTML, like Gecko) Chrome/125.0.0.0 Safari/537.36","WebKit","Chrome","125.0.0.0","Windows","10.0","https://hz8g1ckzuq.cognition.run/","en-US,en;q=0.9","gzvv773kh1ltxcx","32","[""White""]","No","Female","995819.3999999985","null","","<p></p>","null","rating","dct","attraction_2","1","televisions","null","null","null","null","null","null","2","","","","","","","","","",""
"","","","","","rating_trial","survey-html-form","28","448177","0.0-3.0-1.12","168","1","2025-04-14 14:23:57","bb671e3ae32f654b8954ea4c4635f915","","Mozilla/5.0 (Windows NT 10.0; Win64; x64) AppleWebKit/537.36 (KHTML, like Gecko) Chrome/125.0.0.0 Safari/537.36","WebKit","Chrome","125.0.0.0","Windows","10.0","https://hz8g1ckzuq.cognition.run/","en-US,en;q=0.9","gzvv773kh1ltxcx","32","[""White""]","No","Female","995819.3999999985","7283","","","{""price_1"":""450"",""price_2"":""350"",""price_3"":""255""}","rating","dct","attraction_2","1","televisions","null","null","null","null","null","null","2","60","50","60","50","60","40","Screen size","Average lifespan","",""
"","","","","","rating_trial_setup","html-keyboard-response","29","448489","0.0-3.0-0.13","168","1","2025-04-14 14:23:57","bb671e3ae32f654b8954ea4c4635f915","","Mozilla/5.0 (Windows NT 10.0; Win64; x64) AppleWebKit/537.36 (KHTML, like Gecko) Chrome/125.0.0.0 Safari/537.36","WebKit","Chrome","125.0.0.0","Windows","10.0","https://hz8g1ckzuq.cognition.run/","en-US,en;q=0.9","gzvv773kh1ltxcx","32","[""White""]","No","Female","995819.3999999985","null","","<p></p>","null","rating","cdt","attraction_1","2","televisions","null","null","null","null","null","null","1","","","","","","","","","",""
"","","","","","rating_trial","survey-html-form","30","458481","0.0-3.0-1.13","168","1","2025-04-14 14:23:57","bb671e3ae32f654b8954ea4c4635f915","","Mozilla/5.0 (Windows NT 10.0; Win64; x64) AppleWebKit/537.36 (KHTML, like Gecko) Chrome/125.0.0.0 Safari/537.36","WebKit","Chrome","125.0.0.0","Windows","10.0","https://hz8g1ckzuq.cognition.run/","en-US,en;q=0.9","gzvv773kh1ltxcx","32","[""White""]","No","Female","995819.3999999985","9987","","","{""price_1"":""550"",""price_2"":""450"",""price_3"":""260""}","rating","cdt","attraction_1","2","televisions","null","null","null","null","null","null","1","50","60","45","60","50","60","Screen size","Average lifespan","",""
"","","","","","rating_trial_setup","html-keyboard-response","31","458786","0.0-3.0-0.14","168","1","2025-04-14 14:23:57","bb671e3ae32f654b8954ea4c4635f915","","Mozilla/5.0 (Windows NT 10.0; Win64; x64) AppleWebKit/537.36 (KHTML, like Gecko) Chrome/125.0.0.0 Safari/537.36","WebKit","Chrome","125.0.0.0","Windows","10.0","https://hz8g1ckzuq.cognition.run/","en-US,en;q=0.9","gzvv773kh1ltxcx","32","[""White""]","No","Female","995819.3999999985","null","","<p></p>","null","rating","wwb","catch","null","televisions","65","95","10","45","20","30","1","","","","","","","","","",""
"","","","","","rating_trial","survey-html-form","32","485752","0.0-3.0-1.14","168","1","2025-04-14 14:23:57","bb671e3ae32f654b8954ea4c4635f915","","Mozilla/5.0 (Windows NT 10.0; Win64; x64) AppleWebKit/537.36 (KHTML, like Gecko) Chrome/125.0.0.0 Safari/537.36","WebKit","Chrome","125.0.0.0","Windows","10.0","https://hz8g1ckzuq.cognition.run/","en-US,en;q=0.9","gzvv773kh1ltxcx","32","[""White""]","No","Female","995819.3999999985","26961","","","{""price_1"":""450"",""price_2"":""350"",""price_3"":""300""}","rating","wwb","catch","null","televisions","65","95","10","45","20","30","1","null","null","null","null","null","null","Screen size","Average lifespan","",""
"","","","","","rating_trial_setup","html-keyboard-response","33","486054","0.0-3.0-0.15","168","1","2025-04-14 14:23:57","bb671e3ae32f654b8954ea4c4635f915","","Mozilla/5.0 (Windows NT 10.0; Win64; x64) AppleWebKit/537.36 (KHTML, like Gecko) Chrome/125.0.0.0 Safari/537.36","WebKit","Chrome","125.0.0.0","Windows","10.0","https://hz8g1ckzuq.cognition.run/","en-US,en;q=0.9","gzvv773kh1ltxcx","32","[""White""]","No","Female","995819.3999999985","null","","<p></p>","null","rating","cdt","attraction_2","2","televisions","null","null","null","null","null","null","2","","","","","","","","","",""
"","","","","","rating_trial","survey-html-form","34","494392","0.0-3.0-1.15","168","1","2025-04-14 14:23:57","bb671e3ae32f654b8954ea4c4635f915","","Mozilla/5.0 (Windows NT 10.0; Win64; x64) AppleWebKit/537.36 (KHTML, like Gecko) Chrome/125.0.0.0 Safari/537.36","WebKit","Chrome","125.0.0.0","Windows","10.0","https://hz8g1ckzuq.cognition.run/","en-US,en;q=0.9","gzvv773kh1ltxcx","32","[""White""]","No","Female","995819.3999999985","8331","","","{""price_1"":""400"",""price_2"":""260"",""price_3"":""200""}","rating","cdt","attraction_2","2","televisions","null","null","null","null","null","null","2","50","60","40","60","50","60","Screen size","Average lifespan","",""
"","","","","","rating_trial_setup","html-keyboard-response","35","494696","0.0-3.0-0.16","168","1","2025-04-14 14:23:57","bb671e3ae32f654b8954ea4c4635f915","","Mozilla/5.0 (Windows NT 10.0; Win64; x64) AppleWebKit/537.36 (KHTML, like Gecko) Chrome/125.0.0.0 Safari/537.36","WebKit","Chrome","125.0.0.0","Windows","10.0","https://hz8g1ckzuq.cognition.run/","en-US,en;q=0.9","gzvv773kh1ltxcx","32","[""White""]","No","Female","995819.3999999985","null","","<p></p>","null","rating","wbw","catch","null","laptops","60","70","15","50","50","5","2","","","","","","","","","",""
"","","","","","rating_trial","survey-html-form","36","500784","0.0-3.0-1.16","168","1","2025-04-14 14:23:57","bb671e3ae32f654b8954ea4c4635f915","","Mozilla/5.0 (Windows NT 10.0; Win64; x64) AppleWebKit/537.36 (KHTML, like Gecko) Chrome/125.0.0.0 Safari/537.36","WebKit","Chrome","125.0.0.0","Windows","10.0","https://hz8g1ckzuq.cognition.run/","en-US,en;q=0.9","gzvv773kh1ltxcx","32","[""White""]","No","Female","995819.3999999985","6084","","","{""price_1"":""320"",""price_2"":""280"",""price_3"":""200""}","rating","wbw","catch","null","laptops","60","70","15","50","50","5","2","null","null","null","null","null","null","Processing speed","Memory (RAM)","",""
"","","","","","rating_trial_setup","html-keyboard-response","37","501088","0.0-3.0-0.17","168","1","2025-04-14 14:23:57","bb671e3ae32f654b8954ea4c4635f915","","Mozilla/5.0 (Windows NT 10.0; Win64; x64) AppleWebKit/537.36 (KHTML, like Gecko) Chrome/125.0.0.0 Safari/537.36","WebKit","Chrome","125.0.0.0","Windows","10.0","https://hz8g1ckzuq.cognition.run/","en-US,en;q=0.9","gzvv773kh1ltxcx","32","[""White""]","No","Female","995819.3999999985","null","","<p></p>","null","rating","dtc","attraction_2","1","washing machines","null","null","null","null","null","null","1","","","","","","","","","",""
"","","","","","rating_trial","survey-html-form","38","507794","0.0-3.0-1.17","168","1","2025-04-14 14:23:57","bb671e3ae32f654b8954ea4c4635f915","","Mozilla/5.0 (Windows NT 10.0; Win64; x64) AppleWebKit/537.36 (KHTML, like Gecko) Chrome/125.0.0.0 Safari/537.36","WebKit","Chrome","125.0.0.0","Windows","10.0","https://hz8g1ckzuq.cognition.run/","en-US,en;q=0.9","gzvv773kh1ltxcx","32","[""White""]","No","Female","995819.3999999985","6701","","","{""price_1"":""630"",""price_2"":""450"",""price_3"":""400""}","rating","dtc","attraction_2","1","washing machines","null","null","null","null","null","null","1","60","50","60","50","60","40","Average lifespan","Energy savings","",""
"","","","","","rating_trial_setup","html-keyboard-response","39","508102","0.0-3.0-0.18","168","1","2025-04-14 14:23:57","bb671e3ae32f654b8954ea4c4635f915","","Mozilla/5.0 (Windows NT 10.0; Win64; x64) AppleWebKit/537.36 (KHTML, like Gecko) Chrome/125.0.0.0 Safari/537.36","WebKit","Chrome","125.0.0.0","Windows","10.0","https://hz8g1ckzuq.cognition.run/","en-US,en;q=0.9","gzvv773kh1ltxcx","32","[""White""]","No","Female","995819.3999999985","null","","<p></p>","null","rating","ctd","repulsion_1","1","microwave ovens","null","null","null","null","null","null","1","","","","","","","","","",""
"","","","","","rating_trial","survey-html-form","40","515153","0.0-3.0-1.18","168","1","2025-04-14 14:23:57","bb671e3ae32f654b8954ea4c4635f915","","Mozilla/5.0 (Windows NT 10.0; Win64; x64) AppleWebKit/537.36 (KHTML, like Gecko) Chrome/125.0.0.0 Safari/537.36","WebKit","Chrome","125.0.0.0","Windows","10.0","https://hz8g1ckzuq.cognition.run/","en-US,en;q=0.9","gzvv773kh1ltxcx","32","[""White""]","No","Female","995819.3999999985","7047","","","{""price_1"":""430"",""price_2"":""350"",""price_3"":""250""}","rating","ctd","repulsion_1","1","microwave ovens","null","null","null","null","null","null","1","100","90","100","30","40","25","Warranty","Cooking power","",""
"","","","","","rating_trial_setup","html-keyboard-response","41","515455","0.0-3.0-0.19","168","1","2025-04-14 14:23:57","bb671e3ae32f654b8954ea4c4635f915","","Mozilla/5.0 (Windows NT 10.0; Win64; x64) AppleWebKit/537.36 (KHTML, like Gecko) Chrome/125.0.0.0 Safari/537.36","WebKit","Chrome","125.0.0.0","Windows","10.0","https://hz8g1ckzuq.cognition.run/","en-US,en;q=0.9","gzvv773kh1ltxcx","32","[""White""]","No","Female","995819.3999999985","null","","<p></p>","null","rating","dct","repulsion_2","2","televisions","null","null","null","null","null","null","2","","","","","","","","","",""
"","","","","","rating_trial","survey-html-form","42","522616","0.0-3.0-1.19","168","1","2025-04-14 14:23:57","bb671e3ae32f654b8954ea4c4635f915","","Mozilla/5.0 (Windows NT 10.0; Win64; x64) AppleWebKit/537.36 (KHTML, like Gecko) Chrome/125.0.0.0 Safari/537.36","WebKit","Chrome","125.0.0.0","Windows","10.0","https://hz8g1ckzuq.cognition.run/","en-US,en;q=0.9","gzvv773kh1ltxcx","32","[""White""]","No","Female","995819.3999999985","7154","","","{""price_1"":""420"",""price_2"":""350"",""price_3"":""300""}","rating","dct","repulsion_2","2","televisions","null","null","null","null","null","null","2","30","40","20","100","90","100","Screen size","Average lifespan","",""
"","","","","","rating_trial_setup","html-keyboard-response","43","522919","0.0-3.0-0.20","168","1","2025-04-14 14:23:57","bb671e3ae32f654b8954ea4c4635f915","","Mozilla/5.0 (Windows NT 10.0; Win64; x64) AppleWebKit/537.36 (KHTML, like Gecko) Chrome/125.0.0.0 Safari/537.36","WebKit","Chrome","125.0.0.0","Windows","10.0","https://hz8g1ckzuq.cognition.run/","en-US,en;q=0.9","gzvv773kh1ltxcx","32","[""White""]","No","Female","995819.3999999985","null","","<p></p>","null","rating","wwb","catch","null","microwave ovens","80","50","35","30","25","50","2","","","","","","","","","",""
"","","","","","rating_trial","survey-html-form","44","528937","0.0-3.0-1.20","168","1","2025-04-14 14:23:57","bb671e3ae32f654b8954ea4c4635f915","","Mozilla/5.0 (Windows NT 10.0; Win64; x64) AppleWebKit/537.36 (KHTML, like Gecko) Chrome/125.0.0.0 Safari/537.36","WebKit","Chrome","125.0.0.0","Windows","10.0","https://hz8g1ckzuq.cognition.run/","en-US,en;q=0.9","gzvv773kh1ltxcx","32","[""White""]","No","Female","995819.3999999985","6014","","","{""price_1"":""450"",""price_2"":""350"",""price_3"":""250""}","rating","wwb","catch","null","microwave ovens","80","50","35","30","25","50","2","null","null","null","null","null","null","Warranty","Cooking power","",""
"","","","","","rating_trial_setup","html-keyboard-response","45","529240","0.0-3.0-0.21","168","1","2025-04-14 14:23:57","bb671e3ae32f654b8954ea4c4635f915","","Mozilla/5.0 (Windows NT 10.0; Win64; x64) AppleWebKit/537.36 (KHTML, like Gecko) Chrome/125.0.0.0 Safari/537.36","WebKit","Chrome","125.0.0.0","Windows","10.0","https://hz8g1ckzuq.cognition.run/","en-US,en;q=0.9","gzvv773kh1ltxcx","32","[""White""]","No","Female","995819.3999999985","null","","<p></p>","null","rating","ctd","attraction_1","1","microwave ovens","null","null","null","null","null","null","2","","","","","","","","","",""
"","","","","","rating_trial","survey-html-form","46","537753","0.0-3.0-1.21","168","1","2025-04-14 14:23:57","bb671e3ae32f654b8954ea4c4635f915","","Mozilla/5.0 (Windows NT 10.0; Win64; x64) AppleWebKit/537.36 (KHTML, like Gecko) Chrome/125.0.0.0 Safari/537.36","WebKit","Chrome","125.0.0.0","Windows","10.0","https://hz8g1ckzuq.cognition.run/","en-US,en;q=0.9","gzvv773kh1ltxcx","32","[""White""]","No","Female","995819.3999999985","8506","","","{""price_1"":""350"",""price_2"":""250"",""price_3"":""200""}","rating","ctd","attraction_1","1","microwave ovens","null","null","null","null","null","null","2","60","50","60","50","60","45","Warranty","Cooking power","",""
"","","","","","rating_trial_setup","html-keyboard-response","47","538056","0.0-3.0-0.22","168","1","2025-04-14 14:23:57","bb671e3ae32f654b8954ea4c4635f915","","Mozilla/5.0 (Windows NT 10.0; Win64; x64) AppleWebKit/537.36 (KHTML, like Gecko) Chrome/125.0.0.0 Safari/537.36","WebKit","Chrome","125.0.0.0","Windows","10.0","https://hz8g1ckzuq.cognition.run/","en-US,en;q=0.9","gzvv773kh1ltxcx","32","[""White""]","No","Female","995819.3999999985","null","","<p></p>","null","rating","dct","repulsion_1","2","washing machines","null","null","null","null","null","null","1","","","","","","","","","",""
"","","","","","rating_trial","survey-html-form","48","547888","0.0-3.0-1.22","168","1","2025-04-14 14:23:57","bb671e3ae32f654b8954ea4c4635f915","","Mozilla/5.0 (Windows NT 10.0; Win64; x64) AppleWebKit/537.36 (KHTML, like Gecko) Chrome/125.0.0.0 Safari/537.36","WebKit","Chrome","125.0.0.0","Windows","10.0","https://hz8g1ckzuq.cognition.run/","en-US,en;q=0.9","gzvv773kh1ltxcx","32","[""White""]","No","Female","995819.3999999985","9825","","","{""price_1"":""650"",""price_2"":""500"",""price_3"":""450""}","rating","dct","repulsion_1","2","washing machines","null","null","null","null","null","null","1","30","40","25","100","90","100","Average lifespan","Energy savings","",""
"","","","","","rating_trial_setup","html-keyboard-response","49","548192","0.0-3.0-0.23","168","1","2025-04-14 14:23:57","bb671e3ae32f654b8954ea4c4635f915","","Mozilla/5.0 (Windows NT 10.0; Win64; x64) AppleWebKit/537.36 (KHTML, like Gecko) Chrome/125.0.0.0 Safari/537.36","WebKit","Chrome","125.0.0.0","Windows","10.0","https://hz8g1ckzuq.cognition.run/","en-US,en;q=0.9","gzvv773kh1ltxcx","32","[""White""]","No","Female","995819.3999999985","null","","<p></p>","null","rating","wwb","catch","null","washing machines","70","50","40","10","35","45","1","","","","","","","","","",""
"","","","","","rating_trial","survey-html-form","50","554784","0.0-3.0-1.23","168","1","2025-04-14 14:23:57","bb671e3ae32f654b8954ea4c4635f915","","Mozilla/5.0 (Windows NT 10.0; Win64; x64) AppleWebKit/537.36 (KHTML, like Gecko) Chrome/125.0.0.0 Safari/537.36","WebKit","Chrome","125.0.0.0","Windows","10.0","https://hz8g1ckzuq.cognition.run/","en-US,en;q=0.9","gzvv773kh1ltxcx","32","[""White""]","No","Female","995819.3999999985","6587","","","{""price_1"":""600"",""price_2"":""550"",""price_3"":""400""}","rating","wwb","catch","null","washing machines","70","50","40","10","35","45","1","null","null","null","null","null","null","Average lifespan","Energy savings","",""
"","","","","","rating_trial_setup","html-keyboard-response","51","555092","0.0-3.0-0.24","168","1","2025-04-14 14:23:57","bb671e3ae32f654b8954ea4c4635f915","","Mozilla/5.0 (Windows NT 10.0; Win64; x64) AppleWebKit/537.36 (KHTML, like Gecko) Chrome/125.0.0.0 Safari/537.36","WebKit","Chrome","125.0.0.0","Windows","10.0","https://hz8g1ckzuq.cognition.run/","en-US,en;q=0.9","gzvv773kh1ltxcx","32","[""White""]","No","Female","995819.3999999985","null","","<p></p>","null","rating","ctd","repulsion_2","2","washing machines","null","null","null","null","null","null","2","","","","","","","","","",""
"","","","","","rating_trial","survey-html-form","52","560896","0.0-3.0-1.24","168","1","2025-04-14 14:23:57","bb671e3ae32f654b8954ea4c4635f915","","Mozilla/5.0 (Windows NT 10.0; Win64; x64) AppleWebKit/537.36 (KHTML, like Gecko) Chrome/125.0.0.0 Safari/537.36","WebKit","Chrome","125.0.0.0","Windows","10.0","https://hz8g1ckzuq.cognition.run/","en-US,en;q=0.9","gzvv773kh1ltxcx","32","[""White""]","No","Female","995819.3999999985","5797","","","{""price_1"":""650"",""price_2"":""400"",""price_3"":""450""}","rating","ctd","repulsion_2","2","washing machines","null","null","null","null","null","null","2","30","40","20","100","90","100","Average lifespan","Energy savings","",""
"","","","","","rating_trial_setup","html-keyboard-response","53","561202","0.0-3.0-0.25","168","1","2025-04-14 14:23:57","bb671e3ae32f654b8954ea4c4635f915","","Mozilla/5.0 (Windows NT 10.0; Win64; x64) AppleWebKit/537.36 (KHTML, like Gecko) Chrome/125.0.0.0 Safari/537.36","WebKit","Chrome","125.0.0.0","Windows","10.0","https://hz8g1ckzuq.cognition.run/","en-US,en;q=0.9","gzvv773kh1ltxcx","32","[""White""]","No","Female","995819.3999999985","null","","<p></p>","null","rating","bww","catch","null","laptops","90","80","20","20","50","40","2","","","","","","","","","",""
"","","","","","rating_trial","survey-html-form","54","567577","0.0-3.0-1.25","168","1","2025-04-14 14:23:57","bb671e3ae32f654b8954ea4c4635f915","","Mozilla/5.0 (Windows NT 10.0; Win64; x64) AppleWebKit/537.36 (KHTML, like Gecko) Chrome/125.0.0.0 Safari/537.36","WebKit","Chrome","125.0.0.0","Windows","10.0","https://hz8g1ckzuq.cognition.run/","en-US,en;q=0.9","gzvv773kh1ltxcx","32","[""White""]","No","Female","995819.3999999985","6367","","","{""price_1"":""250"",""price_2"":""230"",""price_3"":""200""}","rating","bww","catch","null","laptops","90","80","20","20","50","40","2","null","null","null","null","null","null","Processing speed","Memory (RAM)","",""
"","","","","","rating_trial_setup","html-keyboard-response","55","567888","0.0-3.0-0.26","168","1","2025-04-14 14:23:57","bb671e3ae32f654b8954ea4c4635f915","","Mozilla/5.0 (Windows NT 10.0; Win64; x64) AppleWebKit/537.36 (KHTML, like Gecko) Chrome/125.0.0.0 Safari/537.36","WebKit","Chrome","125.0.0.0","Windows","10.0","https://hz8g1ckzuq.cognition.run/","en-US,en;q=0.9","gzvv773kh1ltxcx","32","[""White""]","No","Female","995819.3999999985","null","","<p></p>","null","rating","tcd","attraction_1","1","televisions","null","null","null","null","null","null","2","","","","","","","","","",""
"","","","","","rating_trial","survey-html-form","56","573544","0.0-3.0-1.26","168","1","2025-04-14 14:23:57","bb671e3ae32f654b8954ea4c4635f915","","Mozilla/5.0 (Windows NT 10.0; Win64; x64) AppleWebKit/537.36 (KHTML, like Gecko) Chrome/125.0.0.0 Safari/537.36","WebKit","Chrome","125.0.0.0","Windows","10.0","https://hz8g1ckzuq.cognition.run/","en-US,en;q=0.9","gzvv773kh1ltxcx","32","[""White""]","No","Female","995819.3999999985","5649","","","{""price_1"":""450"",""price_2"":""325"",""price_3"":""300""}","rating","tcd","attraction_1","1","televisions","null","null","null","null","null","null","2","60","50","60","50","60","45","Screen size","Average lifespan","",""
"","","","","","rating_trial_setup","html-keyboard-response","57","573848","0.0-3.0-0.27","168","1","2025-04-14 14:23:57","bb671e3ae32f654b8954ea4c4635f915","","Mozilla/5.0 (Windows NT 10.0; Win64; x64) AppleWebKit/537.36 (KHTML, like Gecko) Chrome/125.0.0.0 Safari/537.36","WebKit","Chrome","125.0.0.0","Windows","10.0","https://hz8g1ckzuq.cognition.run/","en-US,en;q=0.9","gzvv773kh1ltxcx","32","[""White""]","No","Female","995819.3999999985","null","","<p></p>","null","rating","wbw","catch","null","microwave ovens","95","60","50","25","30","15","1","","","","","","","","","",""
"","","","","","rating_trial","survey-html-form","58","581704","0.0-3.0-1.27","168","1","2025-04-14 14:23:57","bb671e3ae32f654b8954ea4c4635f915","","Mozilla/5.0 (Windows NT 10.0; Win64; x64) AppleWebKit/537.36 (KHTML, like Gecko) Chrome/125.0.0.0 Safari/537.36","WebKit","Chrome","125.0.0.0","Windows","10.0","https://hz8g1ckzuq.cognition.run/","en-US,en;q=0.9","gzvv773kh1ltxcx","32","[""White""]","No","Female","995819.3999999985","7851","","","{""price_1"":""350"",""price_2"":""230"",""price_3"":""200""}","rating","wbw","catch","null","microwave ovens","95","60","50","25","30","15","1","null","null","null","null","null","null","Warranty","Cooking power","",""
"","","","","","rating_trial_setup","html-keyboard-response","59","582009","0.0-3.0-0.28","168","1","2025-04-14 14:23:57","bb671e3ae32f654b8954ea4c4635f915","","Mozilla/5.0 (Windows NT 10.0; Win64; x64) AppleWebKit/537.36 (KHTML, like Gecko) Chrome/125.0.0.0 Safari/537.36","WebKit","Chrome","125.0.0.0","Windows","10.0","https://hz8g1ckzuq.cognition.run/","en-US,en;q=0.9","gzvv773kh1ltxcx","32","[""White""]","No","Female","995819.3999999985","null","","<p></p>","null","rating","dtc","repulsion_1","1","televisions","null","null","null","null","null","null","1","","","","","","","","","",""
"","","","","","rating_trial","survey-html-form","60","590601","0.0-3.0-1.28","168","1","2025-04-14 14:23:57","bb671e3ae32f654b8954ea4c4635f915","","Mozilla/5.0 (Windows NT 10.0; Win64; x64) AppleWebKit/537.36 (KHTML, like Gecko) Chrome/125.0.0.0 Safari/537.36","WebKit","Chrome","125.0.0.0","Windows","10.0","https://hz8g1ckzuq.cognition.run/","en-US,en;q=0.9","gzvv773kh1ltxcx","32","[""White""]","No","Female","995819.3999999985","8583","","","{""price_1"":""420"",""price_2"":""400"",""price_3"":""360""}","rating","dtc","repulsion_1","1","televisions","null","null","null","null","null","null","1","100","90","100","30","40","25","Screen size","Average lifespan","",""
"","","","","","rating_trial_setup","html-keyboard-response","61","590904","0.0-3.0-0.29","168","1","2025-04-14 14:23:57","bb671e3ae32f654b8954ea4c4635f915","","Mozilla/5.0 (Windows NT 10.0; Win64; x64) AppleWebKit/537.36 (KHTML, like Gecko) Chrome/125.0.0.0 Safari/537.36","WebKit","Chrome","125.0.0.0","Windows","10.0","https://hz8g1ckzuq.cognition.run/","en-US,en;q=0.9","gzvv773kh1ltxcx","32","[""White""]","No","Female","995819.3999999985","null","","<p></p>","null","rating","tcd","repulsion_2","1","washing machines","null","null","null","null","null","null","1","","","","","","","","","",""
"","","","","","rating_trial","survey-html-form","62","604095","0.0-3.0-1.29","168","1","2025-04-14 14:23:57","bb671e3ae32f654b8954ea4c4635f915","","Mozilla/5.0 (Windows NT 10.0; Win64; x64) AppleWebKit/537.36 (KHTML, like Gecko) Chrome/125.0.0.0 Safari/537.36","WebKit","Chrome","125.0.0.0","Windows","10.0","https://hz8g1ckzuq.cognition.run/","en-US,en;q=0.9","gzvv773kh1ltxcx","32","[""White""]","No","Female","995819.3999999985","13182","","","{""price_1"":""680"",""price_2"":""460"",""price_3"":""360""}","rating","tcd","repulsion_2","1","washing machines","null","null","null","null","null","null","1","100","90","100","30","40","20","Average lifespan","Energy savings","",""
"","","","","","rating_trial_setup","html-keyboard-response","63","604408","0.0-3.0-0.30","168","1","2025-04-14 14:23:57","bb671e3ae32f654b8954ea4c4635f915","","Mozilla/5.0 (Windows NT 10.0; Win64; x64) AppleWebKit/537.36 (KHTML, like Gecko) Chrome/125.0.0.0 Safari/537.36","WebKit","Chrome","125.0.0.0","Windows","10.0","https://hz8g1ckzuq.cognition.run/","en-US,en;q=0.9","gzvv773kh1ltxcx","32","[""White""]","No","Female","995819.3999999985","null","","<p></p>","null","rating","cdt","attraction_2","1","microwave ovens","null","null","null","null","null","null","1","","","","","","","","","",""
"","","","","","rating_trial","survey-html-form","64","612158","0.0-3.0-1.30","168","1","2025-04-14 14:23:57","bb671e3ae32f654b8954ea4c4635f915","","Mozilla/5.0 (Windows NT 10.0; Win64; x64) AppleWebKit/537.36 (KHTML, like Gecko) Chrome/125.0.0.0 Safari/537.36","WebKit","Chrome","125.0.0.0","Windows","10.0","https://hz8g1ckzuq.cognition.run/","en-US,en;q=0.9","gzvv773kh1ltxcx","32","[""White""]","No","Female","995819.3999999985","7743","","","{""price_1"":""350"",""price_2"":""250"",""price_3"":""200""}","rating","cdt","attraction_2","1","microwave ovens","null","null","null","null","null","null","1","60","50","60","50","60","40","Warranty","Cooking power","",""
"","","","","","rating_trial_setup","html-keyboard-response","65","612465","0.0-3.0-0.31","168","1","2025-04-14 14:23:57","bb671e3ae32f654b8954ea4c4635f915","","Mozilla/5.0 (Windows NT 10.0; Win64; x64) AppleWebKit/537.36 (KHTML, like Gecko) Chrome/125.0.0.0 Safari/537.36","WebKit","Chrome","125.0.0.0","Windows","10.0","https://hz8g1ckzuq.cognition.run/","en-US,en;q=0.9","gzvv773kh1ltxcx","32","[""White""]","No","Female","995819.3999999985","null","","<p></p>","null","rating","dtc","attraction_2","1","laptops","null","null","null","null","null","null","2","","","","","","","","","",""
"","","","","","rating_trial","survey-html-form","66","618484","0.0-3.0-1.31","168","1","2025-04-14 14:23:57","bb671e3ae32f654b8954ea4c4635f915","","Mozilla/5.0 (Windows NT 10.0; Win64; x64) AppleWebKit/537.36 (KHTML, like Gecko) Chrome/125.0.0.0 Safari/537.36","WebKit","Chrome","125.0.0.0","Windows","10.0","https://hz8g1ckzuq.cognition.run/","en-US,en;q=0.9","gzvv773kh1ltxcx","32","[""White""]","No","Female","995819.3999999985","6013","","","{""price_1"":""230"",""price_2"":""200"",""price_3"":""180""}","rating","dtc","attraction_2","1","laptops","null","null","null","null","null","null","2","60","50","60","50","60","40","Processing speed","Memory (RAM)","",""
"","","","","","rating_trial_setup","html-keyboard-response","67","618794","0.0-3.0-0.32","168","1","2025-04-14 14:23:57","bb671e3ae32f654b8954ea4c4635f915","","Mozilla/5.0 (Windows NT 10.0; Win64; x64) AppleWebKit/537.36 (KHTML, like Gecko) Chrome/125.0.0.0 Safari/537.36","WebKit","Chrome","125.0.0.0","Windows","10.0","https://hz8g1ckzuq.cognition.run/","en-US,en;q=0.9","gzvv773kh1ltxcx","32","[""White""]","No","Female","995819.3999999985","null","","<p></p>","null","rating","bww","catch","null","televisions","95","55","15","50","10","15","1","","","","","","","","","",""
"","","","","","rating_trial","survey-html-form","68","626022","0.0-3.0-1.32","168","1","2025-04-14 14:23:57","bb671e3ae32f654b8954ea4c4635f915","","Mozilla/5.0 (Windows NT 10.0; Win64; x64) AppleWebKit/537.36 (KHTML, like Gecko) Chrome/125.0.0.0 Safari/537.36","WebKit","Chrome","125.0.0.0","Windows","10.0","https://hz8g1ckzuq.cognition.run/","en-US,en;q=0.9","gzvv773kh1ltxcx","32","[""White""]","No","Female","995819.3999999985","7221","","","{""price_1"":""650"",""price_2"":""450"",""price_3"":""300""}","rating","bww","catch","null","televisions","95","55","15","50","10","15","1","null","null","null","null","null","null","Screen size","Average lifespan","",""
"","","","","","rating_trial_setup","html-keyboard-response","69","626329","0.0-3.0-0.33","168","1","2025-04-14 14:23:57","bb671e3ae32f654b8954ea4c4635f915","","Mozilla/5.0 (Windows NT 10.0; Win64; x64) AppleWebKit/537.36 (KHTML, like Gecko) Chrome/125.0.0.0 Safari/537.36","WebKit","Chrome","125.0.0.0","Windows","10.0","https://hz8g1ckzuq.cognition.run/","en-US,en;q=0.9","gzvv773kh1ltxcx","32","[""White""]","No","Female","995819.3999999985","null","","<p></p>","null","rating","tdc","attraction_2","2","microwave ovens","null","null","null","null","null","null","1","","","","","","","","","",""
"","","","","","rating_trial","survey-html-form","70","632463","0.0-3.0-1.33","168","1","2025-04-14 14:23:57","bb671e3ae32f654b8954ea4c4635f915","","Mozilla/5.0 (Windows NT 10.0; Win64; x64) AppleWebKit/537.36 (KHTML, like Gecko) Chrome/125.0.0.0 Safari/537.36","WebKit","Chrome","125.0.0.0","Windows","10.0","https://hz8g1ckzuq.cognition.run/","en-US,en;q=0.9","gzvv773kh1ltxcx","32","[""White""]","No","Female","995819.3999999985","6126","","","{""price_1"":""360"",""price_2"":""260"",""price_3"":""230""}","rating","tdc","attraction_2","2","microwave ovens","null","null","null","null","null","null","1","50","60","40","60","50","60","Warranty","Cooking power","",""
"","","","","","rating_trial_setup","html-keyboard-response","71","632775","0.0-3.0-0.34","168","1","2025-04-14 14:23:57","bb671e3ae32f654b8954ea4c4635f915","","Mozilla/5.0 (Windows NT 10.0; Win64; x64) AppleWebKit/537.36 (KHTML, like Gecko) Chrome/125.0.0.0 Safari/537.36","WebKit","Chrome","125.0.0.0","Windows","10.0","https://hz8g1ckzuq.cognition.run/","en-US,en;q=0.9","gzvv773kh1ltxcx","32","[""White""]","No","Female","995819.3999999985","null","","<p></p>","null","rating","ctd","repulsion_2","2","microwave ovens","null","null","null","null","null","null","1","","","","","","","","","",""
"","","","","","rating_trial","survey-html-form","72","639270","0.0-3.0-1.34","168","1","2025-04-14 14:23:57","bb671e3ae32f654b8954ea4c4635f915","","Mozilla/5.0 (Windows NT 10.0; Win64; x64) AppleWebKit/537.36 (KHTML, like Gecko) Chrome/125.0.0.0 Safari/537.36","WebKit","Chrome","125.0.0.0","Windows","10.0","https://hz8g1ckzuq.cognition.run/","en-US,en;q=0.9","gzvv773kh1ltxcx","32","[""White""]","No","Female","995819.3999999985","6488","","","{""price_1"":""450"",""price_2"":""400"",""price_3"":""350""}","rating","ctd","repulsion_2","2","microwave ovens","null","null","null","null","null","null","1","30","40","20","100","90","100","Warranty","Cooking power","",""
"","","","","","rating_trial_setup","html-keyboard-response","73","639589","0.0-3.0-0.35","168","1","2025-04-14 14:23:57","bb671e3ae32f654b8954ea4c4635f915","","Mozilla/5.0 (Windows NT 10.0; Win64; x64) AppleWebKit/537.36 (KHTML, like Gecko) Chrome/125.0.0.0 Safari/537.36","WebKit","Chrome","125.0.0.0","Windows","10.0","https://hz8g1ckzuq.cognition.run/","en-US,en;q=0.9","gzvv773kh1ltxcx","32","[""White""]","No","Female","995819.3999999985","null","","<p></p>","null","rating","tdc","attraction_1","2","washing machines","null","null","null","null","null","null","2","","","","","","","","","",""
"","","","","","rating_trial","survey-html-form","74","644143","0.0-3.0-1.35","168","1","2025-04-14 14:23:57","bb671e3ae32f654b8954ea4c4635f915","","Mozilla/5.0 (Windows NT 10.0; Win64; x64) AppleWebKit/537.36 (KHTML, like Gecko) Chrome/125.0.0.0 Safari/537.36","WebKit","Chrome","125.0.0.0","Windows","10.0","https://hz8g1ckzuq.cognition.run/","en-US,en;q=0.9","gzvv773kh1ltxcx","32","[""White""]","No","Female","995819.3999999985","4546","","","{""price_1"":""750"",""price_2"":""600"",""price_3"":""500""}","rating","tdc","attraction_1","2","washing machines","null","null","null","null","null","null","2","50","60","45","60","50","60","Average lifespan","Energy savings","",""
"","","","","","rating_trial_setup","html-keyboard-response","75","644456","0.0-3.0-0.36","168","1","2025-04-14 14:23:57","bb671e3ae32f654b8954ea4c4635f915","","Mozilla/5.0 (Windows NT 10.0; Win64; x64) AppleWebKit/537.36 (KHTML, like Gecko) Chrome/125.0.0.0 Safari/537.36","WebKit","Chrome","125.0.0.0","Windows","10.0","https://hz8g1ckzuq.cognition.run/","en-US,en;q=0.9","gzvv773kh1ltxcx","32","[""White""]","No","Female","995819.3999999985","null","","<p></p>","null","rating","tdc","repulsion_2","1","microwave ovens","null","null","null","null","null","null","1","","","","","","","","","",""
"","","","","","rating_trial","survey-html-form","76","649791","0.0-3.0-1.36","168","1","2025-04-14 14:23:57","bb671e3ae32f654b8954ea4c4635f915","","Mozilla/5.0 (Windows NT 10.0; Win64; x64) AppleWebKit/537.36 (KHTML, like Gecko) Chrome/125.0.0.0 Safari/537.36","WebKit","Chrome","125.0.0.0","Windows","10.0","https://hz8g1ckzuq.cognition.run/","en-US,en;q=0.9","gzvv773kh1ltxcx","32","[""White""]","No","Female","995819.3999999985","5327","","","{""price_1"":""350"",""price_2"":""300"",""price_3"":""250""}","rating","tdc","repulsion_2","1","microwave ovens","null","null","null","null","null","null","1","100","90","100","30","40","20","Warranty","Cooking power","",""
"","","","","","rating_trial_setup","html-keyboard-response","77","650103","0.0-3.0-0.37","168","1","2025-04-14 14:23:57","bb671e3ae32f654b8954ea4c4635f915","","Mozilla/5.0 (Windows NT 10.0; Win64; x64) AppleWebKit/537.36 (KHTML, like Gecko) Chrome/125.0.0.0 Safari/537.36","WebKit","Chrome","125.0.0.0","Windows","10.0","https://hz8g1ckzuq.cognition.run/","en-US,en;q=0.9","gzvv773kh1ltxcx","32","[""White""]","No","Female","995819.3999999985","null","","<p></p>","null","rating","ctd","attraction_1","1","laptops","null","null","null","null","null","null","2","","","","","","","","","",""
"","","","","","rating_trial","survey-html-form","78","657381","0.0-3.0-1.37","168","1","2025-04-14 14:23:57","bb671e3ae32f654b8954ea4c4635f915","","Mozilla/5.0 (Windows NT 10.0; Win64; x64) AppleWebKit/537.36 (KHTML, like Gecko) Chrome/125.0.0.0 Safari/537.36","WebKit","Chrome","125.0.0.0","Windows","10.0","https://hz8g1ckzuq.cognition.run/","en-US,en;q=0.9","gzvv773kh1ltxcx","32","[""White""]","No","Female","995819.3999999985","7272","","","{""price_1"":""350"",""price_2"":""300"",""price_3"":""250""}","rating","ctd","attraction_1","1","laptops","null","null","null","null","null","null","2","60","50","60","50","60","45","Processing speed","Memory (RAM)","",""
"","","","","","rating_trial_setup","html-keyboard-response","79","657690","0.0-3.0-0.38","168","1","2025-04-14 14:23:57","bb671e3ae32f654b8954ea4c4635f915","","Mozilla/5.0 (Windows NT 10.0; Win64; x64) AppleWebKit/537.36 (KHTML, like Gecko) Chrome/125.0.0.0 Safari/537.36","WebKit","Chrome","125.0.0.0","Windows","10.0","https://hz8g1ckzuq.cognition.run/","en-US,en;q=0.9","gzvv773kh1ltxcx","32","[""White""]","No","Female","995819.3999999985","null","","<p></p>","null","rating","cdt","repulsion_1","2","laptops","null","null","null","null","null","null","2","","","","","","","","","",""
"","","","","","rating_trial","survey-html-form","80","661759","0.0-3.0-1.38","168","1","2025-04-14 14:23:57","bb671e3ae32f654b8954ea4c4635f915","","Mozilla/5.0 (Windows NT 10.0; Win64; x64) AppleWebKit/537.36 (KHTML, like Gecko) Chrome/125.0.0.0 Safari/537.36","WebKit","Chrome","125.0.0.0","Windows","10.0","https://hz8g1ckzuq.cognition.run/","en-US,en;q=0.9","gzvv773kh1ltxcx","32","[""White""]","No","Female","995819.3999999985","4062","","","{""price_1"":""300"",""price_2"":""250"",""price_3"":""200""}","rating","cdt","repulsion_1","2","laptops","null","null","null","null","null","null","2","30","40","25","100","90","100","Processing speed","Memory (RAM)","",""
"","","","","","rating_trial_setup","html-keyboard-response","81","662073","0.0-3.0-0.39","168","1","2025-04-14 14:23:57","bb671e3ae32f654b8954ea4c4635f915","","Mozilla/5.0 (Windows NT 10.0; Win64; x64) AppleWebKit/537.36 (KHTML, like Gecko) Chrome/125.0.0.0 Safari/537.36","WebKit","Chrome","125.0.0.0","Windows","10.0","https://hz8g1ckzuq.cognition.run/","en-US,en;q=0.9","gzvv773kh1ltxcx","32","[""White""]","No","Female","995819.3999999985","null","","<p></p>","null","rating","dtc","repulsion_1","2","microwave ovens","null","null","null","null","null","null","1","","","","","","","","","",""
"","","","","","rating_trial","survey-html-form","82","672511","0.0-3.0-1.39","168","1","2025-04-14 14:23:57","bb671e3ae32f654b8954ea4c4635f915","","Mozilla/5.0 (Windows NT 10.0; Win64; x64) AppleWebKit/537.36 (KHTML, like Gecko) Chrome/125.0.0.0 Safari/537.36","WebKit","Chrome","125.0.0.0","Windows","10.0","https://hz8g1ckzuq.cognition.run/","en-US,en;q=0.9","gzvv773kh1ltxcx","32","[""White""]","No","Female","995819.3999999985","10429","","","{""price_1"":""650"",""price_2"":""450"",""price_3"":""400""}","rating","dtc","repulsion_1","2","microwave ovens","null","null","null","null","null","null","1","30","40","25","100","90","100","Warranty","Cooking power","",""
"","","","","","","instructions","83","703824","0.0-4.0","168","1","2025-04-14 14:23:57","bb671e3ae32f654b8954ea4c4635f915","","Mozilla/5.0 (Windows NT 10.0; Win64; x64) AppleWebKit/537.36 (KHTML, like Gecko) Chrome/125.0.0.0 Safari/537.36","WebKit","Chrome","125.0.0.0","Windows","10.0","https://hz8g1ckzuq.cognition.run/","en-US,en;q=0.9","gzvv773kh1ltxcx","32","[""White""]","No","Female","995819.3999999985","31311","[{""page_index"":0,""viewing_time"":2127},{""page_index"":1,""viewing_time"":1752},{""page_index"":2,""viewing_time"":3960},{""page_index"":3,""viewing_time"":4136},{""page_index"":4,""viewing_time"":4424},{""page_index"":5,""viewing_time"":3745},{""page_index"":6,""viewing_time"":8128},{""page_index"":7,""viewing_time"":3040}]","","","","","","","","","","","","","","","","","","","","","","","",""
"","","","","","choice_trial_setup","html-keyboard-response","84","704144","0.0-5.0-0.0","168","1","2025-04-14 14:23:57","bb671e3ae32f654b8954ea4c4635f915","","Mozilla/5.0 (Windows NT 10.0; Win64; x64) AppleWebKit/537.36 (KHTML, like Gecko) Chrome/125.0.0.0 Safari/537.36","WebKit","Chrome","125.0.0.0","Windows","10.0","https://hz8g1ckzuq.cognition.run/","en-US,en;q=0.9","gzvv773kh1ltxcx","32","[""White""]","No","Female","995819.3999999985","null","","<p></p>","null","choice","tdc","repulsion_1","2","washing machines","null","null","null","null","null","null","2","","","","","","","","","",""
"","","","","","choice_trial","survey-html-form","85","716673","0.0-5.0-1.0","168","1","2025-04-14 14:23:57","bb671e3ae32f654b8954ea4c4635f915","","Mozilla/5.0 (Windows NT 10.0; Win64; x64) AppleWebKit/537.36 (KHTML, like Gecko) Chrome/125.0.0.0 Safari/537.36","WebKit","Chrome","125.0.0.0","Windows","10.0","https://hz8g1ckzuq.cognition.run/","en-US,en;q=0.9","gzvv773kh1ltxcx","32","[""White""]","No","Female","995819.3999999985","12520","","","{""product_choice"":""A""}","choice","tdc","repulsion_1","2","washing machines","null","null","null","null","null","null","2","30","40","25","100","90","100","Average lifespan","Energy savings","",""
"","","","","","choice_trial_setup","html-keyboard-response","86","716982","0.0-5.0-0.1","168","1","2025-04-14 14:23:57","bb671e3ae32f654b8954ea4c4635f915","","Mozilla/5.0 (Windows NT 10.0; Win64; x64) AppleWebKit/537.36 (KHTML, like Gecko) Chrome/125.0.0.0 Safari/537.36","WebKit","Chrome","125.0.0.0","Windows","10.0","https://hz8g1ckzuq.cognition.run/","en-US,en;q=0.9","gzvv773kh1ltxcx","32","[""White""]","No","Female","995819.3999999985","null","","<p></p>","null","choice","tdc","attraction_1","2","televisions","null","null","null","null","null","null","2","","","","","","","","","",""
"","","","","","choice_trial","survey-html-form","87","720313","0.0-5.0-1.1","168","1","2025-04-14 14:23:57","bb671e3ae32f654b8954ea4c4635f915","","Mozilla/5.0 (Windows NT 10.0; Win64; x64) AppleWebKit/537.36 (KHTML, like Gecko) Chrome/125.0.0.0 Safari/537.36","WebKit","Chrome","125.0.0.0","Windows","10.0","https://hz8g1ckzuq.cognition.run/","en-US,en;q=0.9","gzvv773kh1ltxcx","32","[""White""]","No","Female","995819.3999999985","3324","","","{""product_choice"":""A""}","choice","tdc","attraction_1","2","televisions","null","null","null","null","null","null","2","50","60","45","60","50","60","Screen size","Average lifespan","",""
"","","","","","choice_trial_setup","html-keyboard-response","88","720616","0.0-5.0-0.2","168","1","2025-04-14 14:23:57","bb671e3ae32f654b8954ea4c4635f915","","Mozilla/5.0 (Windows NT 10.0; Win64; x64) AppleWebKit/537.36 (KHTML, like Gecko) Chrome/125.0.0.0 Safari/537.36","WebKit","Chrome","125.0.0.0","Windows","10.0","https://hz8g1ckzuq.cognition.run/","en-US,en;q=0.9","gzvv773kh1ltxcx","32","[""White""]","No","Female","995819.3999999985","null","","<p></p>","null","choice","dct","attraction_2","1","microwave ovens","null","null","null","null","null","null","1","","","","","","","","","",""
"","","","","","choice_trial","survey-html-form","89","723929","0.0-5.0-1.2","168","1","2025-04-14 14:23:57","bb671e3ae32f654b8954ea4c4635f915","","Mozilla/5.0 (Windows NT 10.0; Win64; x64) AppleWebKit/537.36 (KHTML, like Gecko) Chrome/125.0.0.0 Safari/537.36","WebKit","Chrome","125.0.0.0","Windows","10.0","https://hz8g1ckzuq.cognition.run/","en-US,en;q=0.9","gzvv773kh1ltxcx","32","[""White""]","No","Female","995819.3999999985","3307","","","{""product_choice"":""C""}","choice","dct","attraction_2","1","microwave ovens","null","null","null","null","null","null","1","60","50","60","50","60","40","Warranty","Cooking power","",""
"","","","","","choice_trial_setup","html-keyboard-response","90","724236","0.0-5.0-0.3","168","1","2025-04-14 14:23:57","bb671e3ae32f654b8954ea4c4635f915","","Mozilla/5.0 (Windows NT 10.0; Win64; x64) AppleWebKit/537.36 (KHTML, like Gecko) Chrome/125.0.0.0 Safari/537.36","WebKit","Chrome","125.0.0.0","Windows","10.0","https://hz8g1ckzuq.cognition.run/","en-US,en;q=0.9","gzvv773kh1ltxcx","32","[""White""]","No","Female","995819.3999999985","null","","<p></p>","null","choice","wbw","catch","null","televisions","60","55","50","25","20","10","2","","","","","","","","","",""
"","","","","","choice_trial","survey-html-form","91","727202","0.0-5.0-1.3","168","1","2025-04-14 14:23:57","bb671e3ae32f654b8954ea4c4635f915","","Mozilla/5.0 (Windows NT 10.0; Win64; x64) AppleWebKit/537.36 (KHTML, like Gecko) Chrome/125.0.0.0 Safari/537.36","WebKit","Chrome","125.0.0.0","Windows","10.0","https://hz8g1ckzuq.cognition.run/","en-US,en;q=0.9","gzvv773kh1ltxcx","32","[""White""]","No","Female","995819.3999999985","2958","","","{""product_choice"":""B""}","choice","wbw","catch","null","televisions","60","55","50","25","20","10","2","null","null","null","null","null","null","Screen size","Average lifespan","",""
"","","","","","choice_trial_setup","html-keyboard-response","92","727518","0.0-5.0-0.4","168","1","2025-04-14 14:23:57","bb671e3ae32f654b8954ea4c4635f915","","Mozilla/5.0 (Windows NT 10.0; Win64; x64) AppleWebKit/537.36 (KHTML, like Gecko) Chrome/125.0.0.0 Safari/537.36","WebKit","Chrome","125.0.0.0","Windows","10.0","https://hz8g1ckzuq.cognition.run/","en-US,en;q=0.9","gzvv773kh1ltxcx","32","[""White""]","No","Female","995819.3999999985","null","","<p></p>","null","choice","tdc","attraction_2","1","laptops","null","null","null","null","null","null","1","","","","","","","","","",""
"","","","","","choice_trial","survey-html-form","93","730705","0.0-5.0-1.4","168","1","2025-04-14 14:23:57","bb671e3ae32f654b8954ea4c4635f915","","Mozilla/5.0 (Windows NT 10.0; Win64; x64) AppleWebKit/537.36 (KHTML, like Gecko) Chrome/125.0.0.0 Safari/537.36","WebKit","Chrome","125.0.0.0","Windows","10.0","https://hz8g1ckzuq.cognition.run/","en-US,en;q=0.9","gzvv773kh1ltxcx","32","[""White""]","No","Female","995819.3999999985","3183","","","{""product_choice"":""A""}","choice","tdc","attraction_2","1","laptops","null","null","null","null","null","null","1","60","50","60","50","60","40","Processing speed","Memory (RAM)","",""
"","","","","","choice_trial_setup","html-keyboard-response","94","731008","0.0-5.0-0.5","168","1","2025-04-14 14:23:57","bb671e3ae32f654b8954ea4c4635f915","","Mozilla/5.0 (Windows NT 10.0; Win64; x64) AppleWebKit/537.36 (KHTML, like Gecko) Chrome/125.0.0.0 Safari/537.36","WebKit","Chrome","125.0.0.0","Windows","10.0","https://hz8g1ckzuq.cognition.run/","en-US,en;q=0.9","gzvv773kh1ltxcx","32","[""White""]","No","Female","995819.3999999985","null","","<p></p>","null","choice","dtc","attraction_2","2","washing machines","null","null","null","null","null","null","2","","","","","","","","","",""
"","","","","","choice_trial","survey-html-form","95","735625","0.0-5.0-1.5","168","1","2025-04-14 14:23:57","bb671e3ae32f654b8954ea4c4635f915","","Mozilla/5.0 (Windows NT 10.0; Win64; x64) AppleWebKit/537.36 (KHTML, like Gecko) Chrome/125.0.0.0 Safari/537.36","WebKit","Chrome","125.0.0.0","Windows","10.0","https://hz8g1ckzuq.cognition.run/","en-US,en;q=0.9","gzvv773kh1ltxcx","32","[""White""]","No","Female","995819.3999999985","4610","","","{""product_choice"":""B""}","choice","dtc","attraction_2","2","washing machines","null","null","null","null","null","null","2","50","60","40","60","50","60","Average lifespan","Energy savings","",""
"","","","","","choice_trial_setup","html-keyboard-response","96","735930","0.0-5.0-0.6","168","1","2025-04-14 14:23:57","bb671e3ae32f654b8954ea4c4635f915","","Mozilla/5.0 (Windows NT 10.0; Win64; x64) AppleWebKit/537.36 (KHTML, like Gecko) Chrome/125.0.0.0 Safari/537.36","WebKit","Chrome","125.0.0.0","Windows","10.0","https://hz8g1ckzuq.cognition.run/","en-US,en;q=0.9","gzvv773kh1ltxcx","32","[""White""]","No","Female","995819.3999999985","null","","<p></p>","null","choice","tcd","attraction_2","1","washing machines","null","null","null","null","null","null","1","","","","","","","","","",""
"","","","","","choice_trial","survey-html-form","97","739385","0.0-5.0-1.6","168","1","2025-04-14 14:23:57","bb671e3ae32f654b8954ea4c4635f915","","Mozilla/5.0 (Windows NT 10.0; Win64; x64) AppleWebKit/537.36 (KHTML, like Gecko) Chrome/125.0.0.0 Safari/537.36","WebKit","Chrome","125.0.0.0","Windows","10.0","https://hz8g1ckzuq.cognition.run/","en-US,en;q=0.9","gzvv773kh1ltxcx","32","[""White""]","No","Female","995819.3999999985","3447","","","{""product_choice"":""A""}","choice","tcd","attraction_2","1","washing machines","null","null","null","null","null","null","1","60","50","60","50","60","40","Average lifespan","Energy savings","",""
"","","","","","choice_trial_setup","html-keyboard-response","98","739691","0.0-5.0-0.7","168","1","2025-04-14 14:23:57","bb671e3ae32f654b8954ea4c4635f915","","Mozilla/5.0 (Windows NT 10.0; Win64; x64) AppleWebKit/537.36 (KHTML, like Gecko) Chrome/125.0.0.0 Safari/537.36","WebKit","Chrome","125.0.0.0","Windows","10.0","https://hz8g1ckzuq.cognition.run/","en-US,en;q=0.9","gzvv773kh1ltxcx","32","[""White""]","No","Female","995819.3999999985","null","","<p></p>","null","choice","cdt","repulsion_1","2","televisions","null","null","null","null","null","null","1","","","","","","","","","",""
"","","","","","choice_trial","survey-html-form","99","743505","0.0-5.0-1.7","168","1","2025-04-14 14:23:57","bb671e3ae32f654b8954ea4c4635f915","","Mozilla/5.0 (Windows NT 10.0; Win64; x64) AppleWebKit/537.36 (KHTML, like Gecko) Chrome/125.0.0.0 Safari/537.36","WebKit","Chrome","125.0.0.0","Windows","10.0","https://hz8g1ckzuq.cognition.run/","en-US,en;q=0.9","gzvv773kh1ltxcx","32","[""White""]","No","Female","995819.3999999985","3808","","","{""product_choice"":""A""}","choice","cdt","repulsion_1","2","televisions","null","null","null","null","null","null","1","30","40","25","100","90","100","Screen size","Average lifespan","",""
"","","","","","choice_trial_setup","html-keyboard-response","100","743814","0.0-5.0-0.8","168","1","2025-04-14 14:23:57","bb671e3ae32f654b8954ea4c4635f915","","Mozilla/5.0 (Windows NT 10.0; Win64; x64) AppleWebKit/537.36 (KHTML, like Gecko) Chrome/125.0.0.0 Safari/537.36","WebKit","Chrome","125.0.0.0","Windows","10.0","https://hz8g1ckzuq.cognition.run/","en-US,en;q=0.9","gzvv773kh1ltxcx","32","[""White""]","No","Female","995819.3999999985","null","","<p></p>","null","choice","cdt","attraction_1","2","microwave ovens","null","null","null","null","null","null","1","","","","","","","","","",""
"","","","","","choice_trial","survey-html-form","101","745970","0.0-5.0-1.8","168","1","2025-04-14 14:23:57","bb671e3ae32f654b8954ea4c4635f915","","Mozilla/5.0 (Windows NT 10.0; Win64; x64) AppleWebKit/537.36 (KHTML, like Gecko) Chrome/125.0.0.0 Safari/537.36","WebKit","Chrome","125.0.0.0","Windows","10.0","https://hz8g1ckzuq.cognition.run/","en-US,en;q=0.9","gzvv773kh1ltxcx","32","[""White""]","No","Female","995819.3999999985","2147","","","{""product_choice"":""A""}","choice","cdt","attraction_1","2","microwave ovens","null","null","null","null","null","null","1","50","60","45","60","50","60","Warranty","Cooking power","",""
"","","","","","choice_trial_setup","html-keyboard-response","102","746277","0.0-5.0-0.9","168","1","2025-04-14 14:23:57","bb671e3ae32f654b8954ea4c4635f915","","Mozilla/5.0 (Windows NT 10.0; Win64; x64) AppleWebKit/537.36 (KHTML, like Gecko) Chrome/125.0.0.0 Safari/537.36","WebKit","Chrome","125.0.0.0","Windows","10.0","https://hz8g1ckzuq.cognition.run/","en-US,en;q=0.9","gzvv773kh1ltxcx","32","[""White""]","No","Female","995819.3999999985","null","","<p></p>","null","choice","dct","repulsion_2","1","laptops","null","null","null","null","null","null","2","","","","","","","","","",""
"","","","","","choice_trial","survey-html-form","103","753249","0.0-5.0-1.9","168","1","2025-04-14 14:23:57","bb671e3ae32f654b8954ea4c4635f915","","Mozilla/5.0 (Windows NT 10.0; Win64; x64) AppleWebKit/537.36 (KHTML, like Gecko) Chrome/125.0.0.0 Safari/537.36","WebKit","Chrome","125.0.0.0","Windows","10.0","https://hz8g1ckzuq.cognition.run/","en-US,en;q=0.9","gzvv773kh1ltxcx","32","[""White""]","No","Female","995819.3999999985","6966","","","{""product_choice"":""C""}","choice","dct","repulsion_2","1","laptops","null","null","null","null","null","null","2","100","90","100","30","40","20","Processing speed","Memory (RAM)","",""
"","","","","","choice_trial_setup","html-keyboard-response","104","753559","0.0-5.0-0.10","168","1","2025-04-14 14:23:57","bb671e3ae32f654b8954ea4c4635f915","","Mozilla/5.0 (Windows NT 10.0; Win64; x64) AppleWebKit/537.36 (KHTML, like Gecko) Chrome/125.0.0.0 Safari/537.36","WebKit","Chrome","125.0.0.0","Windows","10.0","https://hz8g1ckzuq.cognition.run/","en-US,en;q=0.9","gzvv773kh1ltxcx","32","[""White""]","No","Female","995819.3999999985","null","","<p></p>","null","choice","cdt","repulsion_1","1","washing machines","null","null","null","null","null","null","1","","","","","","","","","",""
"","","","","","choice_trial","survey-html-form","105","757241","0.0-5.0-1.10","168","1","2025-04-14 14:23:57","bb671e3ae32f654b8954ea4c4635f915","","Mozilla/5.0 (Windows NT 10.0; Win64; x64) AppleWebKit/537.36 (KHTML, like Gecko) Chrome/125.0.0.0 Safari/537.36","WebKit","Chrome","125.0.0.0","Windows","10.0","https://hz8g1ckzuq.cognition.run/","en-US,en;q=0.9","gzvv773kh1ltxcx","32","[""White""]","No","Female","995819.3999999985","3676","","","{""product_choice"":""A""}","choice","cdt","repulsion_1","1","washing machines","null","null","null","null","null","null","1","100","90","100","30","40","25","Average lifespan","Energy savings","",""
"","","","","","choice_trial_setup","html-keyboard-response","106","757548","0.0-5.0-0.11","168","1","2025-04-14 14:23:57","bb671e3ae32f654b8954ea4c4635f915","","Mozilla/5.0 (Windows NT 10.0; Win64; x64) AppleWebKit/537.36 (KHTML, like Gecko) Chrome/125.0.0.0 Safari/537.36","WebKit","Chrome","125.0.0.0","Windows","10.0","https://hz8g1ckzuq.cognition.run/","en-US,en;q=0.9","gzvv773kh1ltxcx","32","[""White""]","No","Female","995819.3999999985","null","","<p></p>","null","choice","tdc","attraction_2","2","laptops","null","null","null","null","null","null","2","","","","","","","","","",""
"","","","","","choice_trial","survey-html-form","107","761481","0.0-5.0-1.11","168","1","2025-04-14 14:23:57","bb671e3ae32f654b8954ea4c4635f915","","Mozilla/5.0 (Windows NT 10.0; Win64; x64) AppleWebKit/537.36 (KHTML, like Gecko) Chrome/125.0.0.0 Safari/537.36","WebKit","Chrome","125.0.0.0","Windows","10.0","https://hz8g1ckzuq.cognition.run/","en-US,en;q=0.9","gzvv773kh1ltxcx","32","[""White""]","No","Female","995819.3999999985","3926","","","{""product_choice"":""A""}","choice","tdc","attraction_2","2","laptops","null","null","null","null","null","null","2","50","60","40","60","50","60","Processing speed","Memory (RAM)","",""
"","","","","","choice_trial_setup","html-keyboard-response","108","761787","0.0-5.0-0.12","168","1","2025-04-14 14:23:57","bb671e3ae32f654b8954ea4c4635f915","","Mozilla/5.0 (Windows NT 10.0; Win64; x64) AppleWebKit/537.36 (KHTML, like Gecko) Chrome/125.0.0.0 Safari/537.36","WebKit","Chrome","125.0.0.0","Windows","10.0","https://hz8g1ckzuq.cognition.run/","en-US,en;q=0.9","gzvv773kh1ltxcx","32","[""White""]","No","Female","995819.3999999985","null","","<p></p>","null","choice","cdt","attraction_1","2","washing machines","null","null","null","null","null","null","2","","","","","","","","","",""
"","","","","","choice_trial","survey-html-form","109","765281","0.0-5.0-1.12","168","1","2025-04-14 14:23:57","bb671e3ae32f654b8954ea4c4635f915","","Mozilla/5.0 (Windows NT 10.0; Win64; x64) AppleWebKit/537.36 (KHTML, like Gecko) Chrome/125.0.0.0 Safari/537.36","WebKit","Chrome","125.0.0.0","Windows","10.0","https://hz8g1ckzuq.cognition.run/","en-US,en;q=0.9","gzvv773kh1ltxcx","32","[""White""]","No","Female","995819.3999999985","3483","","","{""product_choice"":""A""}","choice","cdt","attraction_1","2","washing machines","null","null","null","null","null","null","2","50","60","45","60","50","60","Average lifespan","Energy savings","",""
"","","","","","choice_trial_setup","html-keyboard-response","110","765590","0.0-5.0-0.13","168","1","2025-04-14 14:23:57","bb671e3ae32f654b8954ea4c4635f915","","Mozilla/5.0 (Windows NT 10.0; Win64; x64) AppleWebKit/537.36 (KHTML, like Gecko) Chrome/125.0.0.0 Safari/537.36","WebKit","Chrome","125.0.0.0","Windows","10.0","https://hz8g1ckzuq.cognition.run/","en-US,en;q=0.9","gzvv773kh1ltxcx","32","[""White""]","No","Female","995819.3999999985","null","","<p></p>","null","choice","wbw","catch","null","laptops","90","75","35","45","45","25","1","","","","","","","","","",""
"","","","","","choice_trial","survey-html-form","111","769841","0.0-5.0-1.13","168","1","2025-04-14 14:23:57","bb671e3ae32f654b8954ea4c4635f915","","Mozilla/5.0 (Windows NT 10.0; Win64; x64) AppleWebKit/537.36 (KHTML, like Gecko) Chrome/125.0.0.0 Safari/537.36","WebKit","Chrome","125.0.0.0","Windows","10.0","https://hz8g1ckzuq.cognition.run/","en-US,en;q=0.9","gzvv773kh1ltxcx","32","[""White""]","No","Female","995819.3999999985","4243","","","{""product_choice"":""B""}","choice","wbw","catch","null","laptops","90","75","35","45","45","25","1","null","null","null","null","null","null","Processing speed","Memory (RAM)","",""
"","","","","","choice_trial_setup","html-keyboard-response","112","770154","0.0-5.0-0.14","168","1","2025-04-14 14:23:57","bb671e3ae32f654b8954ea4c4635f915","","Mozilla/5.0 (Windows NT 10.0; Win64; x64) AppleWebKit/537.36 (KHTML, like Gecko) Chrome/125.0.0.0 Safari/537.36","WebKit","Chrome","125.0.0.0","Windows","10.0","https://hz8g1ckzuq.cognition.run/","en-US,en;q=0.9","gzvv773kh1ltxcx","32","[""White""]","No","Female","995819.3999999985","null","","<p></p>","null","choice","ctd","attraction_1","1","washing machines","null","null","null","null","null","null","1","","","","","","","","","",""
"","","","","","choice_trial","survey-html-form","113","772825","0.0-5.0-1.14","168","1","2025-04-14 14:23:57","bb671e3ae32f654b8954ea4c4635f915","","Mozilla/5.0 (Windows NT 10.0; Win64; x64) AppleWebKit/537.36 (KHTML, like Gecko) Chrome/125.0.0.0 Safari/537.36","WebKit","Chrome","125.0.0.0","Windows","10.0","https://hz8g1ckzuq.cognition.run/","en-US,en;q=0.9","gzvv773kh1ltxcx","32","[""White""]","No","Female","995819.3999999985","2661","","","{""product_choice"":""B""}","choice","ctd","attraction_1","1","washing machines","null","null","null","null","null","null","1","60","50","60","50","60","45","Average lifespan","Energy savings","",""
"","","","","","choice_trial_setup","html-keyboard-response","114","773138","0.0-5.0-0.15","168","1","2025-04-14 14:23:57","bb671e3ae32f654b8954ea4c4635f915","","Mozilla/5.0 (Windows NT 10.0; Win64; x64) AppleWebKit/537.36 (KHTML, like Gecko) Chrome/125.0.0.0 Safari/537.36","WebKit","Chrome","125.0.0.0","Windows","10.0","https://hz8g1ckzuq.cognition.run/","en-US,en;q=0.9","gzvv773kh1ltxcx","32","[""White""]","No","Female","995819.3999999985","null","","<p></p>","null","choice","dtc","repulsion_2","1","televisions","null","null","null","null","null","null","2","","","","","","","","","",""
"","","","","","choice_trial","survey-html-form","115","776257","0.0-5.0-1.15","168","1","2025-04-14 14:23:57","bb671e3ae32f654b8954ea4c4635f915","","Mozilla/5.0 (Windows NT 10.0; Win64; x64) AppleWebKit/537.36 (KHTML, like Gecko) Chrome/125.0.0.0 Safari/537.36","WebKit","Chrome","125.0.0.0","Windows","10.0","https://hz8g1ckzuq.cognition.run/","en-US,en;q=0.9","gzvv773kh1ltxcx","32","[""White""]","No","Female","995819.3999999985","3107","","","{""product_choice"":""C""}","choice","dtc","repulsion_2","1","televisions","null","null","null","null","null","null","2","100","90","100","30","40","20","Screen size","Average lifespan","",""
"","","","","","choice_trial_setup","html-keyboard-response","116","776574","0.0-5.0-0.16","168","1","2025-04-14 14:23:57","bb671e3ae32f654b8954ea4c4635f915","","Mozilla/5.0 (Windows NT 10.0; Win64; x64) AppleWebKit/537.36 (KHTML, like Gecko) Chrome/125.0.0.0 Safari/537.36","WebKit","Chrome","125.0.0.0","Windows","10.0","https://hz8g1ckzuq.cognition.run/","en-US,en;q=0.9","gzvv773kh1ltxcx","32","[""White""]","No","Female","995819.3999999985","null","","<p></p>","null","choice","ctd","attraction_1","2","laptops","null","null","null","null","null","null","1","","","","","","","","","",""
"","","","","","choice_trial","survey-html-form","117","779914","0.0-5.0-1.16","168","1","2025-04-14 14:23:57","bb671e3ae32f654b8954ea4c4635f915","","Mozilla/5.0 (Windows NT 10.0; Win64; x64) AppleWebKit/537.36 (KHTML, like Gecko) Chrome/125.0.0.0 Safari/537.36","WebKit","Chrome","125.0.0.0","Windows","10.0","https://hz8g1ckzuq.cognition.run/","en-US,en;q=0.9","gzvv773kh1ltxcx","32","[""White""]","No","Female","995819.3999999985","3333","","","{""product_choice"":""A""}","choice","ctd","attraction_1","2","laptops","null","null","null","null","null","null","1","50","60","45","60","50","60","Processing speed","Memory (RAM)","",""
"","","","","","choice_trial_setup","html-keyboard-response","118","780232","0.0-5.0-0.17","168","1","2025-04-14 14:23:57","bb671e3ae32f654b8954ea4c4635f915","","Mozilla/5.0 (Windows NT 10.0; Win64; x64) AppleWebKit/537.36 (KHTML, like Gecko) Chrome/125.0.0.0 Safari/537.36","WebKit","Chrome","125.0.0.0","Windows","10.0","https://hz8g1ckzuq.cognition.run/","en-US,en;q=0.9","gzvv773kh1ltxcx","32","[""White""]","No","Female","995819.3999999985","null","","<p></p>","null","choice","ctd","repulsion_1","1","microwave ovens","null","null","null","null","null","null","2","","","","","","","","","",""
"","","","","","choice_trial","survey-html-form","119","784649","0.0-5.0-1.17","168","1","2025-04-14 14:23:57","bb671e3ae32f654b8954ea4c4635f915","","Mozilla/5.0 (Windows NT 10.0; Win64; x64) AppleWebKit/537.36 (KHTML, like Gecko) Chrome/125.0.0.0 Safari/537.36","WebKit","Chrome","125.0.0.0","Windows","10.0","https://hz8g1ckzuq.cognition.run/","en-US,en;q=0.9","gzvv773kh1ltxcx","32","[""White""]","No","Female","995819.3999999985","4405","","","{""product_choice"":""B""}","choice","ctd","repulsion_1","1","microwave ovens","null","null","null","null","null","null","2","100","90","100","30","40","25","Warranty","Cooking power","",""
"","","","","","choice_trial_setup","html-keyboard-response","120","784957","0.0-5.0-0.18","168","1","2025-04-14 14:23:57","bb671e3ae32f654b8954ea4c4635f915","","Mozilla/5.0 (Windows NT 10.0; Win64; x64) AppleWebKit/537.36 (KHTML, like Gecko) Chrome/125.0.0.0 Safari/537.36","WebKit","Chrome","125.0.0.0","Windows","10.0","https://hz8g1ckzuq.cognition.run/","en-US,en;q=0.9","gzvv773kh1ltxcx","32","[""White""]","No","Female","995819.3999999985","null","","<p></p>","null","choice","dct","repulsion_2","2","laptops","null","null","null","null","null","null","2","","","","","","","","","",""
"","","","","","choice_trial","survey-html-form","121","787865","0.0-5.0-1.18","168","1","2025-04-14 14:23:57","bb671e3ae32f654b8954ea4c4635f915","","Mozilla/5.0 (Windows NT 10.0; Win64; x64) AppleWebKit/537.36 (KHTML, like Gecko) Chrome/125.0.0.0 Safari/537.36","WebKit","Chrome","125.0.0.0","Windows","10.0","https://hz8g1ckzuq.cognition.run/","en-US,en;q=0.9","gzvv773kh1ltxcx","32","[""White""]","No","Female","995819.3999999985","2901","","","{""product_choice"":""B""}","choice","dct","repulsion_2","2","laptops","null","null","null","null","null","null","2","30","40","20","100","90","100","Processing speed","Memory (RAM)","",""
"","","","","","choice_trial_setup","html-keyboard-response","122","788175","0.0-5.0-0.19","168","1","2025-04-14 14:23:57","bb671e3ae32f654b8954ea4c4635f915","","Mozilla/5.0 (Windows NT 10.0; Win64; x64) AppleWebKit/537.36 (KHTML, like Gecko) Chrome/125.0.0.0 Safari/537.36","WebKit","Chrome","125.0.0.0","Windows","10.0","https://hz8g1ckzuq.cognition.run/","en-US,en;q=0.9","gzvv773kh1ltxcx","32","[""White""]","No","Female","995819.3999999985","null","","<p></p>","null","choice","wbw","catch","null","washing machines","60","50","50","15","5","5","2","","","","","","","","","",""
"","","","","","choice_trial","survey-html-form","123","791713","0.0-5.0-1.19","168","1","2025-04-14 14:23:57","bb671e3ae32f654b8954ea4c4635f915","","Mozilla/5.0 (Windows NT 10.0; Win64; x64) AppleWebKit/537.36 (KHTML, like Gecko) Chrome/125.0.0.0 Safari/537.36","WebKit","Chrome","125.0.0.0","Windows","10.0","https://hz8g1ckzuq.cognition.run/","en-US,en;q=0.9","gzvv773kh1ltxcx","32","[""White""]","No","Female","995819.3999999985","3531","","","{""product_choice"":""B""}","choice","wbw","catch","null","washing machines","60","50","50","15","5","5","2","null","null","null","null","null","null","Average lifespan","Energy savings","",""
"","","","","","choice_trial_setup","html-keyboard-response","124","792024","0.0-5.0-0.20","168","1","2025-04-14 14:23:57","bb671e3ae32f654b8954ea4c4635f915","","Mozilla/5.0 (Windows NT 10.0; Win64; x64) AppleWebKit/537.36 (KHTML, like Gecko) Chrome/125.0.0.0 Safari/537.36","WebKit","Chrome","125.0.0.0","Windows","10.0","https://hz8g1ckzuq.cognition.run/","en-US,en;q=0.9","gzvv773kh1ltxcx","32","[""White""]","No","Female","995819.3999999985","null","","<p></p>","null","choice","tcd","repulsion_1","2","laptops","null","null","null","null","null","null","1","","","","","","","","","",""
"","","","","","choice_trial","survey-html-form","125","796113","0.0-5.0-1.20","168","1","2025-04-14 14:23:57","bb671e3ae32f654b8954ea4c4635f915","","Mozilla/5.0 (Windows NT 10.0; Win64; x64) AppleWebKit/537.36 (KHTML, like Gecko) Chrome/125.0.0.0 Safari/537.36","WebKit","Chrome","125.0.0.0","Windows","10.0","https://hz8g1ckzuq.cognition.run/","en-US,en;q=0.9","gzvv773kh1ltxcx","32","[""White""]","No","Female","995819.3999999985","4079","","","{""product_choice"":""A""}","choice","tcd","repulsion_1","2","laptops","null","null","null","null","null","null","1","30","40","25","100","90","100","Processing speed","Memory (RAM)","",""
"","","","","","choice_trial_setup","html-keyboard-response","126","796427","0.0-5.0-0.21","168","1","2025-04-14 14:23:57","bb671e3ae32f654b8954ea4c4635f915","","Mozilla/5.0 (Windows NT 10.0; Win64; x64) AppleWebKit/537.36 (KHTML, like Gecko) Chrome/125.0.0.0 Safari/537.36","WebKit","Chrome","125.0.0.0","Windows","10.0","https://hz8g1ckzuq.cognition.run/","en-US,en;q=0.9","gzvv773kh1ltxcx","32","[""White""]","No","Female","995819.3999999985","null","","<p></p>","null","choice","wwb","catch","null","televisions","70","65","10","30","20","45","1","","","","","","","","","",""
"","","","","","choice_trial","survey-html-form","127","799066","0.0-5.0-1.21","168","1","2025-04-14 14:23:57","bb671e3ae32f654b8954ea4c4635f915","","Mozilla/5.0 (Windows NT 10.0; Win64; x64) AppleWebKit/537.36 (KHTML, like Gecko) Chrome/125.0.0.0 Safari/537.36","WebKit","Chrome","125.0.0.0","Windows","10.0","https://hz8g1ckzuq.cognition.run/","en-US,en;q=0.9","gzvv773kh1ltxcx","32","[""White""]","No","Female","995819.3999999985","2632","","","{""product_choice"":""C""}","choice","wwb","catch","null","televisions","70","65","10","30","20","45","1","null","null","null","null","null","null","Screen size","Average lifespan","",""
"","","","","","choice_trial_setup","html-keyboard-response","128","799373","0.0-5.0-0.22","168","1","2025-04-14 14:23:57","bb671e3ae32f654b8954ea4c4635f915","","Mozilla/5.0 (Windows NT 10.0; Win64; x64) AppleWebKit/537.36 (KHTML, like Gecko) Chrome/125.0.0.0 Safari/537.36","WebKit","Chrome","125.0.0.0","Windows","10.0","https://hz8g1ckzuq.cognition.run/","en-US,en;q=0.9","gzvv773kh1ltxcx","32","[""White""]","No","Female","995819.3999999985","null","","<p></p>","null","choice","ctd","repulsion_2","2","washing machines","null","null","null","null","null","null","1","","","","","","","","","",""
"","","","","","choice_trial","survey-html-form","129","802025","0.0-5.0-1.22","168","1","2025-04-14 14:23:57","bb671e3ae32f654b8954ea4c4635f915","","Mozilla/5.0 (Windows NT 10.0; Win64; x64) AppleWebKit/537.36 (KHTML, like Gecko) Chrome/125.0.0.0 Safari/537.36","WebKit","Chrome","125.0.0.0","Windows","10.0","https://hz8g1ckzuq.cognition.run/","en-US,en;q=0.9","gzvv773kh1ltxcx","32","[""White""]","No","Female","995819.3999999985","2644","","","{""product_choice"":""A""}","choice","ctd","repulsion_2","2","washing machines","null","null","null","null","null","null","1","30","40","20","100","90","100","Average lifespan","Energy savings","",""
"","","","","","choice_trial_setup","html-keyboard-response","130","802346","0.0-5.0-0.23","168","1","2025-04-14 14:23:57","bb671e3ae32f654b8954ea4c4635f915","","Mozilla/5.0 (Windows NT 10.0; Win64; x64) AppleWebKit/537.36 (KHTML, like Gecko) Chrome/125.0.0.0 Safari/537.36","WebKit","Chrome","125.0.0.0","Windows","10.0","https://hz8g1ckzuq.cognition.run/","en-US,en;q=0.9","gzvv773kh1ltxcx","32","[""White""]","No","Female","995819.3999999985","null","","<p></p>","null","choice","tcd","repulsion_2","2","televisions","null","null","null","null","null","null","2","","","","","","","","","",""
"","","","","","choice_trial","survey-html-form","131","805338","0.0-5.0-1.23","168","1","2025-04-14 14:23:57","bb671e3ae32f654b8954ea4c4635f915","","Mozilla/5.0 (Windows NT 10.0; Win64; x64) AppleWebKit/537.36 (KHTML, like Gecko) Chrome/125.0.0.0 Safari/537.36","WebKit","Chrome","125.0.0.0","Windows","10.0","https://hz8g1ckzuq.cognition.run/","en-US,en;q=0.9","gzvv773kh1ltxcx","32","[""White""]","No","Female","995819.3999999985","2982","","","{""product_choice"":""B""}","choice","tcd","repulsion_2","2","televisions","null","null","null","null","null","null","2","30","40","20","100","90","100","Screen size","Average lifespan","",""
"","","","","","choice_trial_setup","html-keyboard-response","132","805657","0.0-5.0-0.24","168","1","2025-04-14 14:23:57","bb671e3ae32f654b8954ea4c4635f915","","Mozilla/5.0 (Windows NT 10.0; Win64; x64) AppleWebKit/537.36 (KHTML, like Gecko) Chrome/125.0.0.0 Safari/537.36","WebKit","Chrome","125.0.0.0","Windows","10.0","https://hz8g1ckzuq.cognition.run/","en-US,en;q=0.9","gzvv773kh1ltxcx","32","[""White""]","No","Female","995819.3999999985","null","","<p></p>","null","choice","tdc","attraction_2","2","microwave ovens","null","null","null","null","null","null","2","","","","","","","","","",""
"","","","","","choice_trial","survey-html-form","133","808505","0.0-5.0-1.24","168","1","2025-04-14 14:23:57","bb671e3ae32f654b8954ea4c4635f915","","Mozilla/5.0 (Windows NT 10.0; Win64; x64) AppleWebKit/537.36 (KHTML, like Gecko) Chrome/125.0.0.0 Safari/537.36","WebKit","Chrome","125.0.0.0","Windows","10.0","https://hz8g1ckzuq.cognition.run/","en-US,en;q=0.9","gzvv773kh1ltxcx","32","[""White""]","No","Female","995819.3999999985","2840","","","{""product_choice"":""C""}","choice","tdc","attraction_2","2","microwave ovens","null","null","null","null","null","null","2","50","60","40","60","50","60","Warranty","Cooking power","",""
"","","","","","choice_trial_setup","html-keyboard-response","134","808823","0.0-5.0-0.25","168","1","2025-04-14 14:23:57","bb671e3ae32f654b8954ea4c4635f915","","Mozilla/5.0 (Windows NT 10.0; Win64; x64) AppleWebKit/537.36 (KHTML, like Gecko) Chrome/125.0.0.0 Safari/537.36","WebKit","Chrome","125.0.0.0","Windows","10.0","https://hz8g1ckzuq.cognition.run/","en-US,en;q=0.9","gzvv773kh1ltxcx","32","[""White""]","No","Female","995819.3999999985","null","","<p></p>","null","choice","dtc","attraction_1","1","televisions","null","null","null","null","null","null","2","","","","","","","","","",""
"","","","","","choice_trial","survey-html-form","135","814497","0.0-5.0-1.25","168","1","2025-04-14 14:23:57","bb671e3ae32f654b8954ea4c4635f915","","Mozilla/5.0 (Windows NT 10.0; Win64; x64) AppleWebKit/537.36 (KHTML, like Gecko) Chrome/125.0.0.0 Safari/537.36","WebKit","Chrome","125.0.0.0","Windows","10.0","https://hz8g1ckzuq.cognition.run/","en-US,en;q=0.9","gzvv773kh1ltxcx","32","[""White""]","No","Female","995819.3999999985","5662","","","{""product_choice"":""B""}","choice","dtc","attraction_1","1","televisions","null","null","null","null","null","null","2","60","50","60","50","60","45","Screen size","Average lifespan","",""
"","","","","","choice_trial_setup","html-keyboard-response","136","814810","0.0-5.0-0.26","168","1","2025-04-14 14:23:57","bb671e3ae32f654b8954ea4c4635f915","","Mozilla/5.0 (Windows NT 10.0; Win64; x64) AppleWebKit/537.36 (KHTML, like Gecko) Chrome/125.0.0.0 Safari/537.36","WebKit","Chrome","125.0.0.0","Windows","10.0","https://hz8g1ckzuq.cognition.run/","en-US,en;q=0.9","gzvv773kh1ltxcx","32","[""White""]","No","Female","995819.3999999985","null","","<p></p>","null","choice","dct","repulsion_1","1","televisions","null","null","null","null","null","null","1","","","","","","","","","",""
"","","","","","choice_trial","survey-html-form","137","817001","0.0-5.0-1.26","168","1","2025-04-14 14:23:57","bb671e3ae32f654b8954ea4c4635f915","","Mozilla/5.0 (Windows NT 10.0; Win64; x64) AppleWebKit/537.36 (KHTML, like Gecko) Chrome/125.0.0.0 Safari/537.36","WebKit","Chrome","125.0.0.0","Windows","10.0","https://hz8g1ckzuq.cognition.run/","en-US,en;q=0.9","gzvv773kh1ltxcx","32","[""White""]","No","Female","995819.3999999985","2185","","","{""product_choice"":""B""}","choice","dct","repulsion_1","1","televisions","null","null","null","null","null","null","1","100","90","100","30","40","25","Screen size","Average lifespan","",""
"","","","","","choice_trial_setup","html-keyboard-response","138","817310","0.0-5.0-0.27","168","1","2025-04-14 14:23:57","bb671e3ae32f654b8954ea4c4635f915","","Mozilla/5.0 (Windows NT 10.0; Win64; x64) AppleWebKit/537.36 (KHTML, like Gecko) Chrome/125.0.0.0 Safari/537.36","WebKit","Chrome","125.0.0.0","Windows","10.0","https://hz8g1ckzuq.cognition.run/","en-US,en;q=0.9","gzvv773kh1ltxcx","32","[""White""]","No","Female","995819.3999999985","null","","<p></p>","null","choice","ctd","repulsion_2","1","microwave ovens","null","null","null","null","null","null","1","","","","","","","","","",""
"","","","","","choice_trial","survey-html-form","139","819361","0.0-5.0-1.27","168","1","2025-04-14 14:23:57","bb671e3ae32f654b8954ea4c4635f915","","Mozilla/5.0 (Windows NT 10.0; Win64; x64) AppleWebKit/537.36 (KHTML, like Gecko) Chrome/125.0.0.0 Safari/537.36","WebKit","Chrome","125.0.0.0","Windows","10.0","https://hz8g1ckzuq.cognition.run/","en-US,en;q=0.9","gzvv773kh1ltxcx","32","[""White""]","No","Female","995819.3999999985","2044","","","{""product_choice"":""A""}","choice","ctd","repulsion_2","1","microwave ovens","null","null","null","null","null","null","1","100","90","100","30","40","20","Warranty","Cooking power","",""
"","","","","","choice_trial_setup","html-keyboard-response","140","819678","0.0-5.0-0.28","168","1","2025-04-14 14:23:57","bb671e3ae32f654b8954ea4c4635f915","","Mozilla/5.0 (Windows NT 10.0; Win64; x64) AppleWebKit/537.36 (KHTML, like Gecko) Chrome/125.0.0.0 Safari/537.36","WebKit","Chrome","125.0.0.0","Windows","10.0","https://hz8g1ckzuq.cognition.run/","en-US,en;q=0.9","gzvv773kh1ltxcx","32","[""White""]","No","Female","995819.3999999985","null","","<p></p>","null","choice","tcd","repulsion_2","2","microwave ovens","null","null","null","null","null","null","1","","","","","","","","","",""
"","","","","","choice_trial","survey-html-form","141","824081","0.0-5.0-1.28","168","1","2025-04-14 14:23:57","bb671e3ae32f654b8954ea4c4635f915","","Mozilla/5.0 (Windows NT 10.0; Win64; x64) AppleWebKit/537.36 (KHTML, like Gecko) Chrome/125.0.0.0 Safari/537.36","WebKit","Chrome","125.0.0.0","Windows","10.0","https://hz8g1ckzuq.cognition.run/","en-US,en;q=0.9","gzvv773kh1ltxcx","32","[""White""]","No","Female","995819.3999999985","4396","","","{""product_choice"":""A""}","choice","tcd","repulsion_2","2","microwave ovens","null","null","null","null","null","null","1","30","40","20","100","90","100","Warranty","Cooking power","",""
"","","","","","choice_trial_setup","html-keyboard-response","142","824395","0.0-5.0-0.29","168","1","2025-04-14 14:23:57","bb671e3ae32f654b8954ea4c4635f915","","Mozilla/5.0 (Windows NT 10.0; Win64; x64) AppleWebKit/537.36 (KHTML, like Gecko) Chrome/125.0.0.0 Safari/537.36","WebKit","Chrome","125.0.0.0","Windows","10.0","https://hz8g1ckzuq.cognition.run/","en-US,en;q=0.9","gzvv773kh1ltxcx","32","[""White""]","No","Female","995819.3999999985","null","","<p></p>","null","choice","dtc","repulsion_1","2","microwave ovens","null","null","null","null","null","null","2","","","","","","","","","",""
"","","","","","choice_trial","survey-html-form","143","827834","0.0-5.0-1.29","168","1","2025-04-14 14:23:57","bb671e3ae32f654b8954ea4c4635f915","","Mozilla/5.0 (Windows NT 10.0; Win64; x64) AppleWebKit/537.36 (KHTML, like Gecko) Chrome/125.0.0.0 Safari/537.36","WebKit","Chrome","125.0.0.0","Windows","10.0","https://hz8g1ckzuq.cognition.run/","en-US,en;q=0.9","gzvv773kh1ltxcx","32","[""White""]","No","Female","995819.3999999985","3426","","","{""product_choice"":""B""}","choice","dtc","repulsion_1","2","microwave ovens","null","null","null","null","null","null","2","30","40","25","100","90","100","Warranty","Cooking power","",""
"","","","","","choice_trial_setup","html-keyboard-response","144","828138","0.0-5.0-0.30","168","1","2025-04-14 14:23:57","bb671e3ae32f654b8954ea4c4635f915","","Mozilla/5.0 (Windows NT 10.0; Win64; x64) AppleWebKit/537.36 (KHTML, like Gecko) Chrome/125.0.0.0 Safari/537.36","WebKit","Chrome","125.0.0.0","Windows","10.0","https://hz8g1ckzuq.cognition.run/","en-US,en;q=0.9","gzvv773kh1ltxcx","32","[""White""]","No","Female","995819.3999999985","null","","<p></p>","null","choice","wwb","catch","null","laptops","70","65","20","15","25","25","2","","","","","","","","","",""
"","","","","","choice_trial","survey-html-form","145","830809","0.0-5.0-1.30","168","1","2025-04-14 14:23:57","bb671e3ae32f654b8954ea4c4635f915","","Mozilla/5.0 (Windows NT 10.0; Win64; x64) AppleWebKit/537.36 (KHTML, like Gecko) Chrome/125.0.0.0 Safari/537.36","WebKit","Chrome","125.0.0.0","Windows","10.0","https://hz8g1ckzuq.cognition.run/","en-US,en;q=0.9","gzvv773kh1ltxcx","32","[""White""]","No","Female","995819.3999999985","2659","","","{""product_choice"":""C""}","choice","wwb","catch","null","laptops","70","65","20","15","25","25","2","null","null","null","null","null","null","Processing speed","Memory (RAM)","",""
"","","","","","choice_trial_setup","html-keyboard-response","146","831126","0.0-5.0-0.31","168","1","2025-04-14 14:23:57","bb671e3ae32f654b8954ea4c4635f915","","Mozilla/5.0 (Windows NT 10.0; Win64; x64) AppleWebKit/537.36 (KHTML, like Gecko) Chrome/125.0.0.0 Safari/537.36","WebKit","Chrome","125.0.0.0","Windows","10.0","https://hz8g1ckzuq.cognition.run/","en-US,en;q=0.9","gzvv773kh1ltxcx","32","[""White""]","No","Female","995819.3999999985","null","","<p></p>","null","choice","dct","attraction_2","2","televisions","null","null","null","null","null","null","1","","","","","","","","","",""
"","","","","","choice_trial","survey-html-form","147","835089","0.0-5.0-1.31","168","1","2025-04-14 14:23:57","bb671e3ae32f654b8954ea4c4635f915","","Mozilla/5.0 (Windows NT 10.0; Win64; x64) AppleWebKit/537.36 (KHTML, like Gecko) Chrome/125.0.0.0 Safari/537.36","WebKit","Chrome","125.0.0.0","Windows","10.0","https://hz8g1ckzuq.cognition.run/","en-US,en;q=0.9","gzvv773kh1ltxcx","32","[""White""]","No","Female","995819.3999999985","3954","","","{""product_choice"":""C""}","choice","dct","attraction_2","2","televisions","null","null","null","null","null","null","1","50","60","40","60","50","60","Screen size","Average lifespan","",""
"","","","","","choice_trial_setup","html-keyboard-response","148","835397","0.0-5.0-0.32","168","1","2025-04-14 14:23:57","bb671e3ae32f654b8954ea4c4635f915","","Mozilla/5.0 (Windows NT 10.0; Win64; x64) AppleWebKit/537.36 (KHTML, like Gecko) Chrome/125.0.0.0 Safari/537.36","WebKit","Chrome","125.0.0.0","Windows","10.0","https://hz8g1ckzuq.cognition.run/","en-US,en;q=0.9","gzvv773kh1ltxcx","32","[""White""]","No","Female","995819.3999999985","null","","<p></p>","null","choice","dtc","attraction_2","1","televisions","null","null","null","null","null","null","1","","","","","","","","","",""
"","","","","","choice_trial","survey-html-form","149","847688","0.0-5.0-1.32","168","1","2025-04-14 14:23:57","bb671e3ae32f654b8954ea4c4635f915","","Mozilla/5.0 (Windows NT 10.0; Win64; x64) AppleWebKit/537.36 (KHTML, like Gecko) Chrome/125.0.0.0 Safari/537.36","WebKit","Chrome","125.0.0.0","Windows","10.0","https://hz8g1ckzuq.cognition.run/","en-US,en;q=0.9","gzvv773kh1ltxcx","32","[""White""]","No","Female","995819.3999999985","12285","","","{""product_choice"":""A""}","choice","dtc","attraction_2","1","televisions","null","null","null","null","null","null","1","60","50","60","50","60","40","Screen size","Average lifespan","",""
"","","","","","choice_trial_setup","html-keyboard-response","150","848006","0.0-5.0-0.33","168","1","2025-04-14 14:23:57","bb671e3ae32f654b8954ea4c4635f915","","Mozilla/5.0 (Windows NT 10.0; Win64; x64) AppleWebKit/537.36 (KHTML, like Gecko) Chrome/125.0.0.0 Safari/537.36","WebKit","Chrome","125.0.0.0","Windows","10.0","https://hz8g1ckzuq.cognition.run/","en-US,en;q=0.9","gzvv773kh1ltxcx","32","[""White""]","No","Female","995819.3999999985","null","","<p></p>","null","choice","dtc","attraction_1","1","microwave ovens","null","null","null","null","null","null","1","","","","","","","","","",""
"","","","","","choice_trial","survey-html-form","151","849664","0.0-5.0-1.33","168","1","2025-04-14 14:23:57","bb671e3ae32f654b8954ea4c4635f915","","Mozilla/5.0 (Windows NT 10.0; Win64; x64) AppleWebKit/537.36 (KHTML, like Gecko) Chrome/125.0.0.0 Safari/537.36","WebKit","Chrome","125.0.0.0","Windows","10.0","https://hz8g1ckzuq.cognition.run/","en-US,en;q=0.9","gzvv773kh1ltxcx","32","[""White""]","No","Female","995819.3999999985","1648","","","{""product_choice"":""B""}","choice","dtc","attraction_1","1","microwave ovens","null","null","null","null","null","null","1","60","50","60","50","60","45","Warranty","Cooking power","",""
"","","","","","choice_trial_setup","html-keyboard-response","152","849975","0.0-5.0-0.34","168","1","2025-04-14 14:23:57","bb671e3ae32f654b8954ea4c4635f915","","Mozilla/5.0 (Windows NT 10.0; Win64; x64) AppleWebKit/537.36 (KHTML, like Gecko) Chrome/125.0.0.0 Safari/537.36","WebKit","Chrome","125.0.0.0","Windows","10.0","https://hz8g1ckzuq.cognition.run/","en-US,en;q=0.9","gzvv773kh1ltxcx","32","[""White""]","No","Female","995819.3999999985","null","","<p></p>","null","choice","bww","catch","null","microwave ovens","95","85","10","25","20","30","2","","","","","","","","","",""
"","","","","","choice_trial","survey-html-form","153","851649","0.0-5.0-1.34","168","1","2025-04-14 14:23:57","bb671e3ae32f654b8954ea4c4635f915","","Mozilla/5.0 (Windows NT 10.0; Win64; x64) AppleWebKit/537.36 (KHTML, like Gecko) Chrome/125.0.0.0 Safari/537.36","WebKit","Chrome","125.0.0.0","Windows","10.0","https://hz8g1ckzuq.cognition.run/","en-US,en;q=0.9","gzvv773kh1ltxcx","32","[""White""]","No","Female","995819.3999999985","1666","","","{""product_choice"":""A""}","choice","bww","catch","null","microwave ovens","95","85","10","25","20","30","2","null","null","null","null","null","null","Warranty","Cooking power","",""
"","","","","","choice_trial_setup","html-keyboard-response","154","851960","0.0-5.0-0.35","168","1","2025-04-14 14:23:57","bb671e3ae32f654b8954ea4c4635f915","","Mozilla/5.0 (Windows NT 10.0; Win64; x64) AppleWebKit/537.36 (KHTML, like Gecko) Chrome/125.0.0.0 Safari/537.36","WebKit","Chrome","125.0.0.0","Windows","10.0","https://hz8g1ckzuq.cognition.run/","en-US,en;q=0.9","gzvv773kh1ltxcx","32","[""White""]","No","Female","995819.3999999985","null","","<p></p>","null","choice","wbw","catch","null","washing machines","55","60","10","25","25","50","2","","","","","","","","","",""
"","","","","","choice_trial","survey-html-form","155","854209","0.0-5.0-1.35","168","1","2025-04-14 14:23:57","bb671e3ae32f654b8954ea4c4635f915","","Mozilla/5.0 (Windows NT 10.0; Win64; x64) AppleWebKit/537.36 (KHTML, like Gecko) Chrome/125.0.0.0 Safari/537.36","WebKit","Chrome","125.0.0.0","Windows","10.0","https://hz8g1ckzuq.cognition.run/","en-US,en;q=0.9","gzvv773kh1ltxcx","32","[""White""]","No","Female","995819.3999999985","2241","","","{""product_choice"":""B""}","choice","wbw","catch","null","washing machines","55","60","10","25","25","50","2","null","null","null","null","null","null","Average lifespan","Energy savings","",""
"","","","","","choice_trial_setup","html-keyboard-response","156","854518","0.0-5.0-0.36","168","1","2025-04-14 14:23:57","bb671e3ae32f654b8954ea4c4635f915","","Mozilla/5.0 (Windows NT 10.0; Win64; x64) AppleWebKit/537.36 (KHTML, like Gecko) Chrome/125.0.0.0 Safari/537.36","WebKit","Chrome","125.0.0.0","Windows","10.0","https://hz8g1ckzuq.cognition.run/","en-US,en;q=0.9","gzvv773kh1ltxcx","32","[""White""]","No","Female","995819.3999999985","null","","<p></p>","null","choice","dtc","repulsion_1","1","laptops","null","null","null","null","null","null","2","","","","","","","","","",""
"","","","","","choice_trial","survey-html-form","157","858552","0.0-5.0-1.36","168","1","2025-04-14 14:23:57","bb671e3ae32f654b8954ea4c4635f915","","Mozilla/5.0 (Windows NT 10.0; Win64; x64) AppleWebKit/537.36 (KHTML, like Gecko) Chrome/125.0.0.0 Safari/537.36","WebKit","Chrome","125.0.0.0","Windows","10.0","https://hz8g1ckzuq.cognition.run/","en-US,en;q=0.9","gzvv773kh1ltxcx","32","[""White""]","No","Female","995819.3999999985","4026","","","{""product_choice"":""B""}","choice","dtc","repulsion_1","1","laptops","null","null","null","null","null","null","2","100","90","100","30","40","25","Processing speed","Memory (RAM)","",""
