"success","timeout","failed_images","failed_audio","failed_video","screen_id","trial_type","trial_index","time_elapsed","internal_node_id","run_id","condition","recorded_at","source_code_version","ip","user_agent","device","browser","browser_version","platform","platform_version","referer","accept_language","ppt_id","age","race","ethnicity","gender","exp_duration","rt","view_history","stimulus","response","phase","order","effect","t_high","category","d1_best","d2_best","d1_worst1","d2_worst1","d1_worst2","d2_worst2","first_dim","d1_t","d1_c","d1_d","d2_t","d2_c","d2_d","d1_name","d2_name","strategy_response","question_order"
"true","false","[]","[]","[]","img preload","preload","0","11490","0.0-0.0","169","1","2025-04-14 14:24:18","bb671e3ae32f654b8954ea4c4635f915","","Mozilla/5.0 (Windows NT 10.0; Win64; x64) AppleWebKit/537.36 (KHTML, like Gecko) Chrome/120.0.0.0 Safari/537.36","WebKit","Chrome","120.0.0.0","Windows","10.0","https://hz8g1ckzuq.cognition.run/","en-US,en;q=0.9","utru0t3ulum1f9r","54","[""White""]","No","Male","2780591.8999999985","","","","","","","","","","","","","","","","","","","","","","","","","",""
"true","","","","","","fullscreen","1","22772","0.0-1.0","169","1","2025-04-14 14:24:18","bb671e3ae32f654b8954ea4c4635f915","","Mozilla/5.0 (Windows NT 10.0; Win64; x64) AppleWebKit/537.36 (KHTML, like Gecko) Chrome/120.0.0.0 Safari/537.36","WebKit","Chrome","120.0.0.0","Windows","10.0","https://hz8g1ckzuq.cognition.run/","en-US,en;q=0.9","utru0t3ulum1f9r","54","[""White""]","No","Male","2780591.8999999985","10270","","","","","","","","","","","","","","","","","","","","","","","","",""
"","","","","","","instructions","2","202202","0.0-2.0","169","1","2025-04-14 14:24:18","bb671e3ae32f654b8954ea4c4635f915","","Mozilla/5.0 (Windows NT 10.0; Win64; x64) AppleWebKit/537.36 (KHTML, like Gecko) Chrome/120.0.0.0 Safari/537.36","WebKit","Chrome","120.0.0.0","Windows","10.0","https://hz8g1ckzuq.cognition.run/","en-US,en;q=0.9","utru0t3ulum1f9r","54","[""White""]","No","Male","2780591.8999999985","179427","[{""page_index"":0,""viewing_time"":4208},{""page_index"":1,""viewing_time"":11088},{""page_index"":2,""viewing_time"":16776},{""page_index"":3,""viewing_time"":11936},{""page_index"":4,""viewing_time"":29928},{""page_index"":5,""viewing_time"":9376},{""page_index"":6,""viewing_time"":11168},{""page_index"":7,""viewing_time"":50928},{""page_index"":8,""viewing_time"":23560},{""page_index"":9,""viewing_time"":10457}]","","","","","","","","","","","","","","","","","","","","","","","",""
"","","","","","rating_trial_setup","html-keyboard-response","3","202514","0.0-3.0-0.0","169","1","2025-04-14 14:24:18","bb671e3ae32f654b8954ea4c4635f915","","Mozilla/5.0 (Windows NT 10.0; Win64; x64) AppleWebKit/537.36 (KHTML, like Gecko) Chrome/120.0.0.0 Safari/537.36","WebKit","Chrome","120.0.0.0","Windows","10.0","https://hz8g1ckzuq.cognition.run/","en-US,en;q=0.9","utru0t3ulum1f9r","54","[""White""]","No","Male","2780591.8999999985","null","","<p></p>","null","rating","ctd","attraction_1","1","laptops","null","null","null","null","null","null","2","","","","","","","","","",""
"","","","","","rating_trial","survey-html-form","4","285330","0.0-3.0-1.0","169","1","2025-04-14 14:24:18","bb671e3ae32f654b8954ea4c4635f915","","Mozilla/5.0 (Windows NT 10.0; Win64; x64) AppleWebKit/537.36 (KHTML, like Gecko) Chrome/120.0.0.0 Safari/537.36","WebKit","Chrome","120.0.0.0","Windows","10.0","https://hz8g1ckzuq.cognition.run/","en-US,en;q=0.9","utru0t3ulum1f9r","54","[""White""]","No","Male","2780591.8999999985","82810","","","{""price_1"":""950"",""price_2"":""870"",""price_3"":""910""}","rating","ctd","attraction_1","1","laptops","null","null","null","null","null","null","2","60","50","60","50","60","45","Processing speed","Memory (RAM)","",""
"","","","","","rating_trial_setup","html-keyboard-response","5","285635","0.0-3.0-0.1","169","1","2025-04-14 14:24:18","bb671e3ae32f654b8954ea4c4635f915","","Mozilla/5.0 (Windows NT 10.0; Win64; x64) AppleWebKit/537.36 (KHTML, like Gecko) Chrome/120.0.0.0 Safari/537.36","WebKit","Chrome","120.0.0.0","Windows","10.0","https://hz8g1ckzuq.cognition.run/","en-US,en;q=0.9","utru0t3ulum1f9r","54","[""White""]","No","Male","2780591.8999999985","null","","<p></p>","null","rating","ctd","repulsion_1","1","microwave ovens","null","null","null","null","null","null","1","","","","","","","","","",""
"","","","","","rating_trial","survey-html-form","6","416265","0.0-3.0-1.1","169","1","2025-04-14 14:24:18","bb671e3ae32f654b8954ea4c4635f915","","Mozilla/5.0 (Windows NT 10.0; Win64; x64) AppleWebKit/537.36 (KHTML, like Gecko) Chrome/120.0.0.0 Safari/537.36","WebKit","Chrome","120.0.0.0","Windows","10.0","https://hz8g1ckzuq.cognition.run/","en-US,en;q=0.9","utru0t3ulum1f9r","54","[""White""]","No","Male","2780591.8999999985","130620","","","{""price_1"":""100"",""price_2"":""90"",""price_3"":""80""}","rating","ctd","repulsion_1","1","microwave ovens","null","null","null","null","null","null","1","100","90","100","30","40","25","Warranty","Cooking power","",""
"","","","","","rating_trial_setup","html-keyboard-response","7","416576","0.0-3.0-0.2","169","1","2025-04-14 14:24:18","bb671e3ae32f654b8954ea4c4635f915","","Mozilla/5.0 (Windows NT 10.0; Win64; x64) AppleWebKit/537.36 (KHTML, like Gecko) Chrome/120.0.0.0 Safari/537.36","WebKit","Chrome","120.0.0.0","Windows","10.0","https://hz8g1ckzuq.cognition.run/","en-US,en;q=0.9","utru0t3ulum1f9r","54","[""White""]","No","Male","2780591.8999999985","null","","<p></p>","null","rating","tdc","repulsion_2","1","washing machines","null","null","null","null","null","null","2","","","","","","","","","",""
"","","","","","rating_trial","survey-html-form","8","497312","0.0-3.0-1.2","169","1","2025-04-14 14:24:18","bb671e3ae32f654b8954ea4c4635f915","","Mozilla/5.0 (Windows NT 10.0; Win64; x64) AppleWebKit/537.36 (KHTML, like Gecko) Chrome/120.0.0.0 Safari/537.36","WebKit","Chrome","120.0.0.0","Windows","10.0","https://hz8g1ckzuq.cognition.run/","en-US,en;q=0.9","utru0t3ulum1f9r","54","[""White""]","No","Male","2780591.8999999985","80730","","","{""price_1"":""1100"",""price_2"":""930"",""price_3"":""1200""}","rating","tdc","repulsion_2","1","washing machines","null","null","null","null","null","null","2","100","90","100","30","40","20","Average lifespan","Energy savings","",""
"","","","","","rating_trial_setup","html-keyboard-response","9","497623","0.0-3.0-0.3","169","1","2025-04-14 14:24:18","bb671e3ae32f654b8954ea4c4635f915","","Mozilla/5.0 (Windows NT 10.0; Win64; x64) AppleWebKit/537.36 (KHTML, like Gecko) Chrome/120.0.0.0 Safari/537.36","WebKit","Chrome","120.0.0.0","Windows","10.0","https://hz8g1ckzuq.cognition.run/","en-US,en;q=0.9","utru0t3ulum1f9r","54","[""White""]","No","Male","2780591.8999999985","null","","<p></p>","null","rating","tdc","repulsion_2","2","microwave ovens","null","null","null","null","null","null","1","","","","","","","","","",""
"","","","","","rating_trial","survey-html-form","10","540400","0.0-3.0-1.3","169","1","2025-04-14 14:24:18","bb671e3ae32f654b8954ea4c4635f915","","Mozilla/5.0 (Windows NT 10.0; Win64; x64) AppleWebKit/537.36 (KHTML, like Gecko) Chrome/120.0.0.0 Safari/537.36","WebKit","Chrome","120.0.0.0","Windows","10.0","https://hz8g1ckzuq.cognition.run/","en-US,en;q=0.9","utru0t3ulum1f9r","54","[""White""]","No","Male","2780591.8999999985","42771","","","{""price_1"":""100"",""price_2"":""70"",""price_3"":""98""}","rating","tdc","repulsion_2","2","microwave ovens","null","null","null","null","null","null","1","30","40","20","100","90","100","Warranty","Cooking power","",""
"","","","","","rating_trial_setup","html-keyboard-response","11","540703","0.0-3.0-0.4","169","1","2025-04-14 14:24:18","bb671e3ae32f654b8954ea4c4635f915","","Mozilla/5.0 (Windows NT 10.0; Win64; x64) AppleWebKit/537.36 (KHTML, like Gecko) Chrome/120.0.0.0 Safari/537.36","WebKit","Chrome","120.0.0.0","Windows","10.0","https://hz8g1ckzuq.cognition.run/","en-US,en;q=0.9","utru0t3ulum1f9r","54","[""White""]","No","Male","2780591.8999999985","null","","<p></p>","null","rating","bww","catch","null","laptops","50","55","40","30","20","15","2","","","","","","","","","",""
"","","","","","rating_trial","survey-html-form","12","622441","0.0-3.0-1.4","169","1","2025-04-14 14:24:18","bb671e3ae32f654b8954ea4c4635f915","","Mozilla/5.0 (Windows NT 10.0; Win64; x64) AppleWebKit/537.36 (KHTML, like Gecko) Chrome/120.0.0.0 Safari/537.36","WebKit","Chrome","120.0.0.0","Windows","10.0","https://hz8g1ckzuq.cognition.run/","en-US,en;q=0.9","utru0t3ulum1f9r","54","[""White""]","No","Male","2780591.8999999985","81729","","","{""price_1"":""2000"",""price_2"":""1560"",""price_3"":""1230""}","rating","bww","catch","null","laptops","50","55","40","30","20","15","2","null","null","null","null","null","null","Processing speed","Memory (RAM)","",""
"","","","","","rating_trial_setup","html-keyboard-response","13","622747","0.0-3.0-0.5","169","1","2025-04-14 14:24:18","bb671e3ae32f654b8954ea4c4635f915","","Mozilla/5.0 (Windows NT 10.0; Win64; x64) AppleWebKit/537.36 (KHTML, like Gecko) Chrome/120.0.0.0 Safari/537.36","WebKit","Chrome","120.0.0.0","Windows","10.0","https://hz8g1ckzuq.cognition.run/","en-US,en;q=0.9","utru0t3ulum1f9r","54","[""White""]","No","Male","2780591.8999999985","null","","<p></p>","null","rating","bww","catch","null","laptops","80","55","45","25","25","50","2","","","","","","","","","",""
"","","","","","rating_trial","survey-html-form","14","674201","0.0-3.0-1.5","169","1","2025-04-14 14:24:18","bb671e3ae32f654b8954ea4c4635f915","","Mozilla/5.0 (Windows NT 10.0; Win64; x64) AppleWebKit/537.36 (KHTML, like Gecko) Chrome/120.0.0.0 Safari/537.36","WebKit","Chrome","120.0.0.0","Windows","10.0","https://hz8g1ckzuq.cognition.run/","en-US,en;q=0.9","utru0t3ulum1f9r","54","[""White""]","No","Male","2780591.8999999985","51450","","","{""price_1"":""2700"",""price_2"":""1560"",""price_3"":""1360""}","rating","bww","catch","null","laptops","80","55","45","25","25","50","2","null","null","null","null","null","null","Processing speed","Memory (RAM)","",""
"","","","","","rating_trial_setup","html-keyboard-response","15","674505","0.0-3.0-0.6","169","1","2025-04-14 14:24:18","bb671e3ae32f654b8954ea4c4635f915","","Mozilla/5.0 (Windows NT 10.0; Win64; x64) AppleWebKit/537.36 (KHTML, like Gecko) Chrome/120.0.0.0 Safari/537.36","WebKit","Chrome","120.0.0.0","Windows","10.0","https://hz8g1ckzuq.cognition.run/","en-US,en;q=0.9","utru0t3ulum1f9r","54","[""White""]","No","Male","2780591.8999999985","null","","<p></p>","null","rating","ctd","repulsion_2","2","washing machines","null","null","null","null","null","null","1","","","","","","","","","",""
"","","","","","rating_trial","survey-html-form","16","730153","0.0-3.0-1.6","169","1","2025-04-14 14:24:18","bb671e3ae32f654b8954ea4c4635f915","","Mozilla/5.0 (Windows NT 10.0; Win64; x64) AppleWebKit/537.36 (KHTML, like Gecko) Chrome/120.0.0.0 Safari/537.36","WebKit","Chrome","120.0.0.0","Windows","10.0","https://hz8g1ckzuq.cognition.run/","en-US,en;q=0.9","utru0t3ulum1f9r","54","[""White""]","No","Male","2780591.8999999985","55637","","","{""price_1"":""890"",""price_2"":""720"",""price_3"":""670""}","rating","ctd","repulsion_2","2","washing machines","null","null","null","null","null","null","1","30","40","20","100","90","100","Average lifespan","Energy savings","",""
"","","","","","rating_trial_setup","html-keyboard-response","17","730457","0.0-3.0-0.7","169","1","2025-04-14 14:24:18","bb671e3ae32f654b8954ea4c4635f915","","Mozilla/5.0 (Windows NT 10.0; Win64; x64) AppleWebKit/537.36 (KHTML, like Gecko) Chrome/120.0.0.0 Safari/537.36","WebKit","Chrome","120.0.0.0","Windows","10.0","https://hz8g1ckzuq.cognition.run/","en-US,en;q=0.9","utru0t3ulum1f9r","54","[""White""]","No","Male","2780591.8999999985","null","","<p></p>","null","rating","dtc","attraction_2","1","televisions","null","null","null","null","null","null","1","","","","","","","","","",""
"","","","","","rating_trial","survey-html-form","18","794449","0.0-3.0-1.7","169","1","2025-04-14 14:24:18","bb671e3ae32f654b8954ea4c4635f915","","Mozilla/5.0 (Windows NT 10.0; Win64; x64) AppleWebKit/537.36 (KHTML, like Gecko) Chrome/120.0.0.0 Safari/537.36","WebKit","Chrome","120.0.0.0","Windows","10.0","https://hz8g1ckzuq.cognition.run/","en-US,en;q=0.9","utru0t3ulum1f9r","54","[""White""]","No","Male","2780591.8999999985","63982","","","{""price_1"":""730"",""price_2"":""662"",""price_3"":""776""}","rating","dtc","attraction_2","1","televisions","null","null","null","null","null","null","1","60","50","60","50","60","40","Screen size","Average lifespan","",""
"","","","","","rating_trial_setup","html-keyboard-response","19","794752","0.0-3.0-0.8","169","1","2025-04-14 14:24:18","bb671e3ae32f654b8954ea4c4635f915","","Mozilla/5.0 (Windows NT 10.0; Win64; x64) AppleWebKit/537.36 (KHTML, like Gecko) Chrome/120.0.0.0 Safari/537.36","WebKit","Chrome","120.0.0.0","Windows","10.0","https://hz8g1ckzuq.cognition.run/","en-US,en;q=0.9","utru0t3ulum1f9r","54","[""White""]","No","Male","2780591.8999999985","null","","<p></p>","null","rating","dtc","repulsion_1","1","laptops","null","null","null","null","null","null","2","","","","","","","","","",""
"","","","","","rating_trial","survey-html-form","20","830001","0.0-3.0-1.8","169","1","2025-04-14 14:24:18","bb671e3ae32f654b8954ea4c4635f915","","Mozilla/5.0 (Windows NT 10.0; Win64; x64) AppleWebKit/537.36 (KHTML, like Gecko) Chrome/120.0.0.0 Safari/537.36","WebKit","Chrome","120.0.0.0","Windows","10.0","https://hz8g1ckzuq.cognition.run/","en-US,en;q=0.9","utru0t3ulum1f9r","54","[""White""]","No","Male","2780591.8999999985","35238","","","{""price_1"":""890"",""price_2"":""800"",""price_3"":""950""}","rating","dtc","repulsion_1","1","laptops","null","null","null","null","null","null","2","100","90","100","30","40","25","Processing speed","Memory (RAM)","",""
"","","","","","rating_trial_setup","html-keyboard-response","21","830314","0.0-3.0-0.9","169","1","2025-04-14 14:24:18","bb671e3ae32f654b8954ea4c4635f915","","Mozilla/5.0 (Windows NT 10.0; Win64; x64) AppleWebKit/537.36 (KHTML, like Gecko) Chrome/120.0.0.0 Safari/537.36","WebKit","Chrome","120.0.0.0","Windows","10.0","https://hz8g1ckzuq.cognition.run/","en-US,en;q=0.9","utru0t3ulum1f9r","54","[""White""]","No","Male","2780591.8999999985","null","","<p></p>","null","rating","dct","attraction_2","2","microwave ovens","null","null","null","null","null","null","2","","","","","","","","","",""
"","","","","","rating_trial","survey-html-form","22","878249","0.0-3.0-1.9","169","1","2025-04-14 14:24:18","bb671e3ae32f654b8954ea4c4635f915","","Mozilla/5.0 (Windows NT 10.0; Win64; x64) AppleWebKit/537.36 (KHTML, like Gecko) Chrome/120.0.0.0 Safari/537.36","WebKit","Chrome","120.0.0.0","Windows","10.0","https://hz8g1ckzuq.cognition.run/","en-US,en;q=0.9","utru0t3ulum1f9r","54","[""White""]","No","Male","2780591.8999999985","47924","","","{""price_1"":""240"",""price_2"":""250"",""price_3"":""300""}","rating","dct","attraction_2","2","microwave ovens","null","null","null","null","null","null","2","50","60","40","60","50","60","Warranty","Cooking power","",""
"","","","","","rating_trial_setup","html-keyboard-response","23","878554","0.0-3.0-0.10","169","1","2025-04-14 14:24:18","bb671e3ae32f654b8954ea4c4635f915","","Mozilla/5.0 (Windows NT 10.0; Win64; x64) AppleWebKit/537.36 (KHTML, like Gecko) Chrome/120.0.0.0 Safari/537.36","WebKit","Chrome","120.0.0.0","Windows","10.0","https://hz8g1ckzuq.cognition.run/","en-US,en;q=0.9","utru0t3ulum1f9r","54","[""White""]","No","Male","2780591.8999999985","null","","<p></p>","null","rating","bww","catch","null","washing machines","60","65","45","45","10","5","2","","","","","","","","","",""
"","","","","","rating_trial","survey-html-form","24","921625","0.0-3.0-1.10","169","1","2025-04-14 14:24:18","bb671e3ae32f654b8954ea4c4635f915","","Mozilla/5.0 (Windows NT 10.0; Win64; x64) AppleWebKit/537.36 (KHTML, like Gecko) Chrome/120.0.0.0 Safari/537.36","WebKit","Chrome","120.0.0.0","Windows","10.0","https://hz8g1ckzuq.cognition.run/","en-US,en;q=0.9","utru0t3ulum1f9r","54","[""White""]","No","Male","2780591.8999999985","43066","","","{""price_1"":""1270"",""price_2"":""1150"",""price_3"":""500""}","rating","bww","catch","null","washing machines","60","65","45","45","10","5","2","null","null","null","null","null","null","Average lifespan","Energy savings","",""
"","","","","","rating_trial_setup","html-keyboard-response","25","921934","0.0-3.0-0.11","169","1","2025-04-14 14:24:18","bb671e3ae32f654b8954ea4c4635f915","","Mozilla/5.0 (Windows NT 10.0; Win64; x64) AppleWebKit/537.36 (KHTML, like Gecko) Chrome/120.0.0.0 Safari/537.36","WebKit","Chrome","120.0.0.0","Windows","10.0","https://hz8g1ckzuq.cognition.run/","en-US,en;q=0.9","utru0t3ulum1f9r","54","[""White""]","No","Male","2780591.8999999985","null","","<p></p>","null","rating","ctd","attraction_2","1","laptops","null","null","null","null","null","null","1","","","","","","","","","",""
"","","","","","rating_trial","survey-html-form","26","971824","0.0-3.0-1.11","169","1","2025-04-14 14:24:18","bb671e3ae32f654b8954ea4c4635f915","","Mozilla/5.0 (Windows NT 10.0; Win64; x64) AppleWebKit/537.36 (KHTML, like Gecko) Chrome/120.0.0.0 Safari/537.36","WebKit","Chrome","120.0.0.0","Windows","10.0","https://hz8g1ckzuq.cognition.run/","en-US,en;q=0.9","utru0t3ulum1f9r","54","[""White""]","No","Male","2780591.8999999985","49880","","","{""price_1"":""860"",""price_2"":""900"",""price_3"":""840""}","rating","ctd","attraction_2","1","laptops","null","null","null","null","null","null","1","60","50","60","50","60","40","Processing speed","Memory (RAM)","",""
"","","","","","rating_trial_setup","html-keyboard-response","27","972140","0.0-3.0-0.12","169","1","2025-04-14 14:24:18","bb671e3ae32f654b8954ea4c4635f915","","Mozilla/5.0 (Windows NT 10.0; Win64; x64) AppleWebKit/537.36 (KHTML, like Gecko) Chrome/120.0.0.0 Safari/537.36","WebKit","Chrome","120.0.0.0","Windows","10.0","https://hz8g1ckzuq.cognition.run/","en-US,en;q=0.9","utru0t3ulum1f9r","54","[""White""]","No","Male","2780591.8999999985","null","","<p></p>","null","rating","tdc","attraction_2","2","laptops","null","null","null","null","null","null","1","","","","","","","","","",""
"","","","","","rating_trial","survey-html-form","28","1002217","0.0-3.0-1.12","169","1","2025-04-14 14:24:18","bb671e3ae32f654b8954ea4c4635f915","","Mozilla/5.0 (Windows NT 10.0; Win64; x64) AppleWebKit/537.36 (KHTML, like Gecko) Chrome/120.0.0.0 Safari/537.36","WebKit","Chrome","120.0.0.0","Windows","10.0","https://hz8g1ckzuq.cognition.run/","en-US,en;q=0.9","utru0t3ulum1f9r","54","[""White""]","No","Male","2780591.8999999985","30070","","","{""price_1"":""910"",""price_2"":""870"",""price_3"":""900""}","rating","tdc","attraction_2","2","laptops","null","null","null","null","null","null","1","50","60","40","60","50","60","Processing speed","Memory (RAM)","",""
"","","","","","rating_trial_setup","html-keyboard-response","29","1002521","0.0-3.0-0.13","169","1","2025-04-14 14:24:18","bb671e3ae32f654b8954ea4c4635f915","","Mozilla/5.0 (Windows NT 10.0; Win64; x64) AppleWebKit/537.36 (KHTML, like Gecko) Chrome/120.0.0.0 Safari/537.36","WebKit","Chrome","120.0.0.0","Windows","10.0","https://hz8g1ckzuq.cognition.run/","en-US,en;q=0.9","utru0t3ulum1f9r","54","[""White""]","No","Male","2780591.8999999985","null","","<p></p>","null","rating","bww","catch","null","microwave ovens","90","55","30","40","40","45","2","","","","","","","","","",""
"","","","","","rating_trial","survey-html-form","30","1031040","0.0-3.0-1.13","169","1","2025-04-14 14:24:18","bb671e3ae32f654b8954ea4c4635f915","","Mozilla/5.0 (Windows NT 10.0; Win64; x64) AppleWebKit/537.36 (KHTML, like Gecko) Chrome/120.0.0.0 Safari/537.36","WebKit","Chrome","120.0.0.0","Windows","10.0","https://hz8g1ckzuq.cognition.run/","en-US,en;q=0.9","utru0t3ulum1f9r","54","[""White""]","No","Male","2780591.8999999985","28505","","","{""price_1"":""90"",""price_2"":""70"",""price_3"":""72""}","rating","bww","catch","null","microwave ovens","90","55","30","40","40","45","2","null","null","null","null","null","null","Warranty","Cooking power","",""
"","","","","","rating_trial_setup","html-keyboard-response","31","1031347","0.0-3.0-0.14","169","1","2025-04-14 14:24:18","bb671e3ae32f654b8954ea4c4635f915","","Mozilla/5.0 (Windows NT 10.0; Win64; x64) AppleWebKit/537.36 (KHTML, like Gecko) Chrome/120.0.0.0 Safari/537.36","WebKit","Chrome","120.0.0.0","Windows","10.0","https://hz8g1ckzuq.cognition.run/","en-US,en;q=0.9","utru0t3ulum1f9r","54","[""White""]","No","Male","2780591.8999999985","null","","<p></p>","null","rating","dtc","repulsion_1","1","televisions","null","null","null","null","null","null","1","","","","","","","","","",""
"","","","","","rating_trial","survey-html-form","32","1073369","0.0-3.0-1.14","169","1","2025-04-14 14:24:18","bb671e3ae32f654b8954ea4c4635f915","","Mozilla/5.0 (Windows NT 10.0; Win64; x64) AppleWebKit/537.36 (KHTML, like Gecko) Chrome/120.0.0.0 Safari/537.36","WebKit","Chrome","120.0.0.0","Windows","10.0","https://hz8g1ckzuq.cognition.run/","en-US,en;q=0.9","utru0t3ulum1f9r","54","[""White""]","No","Male","2780591.8999999985","42011","","","{""price_1"":""499"",""price_2"":""550"",""price_3"":""570""}","rating","dtc","repulsion_1","1","televisions","null","null","null","null","null","null","1","100","90","100","30","40","25","Screen size","Average lifespan","",""
"","","","","","rating_trial_setup","html-keyboard-response","33","1073677","0.0-3.0-0.15","169","1","2025-04-14 14:24:18","bb671e3ae32f654b8954ea4c4635f915","","Mozilla/5.0 (Windows NT 10.0; Win64; x64) AppleWebKit/537.36 (KHTML, like Gecko) Chrome/120.0.0.0 Safari/537.36","WebKit","Chrome","120.0.0.0","Windows","10.0","https://hz8g1ckzuq.cognition.run/","en-US,en;q=0.9","utru0t3ulum1f9r","54","[""White""]","No","Male","2780591.8999999985","null","","<p></p>","null","rating","tcd","repulsion_2","1","televisions","null","null","null","null","null","null","2","","","","","","","","","",""
"","","","","","rating_trial","survey-html-form","34","1099800","0.0-3.0-1.15","169","1","2025-04-14 14:24:18","bb671e3ae32f654b8954ea4c4635f915","","Mozilla/5.0 (Windows NT 10.0; Win64; x64) AppleWebKit/537.36 (KHTML, like Gecko) Chrome/120.0.0.0 Safari/537.36","WebKit","Chrome","120.0.0.0","Windows","10.0","https://hz8g1ckzuq.cognition.run/","en-US,en;q=0.9","utru0t3ulum1f9r","54","[""White""]","No","Male","2780591.8999999985","26110","","","{""price_1"":""500"",""price_2"":""600"",""price_3"":""450""}","rating","tcd","repulsion_2","1","televisions","null","null","null","null","null","null","2","100","90","100","30","40","20","Screen size","Average lifespan","",""
"","","","","","rating_trial_setup","html-keyboard-response","35","1100115","0.0-3.0-0.16","169","1","2025-04-14 14:24:18","bb671e3ae32f654b8954ea4c4635f915","","Mozilla/5.0 (Windows NT 10.0; Win64; x64) AppleWebKit/537.36 (KHTML, like Gecko) Chrome/120.0.0.0 Safari/537.36","WebKit","Chrome","120.0.0.0","Windows","10.0","https://hz8g1ckzuq.cognition.run/","en-US,en;q=0.9","utru0t3ulum1f9r","54","[""White""]","No","Male","2780591.8999999985","null","","<p></p>","null","rating","dct","attraction_1","2","televisions","null","null","null","null","null","null","2","","","","","","","","","",""
"","","","","","rating_trial","survey-html-form","36","1134553","0.0-3.0-1.16","169","1","2025-04-14 14:24:18","bb671e3ae32f654b8954ea4c4635f915","","Mozilla/5.0 (Windows NT 10.0; Win64; x64) AppleWebKit/537.36 (KHTML, like Gecko) Chrome/120.0.0.0 Safari/537.36","WebKit","Chrome","120.0.0.0","Windows","10.0","https://hz8g1ckzuq.cognition.run/","en-US,en;q=0.9","utru0t3ulum1f9r","54","[""White""]","No","Male","2780591.8999999985","34425","","","{""price_1"":""450"",""price_2"":""550"",""price_3"":""550""}","rating","dct","attraction_1","2","televisions","null","null","null","null","null","null","2","50","60","45","60","50","60","Screen size","Average lifespan","",""
"","","","","","rating_trial_setup","html-keyboard-response","37","1134864","0.0-3.0-0.17","169","1","2025-04-14 14:24:18","bb671e3ae32f654b8954ea4c4635f915","","Mozilla/5.0 (Windows NT 10.0; Win64; x64) AppleWebKit/537.36 (KHTML, like Gecko) Chrome/120.0.0.0 Safari/537.36","WebKit","Chrome","120.0.0.0","Windows","10.0","https://hz8g1ckzuq.cognition.run/","en-US,en;q=0.9","utru0t3ulum1f9r","54","[""White""]","No","Male","2780591.8999999985","null","","<p></p>","null","rating","cdt","attraction_2","1","washing machines","null","null","null","null","null","null","2","","","","","","","","","",""
"","","","","","rating_trial","survey-html-form","38","1172857","0.0-3.0-1.17","169","1","2025-04-14 14:24:18","bb671e3ae32f654b8954ea4c4635f915","","Mozilla/5.0 (Windows NT 10.0; Win64; x64) AppleWebKit/537.36 (KHTML, like Gecko) Chrome/120.0.0.0 Safari/537.36","WebKit","Chrome","120.0.0.0","Windows","10.0","https://hz8g1ckzuq.cognition.run/","en-US,en;q=0.9","utru0t3ulum1f9r","54","[""White""]","No","Male","2780591.8999999985","37980","","","{""price_1"":""890"",""price_2"":""850"",""price_3"":""890""}","rating","cdt","attraction_2","1","washing machines","null","null","null","null","null","null","2","60","50","60","50","60","40","Average lifespan","Energy savings","",""
"","","","","","rating_trial_setup","html-keyboard-response","39","1173165","0.0-3.0-0.18","169","1","2025-04-14 14:24:18","bb671e3ae32f654b8954ea4c4635f915","","Mozilla/5.0 (Windows NT 10.0; Win64; x64) AppleWebKit/537.36 (KHTML, like Gecko) Chrome/120.0.0.0 Safari/537.36","WebKit","Chrome","120.0.0.0","Windows","10.0","https://hz8g1ckzuq.cognition.run/","en-US,en;q=0.9","utru0t3ulum1f9r","54","[""White""]","No","Male","2780591.8999999985","null","","<p></p>","null","rating","cdt","attraction_1","1","televisions","null","null","null","null","null","null","2","","","","","","","","","",""
"","","","","","rating_trial","survey-html-form","40","1211969","0.0-3.0-1.18","169","1","2025-04-14 14:24:18","bb671e3ae32f654b8954ea4c4635f915","","Mozilla/5.0 (Windows NT 10.0; Win64; x64) AppleWebKit/537.36 (KHTML, like Gecko) Chrome/120.0.0.0 Safari/537.36","WebKit","Chrome","120.0.0.0","Windows","10.0","https://hz8g1ckzuq.cognition.run/","en-US,en;q=0.9","utru0t3ulum1f9r","54","[""White""]","No","Male","2780591.8999999985","38791","","","{""price_1"":""890"",""price_2"":""870"",""price_3"":""890""}","rating","cdt","attraction_1","1","televisions","null","null","null","null","null","null","2","60","50","60","50","60","45","Screen size","Average lifespan","",""
"","","","","","rating_trial_setup","html-keyboard-response","41","1212276","0.0-3.0-0.19","169","1","2025-04-14 14:24:18","bb671e3ae32f654b8954ea4c4635f915","","Mozilla/5.0 (Windows NT 10.0; Win64; x64) AppleWebKit/537.36 (KHTML, like Gecko) Chrome/120.0.0.0 Safari/537.36","WebKit","Chrome","120.0.0.0","Windows","10.0","https://hz8g1ckzuq.cognition.run/","en-US,en;q=0.9","utru0t3ulum1f9r","54","[""White""]","No","Male","2780591.8999999985","null","","<p></p>","null","rating","dtc","attraction_2","1","microwave ovens","null","null","null","null","null","null","1","","","","","","","","","",""
"","","","","","rating_trial","survey-html-form","42","1259488","0.0-3.0-1.19","169","1","2025-04-14 14:24:18","bb671e3ae32f654b8954ea4c4635f915","","Mozilla/5.0 (Windows NT 10.0; Win64; x64) AppleWebKit/537.36 (KHTML, like Gecko) Chrome/120.0.0.0 Safari/537.36","WebKit","Chrome","120.0.0.0","Windows","10.0","https://hz8g1ckzuq.cognition.run/","en-US,en;q=0.9","utru0t3ulum1f9r","54","[""White""]","No","Male","2780591.8999999985","47199","","","{""price_1"":""80"",""price_2"":""96"",""price_3"":""95""}","rating","dtc","attraction_2","1","microwave ovens","null","null","null","null","null","null","1","60","50","60","50","60","40","Warranty","Cooking power","",""
"","","","","","rating_trial_setup","html-keyboard-response","43","1259804","0.0-3.0-0.20","169","1","2025-04-14 14:24:18","bb671e3ae32f654b8954ea4c4635f915","","Mozilla/5.0 (Windows NT 10.0; Win64; x64) AppleWebKit/537.36 (KHTML, like Gecko) Chrome/120.0.0.0 Safari/537.36","WebKit","Chrome","120.0.0.0","Windows","10.0","https://hz8g1ckzuq.cognition.run/","en-US,en;q=0.9","utru0t3ulum1f9r","54","[""White""]","No","Male","2780591.8999999985","null","","<p></p>","null","rating","tdc","attraction_1","2","laptops","null","null","null","null","null","null","2","","","","","","","","","",""
"","","","","","rating_trial","survey-html-form","44","1295745","0.0-3.0-1.20","169","1","2025-04-14 14:24:18","bb671e3ae32f654b8954ea4c4635f915","","Mozilla/5.0 (Windows NT 10.0; Win64; x64) AppleWebKit/537.36 (KHTML, like Gecko) Chrome/120.0.0.0 Safari/537.36","WebKit","Chrome","120.0.0.0","Windows","10.0","https://hz8g1ckzuq.cognition.run/","en-US,en;q=0.9","utru0t3ulum1f9r","54","[""White""]","No","Male","2780591.8999999985","35927","","","{""price_1"":""890"",""price_2"":""870"",""price_3"":""890""}","rating","tdc","attraction_1","2","laptops","null","null","null","null","null","null","2","50","60","45","60","50","60","Processing speed","Memory (RAM)","",""
"","","","","","rating_trial_setup","html-keyboard-response","45","1296058","0.0-3.0-0.21","169","1","2025-04-14 14:24:18","bb671e3ae32f654b8954ea4c4635f915","","Mozilla/5.0 (Windows NT 10.0; Win64; x64) AppleWebKit/537.36 (KHTML, like Gecko) Chrome/120.0.0.0 Safari/537.36","WebKit","Chrome","120.0.0.0","Windows","10.0","https://hz8g1ckzuq.cognition.run/","en-US,en;q=0.9","utru0t3ulum1f9r","54","[""White""]","No","Male","2780591.8999999985","null","","<p></p>","null","rating","cdt","repulsion_1","2","laptops","null","null","null","null","null","null","1","","","","","","","","","",""
"","","","","","rating_trial","survey-html-form","46","1339377","0.0-3.0-1.21","169","1","2025-04-14 14:24:18","bb671e3ae32f654b8954ea4c4635f915","","Mozilla/5.0 (Windows NT 10.0; Win64; x64) AppleWebKit/537.36 (KHTML, like Gecko) Chrome/120.0.0.0 Safari/537.36","WebKit","Chrome","120.0.0.0","Windows","10.0","https://hz8g1ckzuq.cognition.run/","en-US,en;q=0.9","utru0t3ulum1f9r","54","[""White""]","No","Male","2780591.8999999985","43306","","","{""price_1"":""950"",""price_2"":""700"",""price_3"":""720""}","rating","cdt","repulsion_1","2","laptops","null","null","null","null","null","null","1","30","40","25","100","90","100","Processing speed","Memory (RAM)","",""
"","","","","","rating_trial_setup","html-keyboard-response","47","1339692","0.0-3.0-0.22","169","1","2025-04-14 14:24:18","bb671e3ae32f654b8954ea4c4635f915","","Mozilla/5.0 (Windows NT 10.0; Win64; x64) AppleWebKit/537.36 (KHTML, like Gecko) Chrome/120.0.0.0 Safari/537.36","WebKit","Chrome","120.0.0.0","Windows","10.0","https://hz8g1ckzuq.cognition.run/","en-US,en;q=0.9","utru0t3ulum1f9r","54","[""White""]","No","Male","2780591.8999999985","null","","<p></p>","null","rating","dtc","attraction_1","2","washing machines","null","null","null","null","null","null","2","","","","","","","","","",""
"","","","","","rating_trial","survey-html-form","48","1387505","0.0-3.0-1.22","169","1","2025-04-14 14:24:18","bb671e3ae32f654b8954ea4c4635f915","","Mozilla/5.0 (Windows NT 10.0; Win64; x64) AppleWebKit/537.36 (KHTML, like Gecko) Chrome/120.0.0.0 Safari/537.36","WebKit","Chrome","120.0.0.0","Windows","10.0","https://hz8g1ckzuq.cognition.run/","en-US,en;q=0.9","utru0t3ulum1f9r","54","[""White""]","No","Male","2780591.8999999985","47807","","","{""price_1"":""1350"",""price_2"":""1400"",""price_3"":""1450""}","rating","dtc","attraction_1","2","washing machines","null","null","null","null","null","null","2","50","60","45","60","50","60","Average lifespan","Energy savings","",""
"","","","","","rating_trial_setup","html-keyboard-response","49","1387813","0.0-3.0-0.23","169","1","2025-04-14 14:24:18","bb671e3ae32f654b8954ea4c4635f915","","Mozilla/5.0 (Windows NT 10.0; Win64; x64) AppleWebKit/537.36 (KHTML, like Gecko) Chrome/120.0.0.0 Safari/537.36","WebKit","Chrome","120.0.0.0","Windows","10.0","https://hz8g1ckzuq.cognition.run/","en-US,en;q=0.9","utru0t3ulum1f9r","54","[""White""]","No","Male","2780591.8999999985","null","","<p></p>","null","rating","tcd","repulsion_2","1","laptops","null","null","null","null","null","null","2","","","","","","","","","",""
"","","","","","rating_trial","survey-html-form","50","1439457","0.0-3.0-1.23","169","1","2025-04-14 14:24:18","bb671e3ae32f654b8954ea4c4635f915","","Mozilla/5.0 (Windows NT 10.0; Win64; x64) AppleWebKit/537.36 (KHTML, like Gecko) Chrome/120.0.0.0 Safari/537.36","WebKit","Chrome","120.0.0.0","Windows","10.0","https://hz8g1ckzuq.cognition.run/","en-US,en;q=0.9","utru0t3ulum1f9r","54","[""White""]","No","Male","2780591.8999999985","51638","","","{""price_1"":""500"",""price_2"":""650"",""price_3"":""480""}","rating","tcd","repulsion_2","1","laptops","null","null","null","null","null","null","2","100","90","100","30","40","20","Processing speed","Memory (RAM)","",""
"","","","","","rating_trial_setup","html-keyboard-response","51","1439770","0.0-3.0-0.24","169","1","2025-04-14 14:24:18","bb671e3ae32f654b8954ea4c4635f915","","Mozilla/5.0 (Windows NT 10.0; Win64; x64) AppleWebKit/537.36 (KHTML, like Gecko) Chrome/120.0.0.0 Safari/537.36","WebKit","Chrome","120.0.0.0","Windows","10.0","https://hz8g1ckzuq.cognition.run/","en-US,en;q=0.9","utru0t3ulum1f9r","54","[""White""]","No","Male","2780591.8999999985","null","","<p></p>","null","rating","dct","attraction_2","2","televisions","null","null","null","null","null","null","1","","","","","","","","","",""
"","","","","","rating_trial","survey-html-form","52","1485521","0.0-3.0-1.24","169","1","2025-04-14 14:24:18","bb671e3ae32f654b8954ea4c4635f915","","Mozilla/5.0 (Windows NT 10.0; Win64; x64) AppleWebKit/537.36 (KHTML, like Gecko) Chrome/120.0.0.0 Safari/537.36","WebKit","Chrome","120.0.0.0","Windows","10.0","https://hz8g1ckzuq.cognition.run/","en-US,en;q=0.9","utru0t3ulum1f9r","54","[""White""]","No","Male","2780591.8999999985","45735","","","{""price_1"":""550"",""price_2"":""599"",""price_3"":""600""}","rating","dct","attraction_2","2","televisions","null","null","null","null","null","null","1","50","60","40","60","50","60","Screen size","Average lifespan","",""
"","","","","","rating_trial_setup","html-keyboard-response","53","1485827","0.0-3.0-0.25","169","1","2025-04-14 14:24:18","bb671e3ae32f654b8954ea4c4635f915","","Mozilla/5.0 (Windows NT 10.0; Win64; x64) AppleWebKit/537.36 (KHTML, like Gecko) Chrome/120.0.0.0 Safari/537.36","WebKit","Chrome","120.0.0.0","Windows","10.0","https://hz8g1ckzuq.cognition.run/","en-US,en;q=0.9","utru0t3ulum1f9r","54","[""White""]","No","Male","2780591.8999999985","null","","<p></p>","null","rating","dct","attraction_2","2","washing machines","null","null","null","null","null","null","2","","","","","","","","","",""
"","","","","","rating_trial","survey-html-form","54","1546553","0.0-3.0-1.25","169","1","2025-04-14 14:24:18","bb671e3ae32f654b8954ea4c4635f915","","Mozilla/5.0 (Windows NT 10.0; Win64; x64) AppleWebKit/537.36 (KHTML, like Gecko) Chrome/120.0.0.0 Safari/537.36","WebKit","Chrome","120.0.0.0","Windows","10.0","https://hz8g1ckzuq.cognition.run/","en-US,en;q=0.9","utru0t3ulum1f9r","54","[""White""]","No","Male","2780591.8999999985","60713","","","{""price_1"":""780"",""price_2"":""890"",""price_3"":""890""}","rating","dct","attraction_2","2","washing machines","null","null","null","null","null","null","2","50","60","40","60","50","60","Average lifespan","Energy savings","",""
"","","","","","rating_trial_setup","html-keyboard-response","55","1546870","0.0-3.0-0.26","169","1","2025-04-14 14:24:18","bb671e3ae32f654b8954ea4c4635f915","","Mozilla/5.0 (Windows NT 10.0; Win64; x64) AppleWebKit/537.36 (KHTML, like Gecko) Chrome/120.0.0.0 Safari/537.36","WebKit","Chrome","120.0.0.0","Windows","10.0","https://hz8g1ckzuq.cognition.run/","en-US,en;q=0.9","utru0t3ulum1f9r","54","[""White""]","No","Male","2780591.8999999985","null","","<p></p>","null","rating","dtc","repulsion_2","2","televisions","null","null","null","null","null","null","1","","","","","","","","","",""
"","","","","","rating_trial","survey-html-form","56","1671729","0.0-3.0-1.26","169","1","2025-04-14 14:24:18","bb671e3ae32f654b8954ea4c4635f915","","Mozilla/5.0 (Windows NT 10.0; Win64; x64) AppleWebKit/537.36 (KHTML, like Gecko) Chrome/120.0.0.0 Safari/537.36","WebKit","Chrome","120.0.0.0","Windows","10.0","https://hz8g1ckzuq.cognition.run/","en-US,en;q=0.9","utru0t3ulum1f9r","54","[""White""]","No","Male","2780591.8999999985","124844","","","{""price_1"":""400"",""price_2"":""410"",""price_3"":""500""}","rating","dtc","repulsion_2","2","televisions","null","null","null","null","null","null","1","30","40","20","100","90","100","Screen size","Average lifespan","",""
"","","","","","rating_trial_setup","html-keyboard-response","57","1672033","0.0-3.0-0.27","169","1","2025-04-14 14:24:18","bb671e3ae32f654b8954ea4c4635f915","","Mozilla/5.0 (Windows NT 10.0; Win64; x64) AppleWebKit/537.36 (KHTML, like Gecko) Chrome/120.0.0.0 Safari/537.36","WebKit","Chrome","120.0.0.0","Windows","10.0","https://hz8g1ckzuq.cognition.run/","en-US,en;q=0.9","utru0t3ulum1f9r","54","[""White""]","No","Male","2780591.8999999985","null","","<p></p>","null","rating","dct","attraction_1","2","microwave ovens","null","null","null","null","null","null","2","","","","","","","","","",""
"","","","","","rating_trial","survey-html-form","58","1743920","0.0-3.0-1.27","169","1","2025-04-14 14:24:18","bb671e3ae32f654b8954ea4c4635f915","","Mozilla/5.0 (Windows NT 10.0; Win64; x64) AppleWebKit/537.36 (KHTML, like Gecko) Chrome/120.0.0.0 Safari/537.36","WebKit","Chrome","120.0.0.0","Windows","10.0","https://hz8g1ckzuq.cognition.run/","en-US,en;q=0.9","utru0t3ulum1f9r","54","[""White""]","No","Male","2780591.8999999985","71876","","","{""price_1"":""85"",""price_2"":""95"",""price_3"":""95""}","rating","dct","attraction_1","2","microwave ovens","null","null","null","null","null","null","2","50","60","45","60","50","60","Warranty","Cooking power","",""
"","","","","","rating_trial_setup","html-keyboard-response","59","1744239","0.0-3.0-0.28","169","1","2025-04-14 14:24:18","bb671e3ae32f654b8954ea4c4635f915","","Mozilla/5.0 (Windows NT 10.0; Win64; x64) AppleWebKit/537.36 (KHTML, like Gecko) Chrome/120.0.0.0 Safari/537.36","WebKit","Chrome","120.0.0.0","Windows","10.0","https://hz8g1ckzuq.cognition.run/","en-US,en;q=0.9","utru0t3ulum1f9r","54","[""White""]","No","Male","2780591.8999999985","null","","<p></p>","null","rating","ctd","attraction_1","1","washing machines","null","null","null","null","null","null","2","","","","","","","","","",""
"","","","","","rating_trial","survey-html-form","60","1780856","0.0-3.0-1.28","169","1","2025-04-14 14:24:18","bb671e3ae32f654b8954ea4c4635f915","","Mozilla/5.0 (Windows NT 10.0; Win64; x64) AppleWebKit/537.36 (KHTML, like Gecko) Chrome/120.0.0.0 Safari/537.36","WebKit","Chrome","120.0.0.0","Windows","10.0","https://hz8g1ckzuq.cognition.run/","en-US,en;q=0.9","utru0t3ulum1f9r","54","[""White""]","No","Male","2780591.8999999985","36608","","","{""price_1"":""980"",""price_2"":""980"",""price_3"":""930""}","rating","ctd","attraction_1","1","washing machines","null","null","null","null","null","null","2","60","50","60","50","60","45","Average lifespan","Energy savings","",""
"","","","","","rating_trial_setup","html-keyboard-response","61","1781170","0.0-3.0-0.29","169","1","2025-04-14 14:24:18","bb671e3ae32f654b8954ea4c4635f915","","Mozilla/5.0 (Windows NT 10.0; Win64; x64) AppleWebKit/537.36 (KHTML, like Gecko) Chrome/120.0.0.0 Safari/537.36","WebKit","Chrome","120.0.0.0","Windows","10.0","https://hz8g1ckzuq.cognition.run/","en-US,en;q=0.9","utru0t3ulum1f9r","54","[""White""]","No","Male","2780591.8999999985","null","","<p></p>","null","rating","tdc","repulsion_1","2","microwave ovens","null","null","null","null","null","null","2","","","","","","","","","",""
"","","","","","rating_trial","survey-html-form","62","1808345","0.0-3.0-1.29","169","1","2025-04-14 14:24:18","bb671e3ae32f654b8954ea4c4635f915","","Mozilla/5.0 (Windows NT 10.0; Win64; x64) AppleWebKit/537.36 (KHTML, like Gecko) Chrome/120.0.0.0 Safari/537.36","WebKit","Chrome","120.0.0.0","Windows","10.0","https://hz8g1ckzuq.cognition.run/","en-US,en;q=0.9","utru0t3ulum1f9r","54","[""White""]","No","Male","2780591.8999999985","27156","","","{""price_1"":""90"",""price_2"":""89"",""price_3"":""95""}","rating","tdc","repulsion_1","2","microwave ovens","null","null","null","null","null","null","2","30","40","25","100","90","100","Warranty","Cooking power","",""
"","","","","","rating_trial_setup","html-keyboard-response","63","1808655","0.0-3.0-0.30","169","1","2025-04-14 14:24:18","bb671e3ae32f654b8954ea4c4635f915","","Mozilla/5.0 (Windows NT 10.0; Win64; x64) AppleWebKit/537.36 (KHTML, like Gecko) Chrome/120.0.0.0 Safari/537.36","WebKit","Chrome","120.0.0.0","Windows","10.0","https://hz8g1ckzuq.cognition.run/","en-US,en;q=0.9","utru0t3ulum1f9r","54","[""White""]","No","Male","2780591.8999999985","null","","<p></p>","null","rating","tdc","repulsion_1","2","washing machines","null","null","null","null","null","null","2","","","","","","","","","",""
"","","","","","rating_trial","survey-html-form","64","1866769","0.0-3.0-1.30","169","1","2025-04-14 14:24:18","bb671e3ae32f654b8954ea4c4635f915","","Mozilla/5.0 (Windows NT 10.0; Win64; x64) AppleWebKit/537.36 (KHTML, like Gecko) Chrome/120.0.0.0 Safari/537.36","WebKit","Chrome","120.0.0.0","Windows","10.0","https://hz8g1ckzuq.cognition.run/","en-US,en;q=0.9","utru0t3ulum1f9r","54","[""White""]","No","Male","2780591.8999999985","58093","","","{""price_1"":""990"",""price_2"":""950"",""price_3"":""1100""}","rating","tdc","repulsion_1","2","washing machines","null","null","null","null","null","null","2","30","40","25","100","90","100","Average lifespan","Energy savings","",""
"","","","","","rating_trial_setup","html-keyboard-response","65","1867073","0.0-3.0-0.31","169","1","2025-04-14 14:24:18","bb671e3ae32f654b8954ea4c4635f915","","Mozilla/5.0 (Windows NT 10.0; Win64; x64) AppleWebKit/537.36 (KHTML, like Gecko) Chrome/120.0.0.0 Safari/537.36","WebKit","Chrome","120.0.0.0","Windows","10.0","https://hz8g1ckzuq.cognition.run/","en-US,en;q=0.9","utru0t3ulum1f9r","54","[""White""]","No","Male","2780591.8999999985","null","","<p></p>","null","rating","dtc","repulsion_1","1","washing machines","null","null","null","null","null","null","2","","","","","","","","","",""
"","","","","","rating_trial","survey-html-form","66","1908001","0.0-3.0-1.31","169","1","2025-04-14 14:24:18","bb671e3ae32f654b8954ea4c4635f915","","Mozilla/5.0 (Windows NT 10.0; Win64; x64) AppleWebKit/537.36 (KHTML, like Gecko) Chrome/120.0.0.0 Safari/537.36","WebKit","Chrome","120.0.0.0","Windows","10.0","https://hz8g1ckzuq.cognition.run/","en-US,en;q=0.9","utru0t3ulum1f9r","54","[""White""]","No","Male","2780591.8999999985","40921","","","{""price_1"":""950"",""price_2"":""990"",""price_3"":""1050""}","rating","dtc","repulsion_1","1","washing machines","null","null","null","null","null","null","2","100","90","100","30","40","25","Average lifespan","Energy savings","",""
"","","","","","rating_trial_setup","html-keyboard-response","67","1908313","0.0-3.0-0.32","169","1","2025-04-14 14:24:18","bb671e3ae32f654b8954ea4c4635f915","","Mozilla/5.0 (Windows NT 10.0; Win64; x64) AppleWebKit/537.36 (KHTML, like Gecko) Chrome/120.0.0.0 Safari/537.36","WebKit","Chrome","120.0.0.0","Windows","10.0","https://hz8g1ckzuq.cognition.run/","en-US,en;q=0.9","utru0t3ulum1f9r","54","[""White""]","No","Male","2780591.8999999985","null","","<p></p>","null","rating","wwb","catch","null","microwave ovens","75","90","45","40","10","20","1","","","","","","","","","",""
"","","","","","rating_trial","survey-html-form","68","1977145","0.0-3.0-1.32","169","1","2025-04-14 14:24:18","bb671e3ae32f654b8954ea4c4635f915","","Mozilla/5.0 (Windows NT 10.0; Win64; x64) AppleWebKit/537.36 (KHTML, like Gecko) Chrome/120.0.0.0 Safari/537.36","WebKit","Chrome","120.0.0.0","Windows","10.0","https://hz8g1ckzuq.cognition.run/","en-US,en;q=0.9","utru0t3ulum1f9r","54","[""White""]","No","Male","2780591.8999999985","68813","","","{""price_1"":""100"",""price_2"":""70"",""price_3"":""150""}","rating","wwb","catch","null","microwave ovens","75","90","45","40","10","20","1","null","null","null","null","null","null","Warranty","Cooking power","",""
"","","","","","rating_trial_setup","html-keyboard-response","69","1977454","0.0-3.0-0.33","169","1","2025-04-14 14:24:18","bb671e3ae32f654b8954ea4c4635f915","","Mozilla/5.0 (Windows NT 10.0; Win64; x64) AppleWebKit/537.36 (KHTML, like Gecko) Chrome/120.0.0.0 Safari/537.36","WebKit","Chrome","120.0.0.0","Windows","10.0","https://hz8g1ckzuq.cognition.run/","en-US,en;q=0.9","utru0t3ulum1f9r","54","[""White""]","No","Male","2780591.8999999985","null","","<p></p>","null","rating","wwb","catch","null","televisions","50","85","25","50","35","10","1","","","","","","","","","",""
"","","","","","rating_trial","survey-html-form","70","2060577","0.0-3.0-1.33","169","1","2025-04-14 14:24:18","bb671e3ae32f654b8954ea4c4635f915","","Mozilla/5.0 (Windows NT 10.0; Win64; x64) AppleWebKit/537.36 (KHTML, like Gecko) Chrome/120.0.0.0 Safari/537.36","WebKit","Chrome","120.0.0.0","Windows","10.0","https://hz8g1ckzuq.cognition.run/","en-US,en;q=0.9","utru0t3ulum1f9r","54","[""White""]","No","Male","2780591.8999999985","83103","","","{""price_1"":""390"",""price_2"":""350"",""price_3"":""550""}","rating","wwb","catch","null","televisions","50","85","25","50","35","10","1","null","null","null","null","null","null","Screen size","Average lifespan","",""
"","","","","","rating_trial_setup","html-keyboard-response","71","2060890","0.0-3.0-0.34","169","1","2025-04-14 14:24:18","bb671e3ae32f654b8954ea4c4635f915","","Mozilla/5.0 (Windows NT 10.0; Win64; x64) AppleWebKit/537.36 (KHTML, like Gecko) Chrome/120.0.0.0 Safari/537.36","WebKit","Chrome","120.0.0.0","Windows","10.0","https://hz8g1ckzuq.cognition.run/","en-US,en;q=0.9","utru0t3ulum1f9r","54","[""White""]","No","Male","2780591.8999999985","null","","<p></p>","null","rating","wbw","catch","null","washing machines","85","50","50","50","25","25","2","","","","","","","","","",""
"","","","","","rating_trial","survey-html-form","72","2121137","0.0-3.0-1.34","169","1","2025-04-14 14:24:18","bb671e3ae32f654b8954ea4c4635f915","","Mozilla/5.0 (Windows NT 10.0; Win64; x64) AppleWebKit/537.36 (KHTML, like Gecko) Chrome/120.0.0.0 Safari/537.36","WebKit","Chrome","120.0.0.0","Windows","10.0","https://hz8g1ckzuq.cognition.run/","en-US,en;q=0.9","utru0t3ulum1f9r","54","[""White""]","No","Male","2780591.8999999985","60239","","","{""price_1"":""980"",""price_2"":""1250"",""price_3"":""650""}","rating","wbw","catch","null","washing machines","85","50","50","50","25","25","2","null","null","null","null","null","null","Average lifespan","Energy savings","",""
"","","","","","rating_trial_setup","html-keyboard-response","73","2121445","0.0-3.0-0.35","169","1","2025-04-14 14:24:18","bb671e3ae32f654b8954ea4c4635f915","","Mozilla/5.0 (Windows NT 10.0; Win64; x64) AppleWebKit/537.36 (KHTML, like Gecko) Chrome/120.0.0.0 Safari/537.36","WebKit","Chrome","120.0.0.0","Windows","10.0","https://hz8g1ckzuq.cognition.run/","en-US,en;q=0.9","utru0t3ulum1f9r","54","[""White""]","No","Male","2780591.8999999985","null","","<p></p>","null","rating","tcd","repulsion_1","2","televisions","null","null","null","null","null","null","1","","","","","","","","","",""
"","","","","","rating_trial","survey-html-form","74","2171081","0.0-3.0-1.35","169","1","2025-04-14 14:24:18","bb671e3ae32f654b8954ea4c4635f915","","Mozilla/5.0 (Windows NT 10.0; Win64; x64) AppleWebKit/537.36 (KHTML, like Gecko) Chrome/120.0.0.0 Safari/537.36","WebKit","Chrome","120.0.0.0","Windows","10.0","https://hz8g1ckzuq.cognition.run/","en-US,en;q=0.9","utru0t3ulum1f9r","54","[""White""]","No","Male","2780591.8999999985","49619","","","{""price_1"":""390"",""price_2"":""400"",""price_3"":""370""}","rating","tcd","repulsion_1","2","televisions","null","null","null","null","null","null","1","30","40","25","100","90","100","Screen size","Average lifespan","",""
"","","","","","rating_trial_setup","html-keyboard-response","75","2171386","0.0-3.0-0.36","169","1","2025-04-14 14:24:18","bb671e3ae32f654b8954ea4c4635f915","","Mozilla/5.0 (Windows NT 10.0; Win64; x64) AppleWebKit/537.36 (KHTML, like Gecko) Chrome/120.0.0.0 Safari/537.36","WebKit","Chrome","120.0.0.0","Windows","10.0","https://hz8g1ckzuq.cognition.run/","en-US,en;q=0.9","utru0t3ulum1f9r","54","[""White""]","No","Male","2780591.8999999985","null","","<p></p>","null","rating","cdt","repulsion_2","1","microwave ovens","null","null","null","null","null","null","1","","","","","","","","","",""
"","","","","","rating_trial","survey-html-form","76","2229786","0.0-3.0-1.36","169","1","2025-04-14 14:24:18","bb671e3ae32f654b8954ea4c4635f915","","Mozilla/5.0 (Windows NT 10.0; Win64; x64) AppleWebKit/537.36 (KHTML, like Gecko) Chrome/120.0.0.0 Safari/537.36","WebKit","Chrome","120.0.0.0","Windows","10.0","https://hz8g1ckzuq.cognition.run/","en-US,en;q=0.9","utru0t3ulum1f9r","54","[""White""]","No","Male","2780591.8999999985","58378","","","{""price_1"":""120"",""price_2"":""80"",""price_3"":""75""}","rating","cdt","repulsion_2","1","microwave ovens","null","null","null","null","null","null","1","100","90","100","30","40","20","Warranty","Cooking power","",""
"","","","","","rating_trial_setup","html-keyboard-response","77","2230094","0.0-3.0-0.37","169","1","2025-04-14 14:24:18","bb671e3ae32f654b8954ea4c4635f915","","Mozilla/5.0 (Windows NT 10.0; Win64; x64) AppleWebKit/537.36 (KHTML, like Gecko) Chrome/120.0.0.0 Safari/537.36","WebKit","Chrome","120.0.0.0","Windows","10.0","https://hz8g1ckzuq.cognition.run/","en-US,en;q=0.9","utru0t3ulum1f9r","54","[""White""]","No","Male","2780591.8999999985","null","","<p></p>","null","rating","tcd","attraction_1","1","microwave ovens","null","null","null","null","null","null","2","","","","","","","","","",""
"","","","","","rating_trial","survey-html-form","78","2266810","0.0-3.0-1.37","169","1","2025-04-14 14:24:18","bb671e3ae32f654b8954ea4c4635f915","","Mozilla/5.0 (Windows NT 10.0; Win64; x64) AppleWebKit/537.36 (KHTML, like Gecko) Chrome/120.0.0.0 Safari/537.36","WebKit","Chrome","120.0.0.0","Windows","10.0","https://hz8g1ckzuq.cognition.run/","en-US,en;q=0.9","utru0t3ulum1f9r","54","[""White""]","No","Male","2780591.8999999985","36698","","","{""price_1"":""120"",""price_2"":""122"",""price_3"":""115""}","rating","tcd","attraction_1","1","microwave ovens","null","null","null","null","null","null","2","60","50","60","50","60","45","Warranty","Cooking power","",""
"","","","","","rating_trial_setup","html-keyboard-response","79","2267119","0.0-3.0-0.38","169","1","2025-04-14 14:24:18","bb671e3ae32f654b8954ea4c4635f915","","Mozilla/5.0 (Windows NT 10.0; Win64; x64) AppleWebKit/537.36 (KHTML, like Gecko) Chrome/120.0.0.0 Safari/537.36","WebKit","Chrome","120.0.0.0","Windows","10.0","https://hz8g1ckzuq.cognition.run/","en-US,en;q=0.9","utru0t3ulum1f9r","54","[""White""]","No","Male","2780591.8999999985","null","","<p></p>","null","rating","wbw","catch","null","televisions","80","50","50","10","5","35","2","","","","","","","","","",""
"","","","","","rating_trial","survey-html-form","80","2323217","0.0-3.0-1.38","169","1","2025-04-14 14:24:18","bb671e3ae32f654b8954ea4c4635f915","","Mozilla/5.0 (Windows NT 10.0; Win64; x64) AppleWebKit/537.36 (KHTML, like Gecko) Chrome/120.0.0.0 Safari/537.36","WebKit","Chrome","120.0.0.0","Windows","10.0","https://hz8g1ckzuq.cognition.run/","en-US,en;q=0.9","utru0t3ulum1f9r","54","[""White""]","No","Male","2780591.8999999985","56075","","","{""price_1"":""70"",""price_2"":""150"",""price_3"":""60""}","rating","wbw","catch","null","televisions","80","50","50","10","5","35","2","null","null","null","null","null","null","Screen size","Average lifespan","",""
"","","","","","rating_trial_setup","html-keyboard-response","81","2323523","0.0-3.0-0.39","169","1","2025-04-14 14:24:18","bb671e3ae32f654b8954ea4c4635f915","","Mozilla/5.0 (Windows NT 10.0; Win64; x64) AppleWebKit/537.36 (KHTML, like Gecko) Chrome/120.0.0.0 Safari/537.36","WebKit","Chrome","120.0.0.0","Windows","10.0","https://hz8g1ckzuq.cognition.run/","en-US,en;q=0.9","utru0t3ulum1f9r","54","[""White""]","No","Male","2780591.8999999985","null","","<p></p>","null","rating","tcd","repulsion_2","2","laptops","null","null","null","null","null","null","1","","","","","","","","","",""
"","","","","","rating_trial","survey-html-form","82","2360897","0.0-3.0-1.39","169","1","2025-04-14 14:24:18","bb671e3ae32f654b8954ea4c4635f915","","Mozilla/5.0 (Windows NT 10.0; Win64; x64) AppleWebKit/537.36 (KHTML, like Gecko) Chrome/120.0.0.0 Safari/537.36","WebKit","Chrome","120.0.0.0","Windows","10.0","https://hz8g1ckzuq.cognition.run/","en-US,en;q=0.9","utru0t3ulum1f9r","54","[""White""]","No","Male","2780591.8999999985","37355","","","{""price_1"":""500"",""price_2"":""550"",""price_3"":""450""}","rating","tcd","repulsion_2","2","laptops","null","null","null","null","null","null","1","30","40","20","100","90","100","Processing speed","Memory (RAM)","",""
"","","","","","","instructions","83","2430897","0.0-4.0","169","1","2025-04-14 14:24:18","bb671e3ae32f654b8954ea4c4635f915","","Mozilla/5.0 (Windows NT 10.0; Win64; x64) AppleWebKit/537.36 (KHTML, like Gecko) Chrome/120.0.0.0 Safari/537.36","WebKit","Chrome","120.0.0.0","Windows","10.0","https://hz8g1ckzuq.cognition.run/","en-US,en;q=0.9","utru0t3ulum1f9r","54","[""White""]","No","Male","2780591.8999999985","69995","[{""page_index"":0,""viewing_time"":3763},{""page_index"":1,""viewing_time"":3168},{""page_index"":2,""viewing_time"":4888},{""page_index"":3,""viewing_time"":9480},{""page_index"":4,""viewing_time"":9777},{""page_index"":5,""viewing_time"":5304},{""page_index"":6,""viewing_time"":23400},{""page_index"":7,""viewing_time"":10216}]","","","","","","","","","","","","","","","","","","","","","","","",""
"","","","","","choice_trial_setup","html-keyboard-response","84","2431215","0.0-5.0-0.0","169","1","2025-04-14 14:24:18","bb671e3ae32f654b8954ea4c4635f915","","Mozilla/5.0 (Windows NT 10.0; Win64; x64) AppleWebKit/537.36 (KHTML, like Gecko) Chrome/120.0.0.0 Safari/537.36","WebKit","Chrome","120.0.0.0","Windows","10.0","https://hz8g1ckzuq.cognition.run/","en-US,en;q=0.9","utru0t3ulum1f9r","54","[""White""]","No","Male","2780591.8999999985","null","","<p></p>","null","choice","dtc","repulsion_2","2","microwave ovens","null","null","null","null","null","null","2","","","","","","","","","",""
"","","","","","choice_trial","survey-html-form","85","2438545","0.0-5.0-1.0","169","1","2025-04-14 14:24:18","bb671e3ae32f654b8954ea4c4635f915","","Mozilla/5.0 (Windows NT 10.0; Win64; x64) AppleWebKit/537.36 (KHTML, like Gecko) Chrome/120.0.0.0 Safari/537.36","WebKit","Chrome","120.0.0.0","Windows","10.0","https://hz8g1ckzuq.cognition.run/","en-US,en;q=0.9","utru0t3ulum1f9r","54","[""White""]","No","Male","2780591.8999999985","7309","","","{""product_choice"":""C""}","choice","dtc","repulsion_2","2","microwave ovens","null","null","null","null","null","null","2","30","40","20","100","90","100","Warranty","Cooking power","",""
"","","","","","choice_trial_setup","html-keyboard-response","86","2438856","0.0-5.0-0.1","169","1","2025-04-14 14:24:18","bb671e3ae32f654b8954ea4c4635f915","","Mozilla/5.0 (Windows NT 10.0; Win64; x64) AppleWebKit/537.36 (KHTML, like Gecko) Chrome/120.0.0.0 Safari/537.36","WebKit","Chrome","120.0.0.0","Windows","10.0","https://hz8g1ckzuq.cognition.run/","en-US,en;q=0.9","utru0t3ulum1f9r","54","[""White""]","No","Male","2780591.8999999985","null","","<p></p>","null","choice","ctd","repulsion_2","1","laptops","null","null","null","null","null","null","2","","","","","","","","","",""
"","","","","","choice_trial","survey-html-form","87","2443441","0.0-5.0-1.1","169","1","2025-04-14 14:24:18","bb671e3ae32f654b8954ea4c4635f915","","Mozilla/5.0 (Windows NT 10.0; Win64; x64) AppleWebKit/537.36 (KHTML, like Gecko) Chrome/120.0.0.0 Safari/537.36","WebKit","Chrome","120.0.0.0","Windows","10.0","https://hz8g1ckzuq.cognition.run/","en-US,en;q=0.9","utru0t3ulum1f9r","54","[""White""]","No","Male","2780591.8999999985","4567","","","{""product_choice"":""A""}","choice","ctd","repulsion_2","1","laptops","null","null","null","null","null","null","2","100","90","100","30","40","20","Processing speed","Memory (RAM)","",""
"","","","","","choice_trial_setup","html-keyboard-response","88","2443755","0.0-5.0-0.2","169","1","2025-04-14 14:24:18","bb671e3ae32f654b8954ea4c4635f915","","Mozilla/5.0 (Windows NT 10.0; Win64; x64) AppleWebKit/537.36 (KHTML, like Gecko) Chrome/120.0.0.0 Safari/537.36","WebKit","Chrome","120.0.0.0","Windows","10.0","https://hz8g1ckzuq.cognition.run/","en-US,en;q=0.9","utru0t3ulum1f9r","54","[""White""]","No","Male","2780591.8999999985","null","","<p></p>","null","choice","dct","attraction_1","1","washing machines","null","null","null","null","null","null","2","","","","","","","","","",""
"","","","","","choice_trial","survey-html-form","89","2452193","0.0-5.0-1.2","169","1","2025-04-14 14:24:18","bb671e3ae32f654b8954ea4c4635f915","","Mozilla/5.0 (Windows NT 10.0; Win64; x64) AppleWebKit/537.36 (KHTML, like Gecko) Chrome/120.0.0.0 Safari/537.36","WebKit","Chrome","120.0.0.0","Windows","10.0","https://hz8g1ckzuq.cognition.run/","en-US,en;q=0.9","utru0t3ulum1f9r","54","[""White""]","No","Male","2780591.8999999985","8425","","","{""product_choice"":""B""}","choice","dct","attraction_1","1","washing machines","null","null","null","null","null","null","2","60","50","60","50","60","45","Average lifespan","Energy savings","",""
"","","","","","choice_trial_setup","html-keyboard-response","90","2452501","0.0-5.0-0.3","169","1","2025-04-14 14:24:18","bb671e3ae32f654b8954ea4c4635f915","","Mozilla/5.0 (Windows NT 10.0; Win64; x64) AppleWebKit/537.36 (KHTML, like Gecko) Chrome/120.0.0.0 Safari/537.36","WebKit","Chrome","120.0.0.0","Windows","10.0","https://hz8g1ckzuq.cognition.run/","en-US,en;q=0.9","utru0t3ulum1f9r","54","[""White""]","No","Male","2780591.8999999985","null","","<p></p>","null","choice","dtc","repulsion_2","1","microwave ovens","null","null","null","null","null","null","1","","","","","","","","","",""
"","","","","","choice_trial","survey-html-form","91","2457809","0.0-5.0-1.3","169","1","2025-04-14 14:24:18","bb671e3ae32f654b8954ea4c4635f915","","Mozilla/5.0 (Windows NT 10.0; Win64; x64) AppleWebKit/537.36 (KHTML, like Gecko) Chrome/120.0.0.0 Safari/537.36","WebKit","Chrome","120.0.0.0","Windows","10.0","https://hz8g1ckzuq.cognition.run/","en-US,en;q=0.9","utru0t3ulum1f9r","54","[""White""]","No","Male","2780591.8999999985","5288","","","{""product_choice"":""C""}","choice","dtc","repulsion_2","1","microwave ovens","null","null","null","null","null","null","1","100","90","100","30","40","20","Warranty","Cooking power","",""
"","","","","","choice_trial_setup","html-keyboard-response","92","2458124","0.0-5.0-0.4","169","1","2025-04-14 14:24:18","bb671e3ae32f654b8954ea4c4635f915","","Mozilla/5.0 (Windows NT 10.0; Win64; x64) AppleWebKit/537.36 (KHTML, like Gecko) Chrome/120.0.0.0 Safari/537.36","WebKit","Chrome","120.0.0.0","Windows","10.0","https://hz8g1ckzuq.cognition.run/","en-US,en;q=0.9","utru0t3ulum1f9r","54","[""White""]","No","Male","2780591.8999999985","null","","<p></p>","null","choice","ctd","repulsion_1","1","televisions","null","null","null","null","null","null","2","","","","","","","","","",""
"","","","","","choice_trial","survey-html-form","93","2462769","0.0-5.0-1.4","169","1","2025-04-14 14:24:18","bb671e3ae32f654b8954ea4c4635f915","","Mozilla/5.0 (Windows NT 10.0; Win64; x64) AppleWebKit/537.36 (KHTML, like Gecko) Chrome/120.0.0.0 Safari/537.36","WebKit","Chrome","120.0.0.0","Windows","10.0","https://hz8g1ckzuq.cognition.run/","en-US,en;q=0.9","utru0t3ulum1f9r","54","[""White""]","No","Male","2780591.8999999985","4625","","","{""product_choice"":""A""}","choice","ctd","repulsion_1","1","televisions","null","null","null","null","null","null","2","100","90","100","30","40","25","Screen size","Average lifespan","",""
"","","","","","choice_trial_setup","html-keyboard-response","94","2463078","0.0-5.0-0.5","169","1","2025-04-14 14:24:18","bb671e3ae32f654b8954ea4c4635f915","","Mozilla/5.0 (Windows NT 10.0; Win64; x64) AppleWebKit/537.36 (KHTML, like Gecko) Chrome/120.0.0.0 Safari/537.36","WebKit","Chrome","120.0.0.0","Windows","10.0","https://hz8g1ckzuq.cognition.run/","en-US,en;q=0.9","utru0t3ulum1f9r","54","[""White""]","No","Male","2780591.8999999985","null","","<p></p>","null","choice","wwb","catch","null","televisions","90","95","5","30","50","45","2","","","","","","","","","",""
"","","","","","choice_trial","survey-html-form","95","2467794","0.0-5.0-1.5","169","1","2025-04-14 14:24:18","bb671e3ae32f654b8954ea4c4635f915","","Mozilla/5.0 (Windows NT 10.0; Win64; x64) AppleWebKit/537.36 (KHTML, like Gecko) Chrome/120.0.0.0 Safari/537.36","WebKit","Chrome","120.0.0.0","Windows","10.0","https://hz8g1ckzuq.cognition.run/","en-US,en;q=0.9","utru0t3ulum1f9r","54","[""White""]","No","Male","2780591.8999999985","4695","","","{""product_choice"":""C""}","choice","wwb","catch","null","televisions","90","95","5","30","50","45","2","null","null","null","null","null","null","Screen size","Average lifespan","",""
"","","","","","choice_trial_setup","html-keyboard-response","96","2468102","0.0-5.0-0.6","169","1","2025-04-14 14:24:18","bb671e3ae32f654b8954ea4c4635f915","","Mozilla/5.0 (Windows NT 10.0; Win64; x64) AppleWebKit/537.36 (KHTML, like Gecko) Chrome/120.0.0.0 Safari/537.36","WebKit","Chrome","120.0.0.0","Windows","10.0","https://hz8g1ckzuq.cognition.run/","en-US,en;q=0.9","utru0t3ulum1f9r","54","[""White""]","No","Male","2780591.8999999985","null","","<p></p>","null","choice","ctd","attraction_1","2","televisions","null","null","null","null","null","null","2","","","","","","","","","",""
"","","","","","choice_trial","survey-html-form","97","2477114","0.0-5.0-1.6","169","1","2025-04-14 14:24:18","bb671e3ae32f654b8954ea4c4635f915","","Mozilla/5.0 (Windows NT 10.0; Win64; x64) AppleWebKit/537.36 (KHTML, like Gecko) Chrome/120.0.0.0 Safari/537.36","WebKit","Chrome","120.0.0.0","Windows","10.0","https://hz8g1ckzuq.cognition.run/","en-US,en;q=0.9","utru0t3ulum1f9r","54","[""White""]","No","Male","2780591.8999999985","8985","","","{""product_choice"":""B""}","choice","ctd","attraction_1","2","televisions","null","null","null","null","null","null","2","50","60","45","60","50","60","Screen size","Average lifespan","",""
"","","","","","choice_trial_setup","html-keyboard-response","98","2477421","0.0-5.0-0.7","169","1","2025-04-14 14:24:18","bb671e3ae32f654b8954ea4c4635f915","","Mozilla/5.0 (Windows NT 10.0; Win64; x64) AppleWebKit/537.36 (KHTML, like Gecko) Chrome/120.0.0.0 Safari/537.36","WebKit","Chrome","120.0.0.0","Windows","10.0","https://hz8g1ckzuq.cognition.run/","en-US,en;q=0.9","utru0t3ulum1f9r","54","[""White""]","No","Male","2780591.8999999985","null","","<p></p>","null","choice","tcd","repulsion_1","2","microwave ovens","null","null","null","null","null","null","2","","","","","","","","","",""
"","","","","","choice_trial","survey-html-form","99","2484169","0.0-5.0-1.7","169","1","2025-04-14 14:24:18","bb671e3ae32f654b8954ea4c4635f915","","Mozilla/5.0 (Windows NT 10.0; Win64; x64) AppleWebKit/537.36 (KHTML, like Gecko) Chrome/120.0.0.0 Safari/537.36","WebKit","Chrome","120.0.0.0","Windows","10.0","https://hz8g1ckzuq.cognition.run/","en-US,en;q=0.9","utru0t3ulum1f9r","54","[""White""]","No","Male","2780591.8999999985","6725","","","{""product_choice"":""B""}","choice","tcd","repulsion_1","2","microwave ovens","null","null","null","null","null","null","2","30","40","25","100","90","100","Warranty","Cooking power","",""
"","","","","","choice_trial_setup","html-keyboard-response","100","2484492","0.0-5.0-0.8","169","1","2025-04-14 14:24:18","bb671e3ae32f654b8954ea4c4635f915","","Mozilla/5.0 (Windows NT 10.0; Win64; x64) AppleWebKit/537.36 (KHTML, like Gecko) Chrome/120.0.0.0 Safari/537.36","WebKit","Chrome","120.0.0.0","Windows","10.0","https://hz8g1ckzuq.cognition.run/","en-US,en;q=0.9","utru0t3ulum1f9r","54","[""White""]","No","Male","2780591.8999999985","null","","<p></p>","null","choice","dtc","attraction_2","2","televisions","null","null","null","null","null","null","1","","","","","","","","","",""
"","","","","","choice_trial","survey-html-form","101","2493137","0.0-5.0-1.8","169","1","2025-04-14 14:24:18","bb671e3ae32f654b8954ea4c4635f915","","Mozilla/5.0 (Windows NT 10.0; Win64; x64) AppleWebKit/537.36 (KHTML, like Gecko) Chrome/120.0.0.0 Safari/537.36","WebKit","Chrome","120.0.0.0","Windows","10.0","https://hz8g1ckzuq.cognition.run/","en-US,en;q=0.9","utru0t3ulum1f9r","54","[""White""]","No","Male","2780591.8999999985","8620","","","{""product_choice"":""B""}","choice","dtc","attraction_2","2","televisions","null","null","null","null","null","null","1","50","60","40","60","50","60","Screen size","Average lifespan","",""
"","","","","","choice_trial_setup","html-keyboard-response","102","2493445","0.0-5.0-0.9","169","1","2025-04-14 14:24:18","bb671e3ae32f654b8954ea4c4635f915","","Mozilla/5.0 (Windows NT 10.0; Win64; x64) AppleWebKit/537.36 (KHTML, like Gecko) Chrome/120.0.0.0 Safari/537.36","WebKit","Chrome","120.0.0.0","Windows","10.0","https://hz8g1ckzuq.cognition.run/","en-US,en;q=0.9","utru0t3ulum1f9r","54","[""White""]","No","Male","2780591.8999999985","null","","<p></p>","null","choice","ctd","attraction_1","2","laptops","null","null","null","null","null","null","2","","","","","","","","","",""
"","","","","","choice_trial","survey-html-form","103","2505553","0.0-5.0-1.9","169","1","2025-04-14 14:24:18","bb671e3ae32f654b8954ea4c4635f915","","Mozilla/5.0 (Windows NT 10.0; Win64; x64) AppleWebKit/537.36 (KHTML, like Gecko) Chrome/120.0.0.0 Safari/537.36","WebKit","Chrome","120.0.0.0","Windows","10.0","https://hz8g1ckzuq.cognition.run/","en-US,en;q=0.9","utru0t3ulum1f9r","54","[""White""]","No","Male","2780591.8999999985","12082","","","{""product_choice"":""A""}","choice","ctd","attraction_1","2","laptops","null","null","null","null","null","null","2","50","60","45","60","50","60","Processing speed","Memory (RAM)","",""
"","","","","","choice_trial_setup","html-keyboard-response","104","2505861","0.0-5.0-0.10","169","1","2025-04-14 14:24:18","bb671e3ae32f654b8954ea4c4635f915","","Mozilla/5.0 (Windows NT 10.0; Win64; x64) AppleWebKit/537.36 (KHTML, like Gecko) Chrome/120.0.0.0 Safari/537.36","WebKit","Chrome","120.0.0.0","Windows","10.0","https://hz8g1ckzuq.cognition.run/","en-US,en;q=0.9","utru0t3ulum1f9r","54","[""White""]","No","Male","2780591.8999999985","null","","<p></p>","null","choice","wwb","catch","null","washing machines","85","70","40","5","20","30","1","","","","","","","","","",""
"","","","","","choice_trial","survey-html-form","105","2511561","0.0-5.0-1.10","169","1","2025-04-14 14:24:18","bb671e3ae32f654b8954ea4c4635f915","","Mozilla/5.0 (Windows NT 10.0; Win64; x64) AppleWebKit/537.36 (KHTML, like Gecko) Chrome/120.0.0.0 Safari/537.36","WebKit","Chrome","120.0.0.0","Windows","10.0","https://hz8g1ckzuq.cognition.run/","en-US,en;q=0.9","utru0t3ulum1f9r","54","[""White""]","No","Male","2780591.8999999985","5669","","","{""product_choice"":""C""}","choice","wwb","catch","null","washing machines","85","70","40","5","20","30","1","null","null","null","null","null","null","Average lifespan","Energy savings","",""
"","","","","","choice_trial_setup","html-keyboard-response","106","2511877","0.0-5.0-0.11","169","1","2025-04-14 14:24:18","bb671e3ae32f654b8954ea4c4635f915","","Mozilla/5.0 (Windows NT 10.0; Win64; x64) AppleWebKit/537.36 (KHTML, like Gecko) Chrome/120.0.0.0 Safari/537.36","WebKit","Chrome","120.0.0.0","Windows","10.0","https://hz8g1ckzuq.cognition.run/","en-US,en;q=0.9","utru0t3ulum1f9r","54","[""White""]","No","Male","2780591.8999999985","null","","<p></p>","null","choice","cdt","repulsion_1","1","microwave ovens","null","null","null","null","null","null","2","","","","","","","","","",""
"","","","","","choice_trial","survey-html-form","107","2517794","0.0-5.0-1.11","169","1","2025-04-14 14:24:18","bb671e3ae32f654b8954ea4c4635f915","","Mozilla/5.0 (Windows NT 10.0; Win64; x64) AppleWebKit/537.36 (KHTML, like Gecko) Chrome/120.0.0.0 Safari/537.36","WebKit","Chrome","120.0.0.0","Windows","10.0","https://hz8g1ckzuq.cognition.run/","en-US,en;q=0.9","utru0t3ulum1f9r","54","[""White""]","No","Male","2780591.8999999985","5898","","","{""product_choice"":""A""}","choice","cdt","repulsion_1","1","microwave ovens","null","null","null","null","null","null","2","100","90","100","30","40","25","Warranty","Cooking power","",""
"","","","","","choice_trial_setup","html-keyboard-response","108","2518099","0.0-5.0-0.12","169","1","2025-04-14 14:24:18","bb671e3ae32f654b8954ea4c4635f915","","Mozilla/5.0 (Windows NT 10.0; Win64; x64) AppleWebKit/537.36 (KHTML, like Gecko) Chrome/120.0.0.0 Safari/537.36","WebKit","Chrome","120.0.0.0","Windows","10.0","https://hz8g1ckzuq.cognition.run/","en-US,en;q=0.9","utru0t3ulum1f9r","54","[""White""]","No","Male","2780591.8999999985","null","","<p></p>","null","choice","dct","repulsion_1","2","washing machines","null","null","null","null","null","null","1","","","","","","","","","",""
"","","","","","choice_trial","survey-html-form","109","2521890","0.0-5.0-1.12","169","1","2025-04-14 14:24:18","bb671e3ae32f654b8954ea4c4635f915","","Mozilla/5.0 (Windows NT 10.0; Win64; x64) AppleWebKit/537.36 (KHTML, like Gecko) Chrome/120.0.0.0 Safari/537.36","WebKit","Chrome","120.0.0.0","Windows","10.0","https://hz8g1ckzuq.cognition.run/","en-US,en;q=0.9","utru0t3ulum1f9r","54","[""White""]","No","Male","2780591.8999999985","3776","","","{""product_choice"":""B""}","choice","dct","repulsion_1","2","washing machines","null","null","null","null","null","null","1","30","40","25","100","90","100","Average lifespan","Energy savings","",""
"","","","","","choice_trial_setup","html-keyboard-response","110","2522202","0.0-5.0-0.13","169","1","2025-04-14 14:24:18","bb671e3ae32f654b8954ea4c4635f915","","Mozilla/5.0 (Windows NT 10.0; Win64; x64) AppleWebKit/537.36 (KHTML, like Gecko) Chrome/120.0.0.0 Safari/537.36","WebKit","Chrome","120.0.0.0","Windows","10.0","https://hz8g1ckzuq.cognition.run/","en-US,en;q=0.9","utru0t3ulum1f9r","54","[""White""]","No","Male","2780591.8999999985","null","","<p></p>","null","choice","dct","attraction_1","2","microwave ovens","null","null","null","null","null","null","2","","","","","","","","","",""
"","","","","","choice_trial","survey-html-form","111","2531769","0.0-5.0-1.13","169","1","2025-04-14 14:24:18","bb671e3ae32f654b8954ea4c4635f915","","Mozilla/5.0 (Windows NT 10.0; Win64; x64) AppleWebKit/537.36 (KHTML, like Gecko) Chrome/120.0.0.0 Safari/537.36","WebKit","Chrome","120.0.0.0","Windows","10.0","https://hz8g1ckzuq.cognition.run/","en-US,en;q=0.9","utru0t3ulum1f9r","54","[""White""]","No","Male","2780591.8999999985","9562","","","{""product_choice"":""C""}","choice","dct","attraction_1","2","microwave ovens","null","null","null","null","null","null","2","50","60","45","60","50","60","Warranty","Cooking power","",""
"","","","","","choice_trial_setup","html-keyboard-response","112","2532075","0.0-5.0-0.14","169","1","2025-04-14 14:24:18","bb671e3ae32f654b8954ea4c4635f915","","Mozilla/5.0 (Windows NT 10.0; Win64; x64) AppleWebKit/537.36 (KHTML, like Gecko) Chrome/120.0.0.0 Safari/537.36","WebKit","Chrome","120.0.0.0","Windows","10.0","https://hz8g1ckzuq.cognition.run/","en-US,en;q=0.9","utru0t3ulum1f9r","54","[""White""]","No","Male","2780591.8999999985","null","","<p></p>","null","choice","bww","catch","null","televisions","55","75","15","50","10","5","2","","","","","","","","","",""
"","","","","","choice_trial","survey-html-form","113","2536705","0.0-5.0-1.14","169","1","2025-04-14 14:24:18","bb671e3ae32f654b8954ea4c4635f915","","Mozilla/5.0 (Windows NT 10.0; Win64; x64) AppleWebKit/537.36 (KHTML, like Gecko) Chrome/120.0.0.0 Safari/537.36","WebKit","Chrome","120.0.0.0","Windows","10.0","https://hz8g1ckzuq.cognition.run/","en-US,en;q=0.9","utru0t3ulum1f9r","54","[""White""]","No","Male","2780591.8999999985","4613","","","{""product_choice"":""A""}","choice","bww","catch","null","televisions","55","75","15","50","10","5","2","null","null","null","null","null","null","Screen size","Average lifespan","",""
"","","","","","choice_trial_setup","html-keyboard-response","114","2537018","0.0-5.0-0.15","169","1","2025-04-14 14:24:18","bb671e3ae32f654b8954ea4c4635f915","","Mozilla/5.0 (Windows NT 10.0; Win64; x64) AppleWebKit/537.36 (KHTML, like Gecko) Chrome/120.0.0.0 Safari/537.36","WebKit","Chrome","120.0.0.0","Windows","10.0","https://hz8g1ckzuq.cognition.run/","en-US,en;q=0.9","utru0t3ulum1f9r","54","[""White""]","No","Male","2780591.8999999985","null","","<p></p>","null","choice","ctd","repulsion_1","1","laptops","null","null","null","null","null","null","2","","","","","","","","","",""
"","","","","","choice_trial","survey-html-form","115","2540857","0.0-5.0-1.15","169","1","2025-04-14 14:24:18","bb671e3ae32f654b8954ea4c4635f915","","Mozilla/5.0 (Windows NT 10.0; Win64; x64) AppleWebKit/537.36 (KHTML, like Gecko) Chrome/120.0.0.0 Safari/537.36","WebKit","Chrome","120.0.0.0","Windows","10.0","https://hz8g1ckzuq.cognition.run/","en-US,en;q=0.9","utru0t3ulum1f9r","54","[""White""]","No","Male","2780591.8999999985","3815","","","{""product_choice"":""A""}","choice","ctd","repulsion_1","1","laptops","null","null","null","null","null","null","2","100","90","100","30","40","25","Processing speed","Memory (RAM)","",""
"","","","","","choice_trial_setup","html-keyboard-response","116","2541167","0.0-5.0-0.16","169","1","2025-04-14 14:24:18","bb671e3ae32f654b8954ea4c4635f915","","Mozilla/5.0 (Windows NT 10.0; Win64; x64) AppleWebKit/537.36 (KHTML, like Gecko) Chrome/120.0.0.0 Safari/537.36","WebKit","Chrome","120.0.0.0","Windows","10.0","https://hz8g1ckzuq.cognition.run/","en-US,en;q=0.9","utru0t3ulum1f9r","54","[""White""]","No","Male","2780591.8999999985","null","","<p></p>","null","choice","tdc","repulsion_2","2","televisions","null","null","null","null","null","null","2","","","","","","","","","",""
"","","","","","choice_trial","survey-html-form","117","2546530","0.0-5.0-1.16","169","1","2025-04-14 14:24:18","bb671e3ae32f654b8954ea4c4635f915","","Mozilla/5.0 (Windows NT 10.0; Win64; x64) AppleWebKit/537.36 (KHTML, like Gecko) Chrome/120.0.0.0 Safari/537.36","WebKit","Chrome","120.0.0.0","Windows","10.0","https://hz8g1ckzuq.cognition.run/","en-US,en;q=0.9","utru0t3ulum1f9r","54","[""White""]","No","Male","2780591.8999999985","5338","","","{""product_choice"":""C""}","choice","tdc","repulsion_2","2","televisions","null","null","null","null","null","null","2","30","40","20","100","90","100","Screen size","Average lifespan","",""
"","","","","","choice_trial_setup","html-keyboard-response","118","2546841","0.0-5.0-0.17","169","1","2025-04-14 14:24:18","bb671e3ae32f654b8954ea4c4635f915","","Mozilla/5.0 (Windows NT 10.0; Win64; x64) AppleWebKit/537.36 (KHTML, like Gecko) Chrome/120.0.0.0 Safari/537.36","WebKit","Chrome","120.0.0.0","Windows","10.0","https://hz8g1ckzuq.cognition.run/","en-US,en;q=0.9","utru0t3ulum1f9r","54","[""White""]","No","Male","2780591.8999999985","null","","<p></p>","null","choice","ctd","repulsion_2","1","televisions","null","null","null","null","null","null","2","","","","","","","","","",""
"","","","","","choice_trial","survey-html-form","119","2551633","0.0-5.0-1.17","169","1","2025-04-14 14:24:18","bb671e3ae32f654b8954ea4c4635f915","","Mozilla/5.0 (Windows NT 10.0; Win64; x64) AppleWebKit/537.36 (KHTML, like Gecko) Chrome/120.0.0.0 Safari/537.36","WebKit","Chrome","120.0.0.0","Windows","10.0","https://hz8g1ckzuq.cognition.run/","en-US,en;q=0.9","utru0t3ulum1f9r","54","[""White""]","No","Male","2780591.8999999985","4762","","","{""product_choice"":""A""}","choice","ctd","repulsion_2","1","televisions","null","null","null","null","null","null","2","100","90","100","30","40","20","Screen size","Average lifespan","",""
"","","","","","choice_trial_setup","html-keyboard-response","120","2551941","0.0-5.0-0.18","169","1","2025-04-14 14:24:18","bb671e3ae32f654b8954ea4c4635f915","","Mozilla/5.0 (Windows NT 10.0; Win64; x64) AppleWebKit/537.36 (KHTML, like Gecko) Chrome/120.0.0.0 Safari/537.36","WebKit","Chrome","120.0.0.0","Windows","10.0","https://hz8g1ckzuq.cognition.run/","en-US,en;q=0.9","utru0t3ulum1f9r","54","[""White""]","No","Male","2780591.8999999985","null","","<p></p>","null","choice","dct","repulsion_2","2","laptops","null","null","null","null","null","null","1","","","","","","","","","",""
"","","","","","choice_trial","survey-html-form","121","2555490","0.0-5.0-1.18","169","1","2025-04-14 14:24:18","bb671e3ae32f654b8954ea4c4635f915","","Mozilla/5.0 (Windows NT 10.0; Win64; x64) AppleWebKit/537.36 (KHTML, like Gecko) Chrome/120.0.0.0 Safari/537.36","WebKit","Chrome","120.0.0.0","Windows","10.0","https://hz8g1ckzuq.cognition.run/","en-US,en;q=0.9","utru0t3ulum1f9r","54","[""White""]","No","Male","2780591.8999999985","3539","","","{""product_choice"":""B""}","choice","dct","repulsion_2","2","laptops","null","null","null","null","null","null","1","30","40","20","100","90","100","Processing speed","Memory (RAM)","",""
"","","","","","choice_trial_setup","html-keyboard-response","122","2555796","0.0-5.0-0.19","169","1","2025-04-14 14:24:18","bb671e3ae32f654b8954ea4c4635f915","","Mozilla/5.0 (Windows NT 10.0; Win64; x64) AppleWebKit/537.36 (KHTML, like Gecko) Chrome/120.0.0.0 Safari/537.36","WebKit","Chrome","120.0.0.0","Windows","10.0","https://hz8g1ckzuq.cognition.run/","en-US,en;q=0.9","utru0t3ulum1f9r","54","[""White""]","No","Male","2780591.8999999985","null","","<p></p>","null","choice","tcd","repulsion_1","2","televisions","null","null","null","null","null","null","2","","","","","","","","","",""
"","","","","","choice_trial","survey-html-form","123","2558514","0.0-5.0-1.19","169","1","2025-04-14 14:24:18","bb671e3ae32f654b8954ea4c4635f915","","Mozilla/5.0 (Windows NT 10.0; Win64; x64) AppleWebKit/537.36 (KHTML, like Gecko) Chrome/120.0.0.0 Safari/537.36","WebKit","Chrome","120.0.0.0","Windows","10.0","https://hz8g1ckzuq.cognition.run/","en-US,en;q=0.9","utru0t3ulum1f9r","54","[""White""]","No","Male","2780591.8999999985","2702","","","{""product_choice"":""B""}","choice","tcd","repulsion_1","2","televisions","null","null","null","null","null","null","2","30","40","25","100","90","100","Screen size","Average lifespan","",""
"","","","","","choice_trial_setup","html-keyboard-response","124","2558826","0.0-5.0-0.20","169","1","2025-04-14 14:24:18","bb671e3ae32f654b8954ea4c4635f915","","Mozilla/5.0 (Windows NT 10.0; Win64; x64) AppleWebKit/537.36 (KHTML, like Gecko) Chrome/120.0.0.0 Safari/537.36","WebKit","Chrome","120.0.0.0","Windows","10.0","https://hz8g1ckzuq.cognition.run/","en-US,en;q=0.9","utru0t3ulum1f9r","54","[""White""]","No","Male","2780591.8999999985","null","","<p></p>","null","choice","tcd","attraction_2","1","televisions","null","null","null","null","null","null","1","","","","","","","","","",""
"","","","","","choice_trial","survey-html-form","125","2568482","0.0-5.0-1.20","169","1","2025-04-14 14:24:18","bb671e3ae32f654b8954ea4c4635f915","","Mozilla/5.0 (Windows NT 10.0; Win64; x64) AppleWebKit/537.36 (KHTML, like Gecko) Chrome/120.0.0.0 Safari/537.36","WebKit","Chrome","120.0.0.0","Windows","10.0","https://hz8g1ckzuq.cognition.run/","en-US,en;q=0.9","utru0t3ulum1f9r","54","[""White""]","No","Male","2780591.8999999985","9648","","","{""product_choice"":""B""}","choice","tcd","attraction_2","1","televisions","null","null","null","null","null","null","1","60","50","60","50","60","40","Screen size","Average lifespan","",""
"","","","","","choice_trial_setup","html-keyboard-response","126","2568792","0.0-5.0-0.21","169","1","2025-04-14 14:24:18","bb671e3ae32f654b8954ea4c4635f915","","Mozilla/5.0 (Windows NT 10.0; Win64; x64) AppleWebKit/537.36 (KHTML, like Gecko) Chrome/120.0.0.0 Safari/537.36","WebKit","Chrome","120.0.0.0","Windows","10.0","https://hz8g1ckzuq.cognition.run/","en-US,en;q=0.9","utru0t3ulum1f9r","54","[""White""]","No","Male","2780591.8999999985","null","","<p></p>","null","choice","dct","attraction_2","1","microwave ovens","null","null","null","null","null","null","2","","","","","","","","","",""
"","","","","","choice_trial","survey-html-form","127","2575249","0.0-5.0-1.21","169","1","2025-04-14 14:24:18","bb671e3ae32f654b8954ea4c4635f915","","Mozilla/5.0 (Windows NT 10.0; Win64; x64) AppleWebKit/537.36 (KHTML, like Gecko) Chrome/120.0.0.0 Safari/537.36","WebKit","Chrome","120.0.0.0","Windows","10.0","https://hz8g1ckzuq.cognition.run/","en-US,en;q=0.9","utru0t3ulum1f9r","54","[""White""]","No","Male","2780591.8999999985","6430","","","{""product_choice"":""B""}","choice","dct","attraction_2","1","microwave ovens","null","null","null","null","null","null","2","60","50","60","50","60","40","Warranty","Cooking power","",""
"","","","","","choice_trial_setup","html-keyboard-response","128","2575558","0.0-5.0-0.22","169","1","2025-04-14 14:24:18","bb671e3ae32f654b8954ea4c4635f915","","Mozilla/5.0 (Windows NT 10.0; Win64; x64) AppleWebKit/537.36 (KHTML, like Gecko) Chrome/120.0.0.0 Safari/537.36","WebKit","Chrome","120.0.0.0","Windows","10.0","https://hz8g1ckzuq.cognition.run/","en-US,en;q=0.9","utru0t3ulum1f9r","54","[""White""]","No","Male","2780591.8999999985","null","","<p></p>","null","choice","wbw","catch","null","laptops","90","70","40","50","20","5","2","","","","","","","","","",""
"","","","","","choice_trial","survey-html-form","129","2579137","0.0-5.0-1.22","169","1","2025-04-14 14:24:18","bb671e3ae32f654b8954ea4c4635f915","","Mozilla/5.0 (Windows NT 10.0; Win64; x64) AppleWebKit/537.36 (KHTML, like Gecko) Chrome/120.0.0.0 Safari/537.36","WebKit","Chrome","120.0.0.0","Windows","10.0","https://hz8g1ckzuq.cognition.run/","en-US,en;q=0.9","utru0t3ulum1f9r","54","[""White""]","No","Male","2780591.8999999985","3548","","","{""product_choice"":""B""}","choice","wbw","catch","null","laptops","90","70","40","50","20","5","2","null","null","null","null","null","null","Processing speed","Memory (RAM)","",""
"","","","","","choice_trial_setup","html-keyboard-response","130","2579444","0.0-5.0-0.23","169","1","2025-04-14 14:24:18","bb671e3ae32f654b8954ea4c4635f915","","Mozilla/5.0 (Windows NT 10.0; Win64; x64) AppleWebKit/537.36 (KHTML, like Gecko) Chrome/120.0.0.0 Safari/537.36","WebKit","Chrome","120.0.0.0","Windows","10.0","https://hz8g1ckzuq.cognition.run/","en-US,en;q=0.9","utru0t3ulum1f9r","54","[""White""]","No","Male","2780591.8999999985","null","","<p></p>","null","choice","dct","repulsion_1","1","washing machines","null","null","null","null","null","null","2","","","","","","","","","",""
"","","","","","choice_trial","survey-html-form","131","2582897","0.0-5.0-1.23","169","1","2025-04-14 14:24:18","bb671e3ae32f654b8954ea4c4635f915","","Mozilla/5.0 (Windows NT 10.0; Win64; x64) AppleWebKit/537.36 (KHTML, like Gecko) Chrome/120.0.0.0 Safari/537.36","WebKit","Chrome","120.0.0.0","Windows","10.0","https://hz8g1ckzuq.cognition.run/","en-US,en;q=0.9","utru0t3ulum1f9r","54","[""White""]","No","Male","2780591.8999999985","3430","","","{""product_choice"":""B""}","choice","dct","repulsion_1","1","washing machines","null","null","null","null","null","null","2","100","90","100","30","40","25","Average lifespan","Energy savings","",""
"","","","","","choice_trial_setup","html-keyboard-response","132","2583207","0.0-5.0-0.24","169","1","2025-04-14 14:24:18","bb671e3ae32f654b8954ea4c4635f915","","Mozilla/5.0 (Windows NT 10.0; Win64; x64) AppleWebKit/537.36 (KHTML, like Gecko) Chrome/120.0.0.0 Safari/537.36","WebKit","Chrome","120.0.0.0","Windows","10.0","https://hz8g1ckzuq.cognition.run/","en-US,en;q=0.9","utru0t3ulum1f9r","54","[""White""]","No","Male","2780591.8999999985","null","","<p></p>","null","choice","dtc","repulsion_2","1","washing machines","null","null","null","null","null","null","1","","","","","","","","","",""
"","","","","","choice_trial","survey-html-form","133","2586635","0.0-5.0-1.24","169","1","2025-04-14 14:24:18","bb671e3ae32f654b8954ea4c4635f915","","Mozilla/5.0 (Windows NT 10.0; Win64; x64) AppleWebKit/537.36 (KHTML, like Gecko) Chrome/120.0.0.0 Safari/537.36","WebKit","Chrome","120.0.0.0","Windows","10.0","https://hz8g1ckzuq.cognition.run/","en-US,en;q=0.9","utru0t3ulum1f9r","54","[""White""]","No","Male","2780591.8999999985","3401","","","{""product_choice"":""C""}","choice","dtc","repulsion_2","1","washing machines","null","null","null","null","null","null","1","100","90","100","30","40","20","Average lifespan","Energy savings","",""
"","","","","","choice_trial_setup","html-keyboard-response","134","2586943","0.0-5.0-0.25","169","1","2025-04-14 14:24:18","bb671e3ae32f654b8954ea4c4635f915","","Mozilla/5.0 (Windows NT 10.0; Win64; x64) AppleWebKit/537.36 (KHTML, like Gecko) Chrome/120.0.0.0 Safari/537.36","WebKit","Chrome","120.0.0.0","Windows","10.0","https://hz8g1ckzuq.cognition.run/","en-US,en;q=0.9","utru0t3ulum1f9r","54","[""White""]","No","Male","2780591.8999999985","null","","<p></p>","null","choice","tcd","attraction_2","2","microwave ovens","null","null","null","null","null","null","1","","","","","","","","","",""
"","","","","","choice_trial","survey-html-form","135","2593681","0.0-5.0-1.25","169","1","2025-04-14 14:24:18","bb671e3ae32f654b8954ea4c4635f915","","Mozilla/5.0 (Windows NT 10.0; Win64; x64) AppleWebKit/537.36 (KHTML, like Gecko) Chrome/120.0.0.0 Safari/537.36","WebKit","Chrome","120.0.0.0","Windows","10.0","https://hz8g1ckzuq.cognition.run/","en-US,en;q=0.9","utru0t3ulum1f9r","54","[""White""]","No","Male","2780591.8999999985","6699","","","{""product_choice"":""A""}","choice","tcd","attraction_2","2","microwave ovens","null","null","null","null","null","null","1","50","60","40","60","50","60","Warranty","Cooking power","",""
"","","","","","choice_trial_setup","html-keyboard-response","136","2593994","0.0-5.0-0.26","169","1","2025-04-14 14:24:18","bb671e3ae32f654b8954ea4c4635f915","","Mozilla/5.0 (Windows NT 10.0; Win64; x64) AppleWebKit/537.36 (KHTML, like Gecko) Chrome/120.0.0.0 Safari/537.36","WebKit","Chrome","120.0.0.0","Windows","10.0","https://hz8g1ckzuq.cognition.run/","en-US,en;q=0.9","utru0t3ulum1f9r","54","[""White""]","No","Male","2780591.8999999985","null","","<p></p>","null","choice","wwb","catch","null","washing machines","55","75","20","35","25","15","1","","","","","","","","","",""
"","","","","","choice_trial","survey-html-form","137","2599529","0.0-5.0-1.26","169","1","2025-04-14 14:24:18","bb671e3ae32f654b8954ea4c4635f915","","Mozilla/5.0 (Windows NT 10.0; Win64; x64) AppleWebKit/537.36 (KHTML, like Gecko) Chrome/120.0.0.0 Safari/537.36","WebKit","Chrome","120.0.0.0","Windows","10.0","https://hz8g1ckzuq.cognition.run/","en-US,en;q=0.9","utru0t3ulum1f9r","54","[""White""]","No","Male","2780591.8999999985","5523","","","{""product_choice"":""C""}","choice","wwb","catch","null","washing machines","55","75","20","35","25","15","1","null","null","null","null","null","null","Average lifespan","Energy savings","",""
"","","","","","choice_trial_setup","html-keyboard-response","138","2599836","0.0-5.0-0.27","169","1","2025-04-14 14:24:18","bb671e3ae32f654b8954ea4c4635f915","","Mozilla/5.0 (Windows NT 10.0; Win64; x64) AppleWebKit/537.36 (KHTML, like Gecko) Chrome/120.0.0.0 Safari/537.36","WebKit","Chrome","120.0.0.0","Windows","10.0","https://hz8g1ckzuq.cognition.run/","en-US,en;q=0.9","utru0t3ulum1f9r","54","[""White""]","No","Male","2780591.8999999985","null","","<p></p>","null","choice","dct","attraction_1","1","microwave ovens","null","null","null","null","null","null","2","","","","","","","","","",""
"","","","","","choice_trial","survey-html-form","139","2607913","0.0-5.0-1.27","169","1","2025-04-14 14:24:18","bb671e3ae32f654b8954ea4c4635f915","","Mozilla/5.0 (Windows NT 10.0; Win64; x64) AppleWebKit/537.36 (KHTML, like Gecko) Chrome/120.0.0.0 Safari/537.36","WebKit","Chrome","120.0.0.0","Windows","10.0","https://hz8g1ckzuq.cognition.run/","en-US,en;q=0.9","utru0t3ulum1f9r","54","[""White""]","No","Male","2780591.8999999985","8069","","","{""product_choice"":""B""}","choice","dct","attraction_1","1","microwave ovens","null","null","null","null","null","null","2","60","50","60","50","60","45","Warranty","Cooking power","",""
"","","","","","choice_trial_setup","html-keyboard-response","140","2608221","0.0-5.0-0.28","169","1","2025-04-14 14:24:18","bb671e3ae32f654b8954ea4c4635f915","","Mozilla/5.0 (Windows NT 10.0; Win64; x64) AppleWebKit/537.36 (KHTML, like Gecko) Chrome/120.0.0.0 Safari/537.36","WebKit","Chrome","120.0.0.0","Windows","10.0","https://hz8g1ckzuq.cognition.run/","en-US,en;q=0.9","utru0t3ulum1f9r","54","[""White""]","No","Male","2780591.8999999985","null","","<p></p>","null","choice","dtc","attraction_1","2","washing machines","null","null","null","null","null","null","2","","","","","","","","","",""
"","","","","","choice_trial","survey-html-form","141","2618033","0.0-5.0-1.28","169","1","2025-04-14 14:24:18","bb671e3ae32f654b8954ea4c4635f915","","Mozilla/5.0 (Windows NT 10.0; Win64; x64) AppleWebKit/537.36 (KHTML, like Gecko) Chrome/120.0.0.0 Safari/537.36","WebKit","Chrome","120.0.0.0","Windows","10.0","https://hz8g1ckzuq.cognition.run/","en-US,en;q=0.9","utru0t3ulum1f9r","54","[""White""]","No","Male","2780591.8999999985","9804","","","{""product_choice"":""B""}","choice","dtc","attraction_1","2","washing machines","null","null","null","null","null","null","2","50","60","45","60","50","60","Average lifespan","Energy savings","",""
"","","","","","choice_trial_setup","html-keyboard-response","142","2618346","0.0-5.0-0.29","169","1","2025-04-14 14:24:18","bb671e3ae32f654b8954ea4c4635f915","","Mozilla/5.0 (Windows NT 10.0; Win64; x64) AppleWebKit/537.36 (KHTML, like Gecko) Chrome/120.0.0.0 Safari/537.36","WebKit","Chrome","120.0.0.0","Windows","10.0","https://hz8g1ckzuq.cognition.run/","en-US,en;q=0.9","utru0t3ulum1f9r","54","[""White""]","No","Male","2780591.8999999985","null","","<p></p>","null","choice","bww","catch","null","laptops","65","70","30","45","35","45","2","","","","","","","","","",""
"","","","","","choice_trial","survey-html-form","143","2622449","0.0-5.0-1.29","169","1","2025-04-14 14:24:18","bb671e3ae32f654b8954ea4c4635f915","","Mozilla/5.0 (Windows NT 10.0; Win64; x64) AppleWebKit/537.36 (KHTML, like Gecko) Chrome/120.0.0.0 Safari/537.36","WebKit","Chrome","120.0.0.0","Windows","10.0","https://hz8g1ckzuq.cognition.run/","en-US,en;q=0.9","utru0t3ulum1f9r","54","[""White""]","No","Male","2780591.8999999985","4075","","","{""product_choice"":""A""}","choice","bww","catch","null","laptops","65","70","30","45","35","45","2","null","null","null","null","null","null","Processing speed","Memory (RAM)","",""
"","","","","","choice_trial_setup","html-keyboard-response","144","2622764","0.0-5.0-0.30","169","1","2025-04-14 14:24:18","bb671e3ae32f654b8954ea4c4635f915","","Mozilla/5.0 (Windows NT 10.0; Win64; x64) AppleWebKit/537.36 (KHTML, like Gecko) Chrome/120.0.0.0 Safari/537.36","WebKit","Chrome","120.0.0.0","Windows","10.0","https://hz8g1ckzuq.cognition.run/","en-US,en;q=0.9","utru0t3ulum1f9r","54","[""White""]","No","Male","2780591.8999999985","null","","<p></p>","null","choice","wwb","catch","null","microwave ovens","90","50","20","40","35","20","2","","","","","","","","","",""
"","","","","","choice_trial","survey-html-form","145","2628657","0.0-5.0-1.30","169","1","2025-04-14 14:24:18","bb671e3ae32f654b8954ea4c4635f915","","Mozilla/5.0 (Windows NT 10.0; Win64; x64) AppleWebKit/537.36 (KHTML, like Gecko) Chrome/120.0.0.0 Safari/537.36","WebKit","Chrome","120.0.0.0","Windows","10.0","https://hz8g1ckzuq.cognition.run/","en-US,en;q=0.9","utru0t3ulum1f9r","54","[""White""]","No","Male","2780591.8999999985","5857","","","{""product_choice"":""C""}","choice","wwb","catch","null","microwave ovens","90","50","20","40","35","20","2","null","null","null","null","null","null","Warranty","Cooking power","",""
"","","","","","choice_trial_setup","html-keyboard-response","146","2628965","0.0-5.0-0.31","169","1","2025-04-14 14:24:18","bb671e3ae32f654b8954ea4c4635f915","","Mozilla/5.0 (Windows NT 10.0; Win64; x64) AppleWebKit/537.36 (KHTML, like Gecko) Chrome/120.0.0.0 Safari/537.36","WebKit","Chrome","120.0.0.0","Windows","10.0","https://hz8g1ckzuq.cognition.run/","en-US,en;q=0.9","utru0t3ulum1f9r","54","[""White""]","No","Male","2780591.8999999985","null","","<p></p>","null","choice","tcd","repulsion_2","2","washing machines","null","null","null","null","null","null","1","","","","","","","","","",""
"","","","","","choice_trial","survey-html-form","147","2632673","0.0-5.0-1.31","169","1","2025-04-14 14:24:18","bb671e3ae32f654b8954ea4c4635f915","","Mozilla/5.0 (Windows NT 10.0; Win64; x64) AppleWebKit/537.36 (KHTML, like Gecko) Chrome/120.0.0.0 Safari/537.36","WebKit","Chrome","120.0.0.0","Windows","10.0","https://hz8g1ckzuq.cognition.run/","en-US,en;q=0.9","utru0t3ulum1f9r","54","[""White""]","No","Male","2780591.8999999985","3688","","","{""product_choice"":""B""}","choice","tcd","repulsion_2","2","washing machines","null","null","null","null","null","null","1","30","40","20","100","90","100","Average lifespan","Energy savings","",""
"","","","","","choice_trial_setup","html-keyboard-response","148","2632981","0.0-5.0-0.32","169","1","2025-04-14 14:24:18","bb671e3ae32f654b8954ea4c4635f915","","Mozilla/5.0 (Windows NT 10.0; Win64; x64) AppleWebKit/537.36 (KHTML, like Gecko) Chrome/120.0.0.0 Safari/537.36","WebKit","Chrome","120.0.0.0","Windows","10.0","https://hz8g1ckzuq.cognition.run/","en-US,en;q=0.9","utru0t3ulum1f9r","54","[""White""]","No","Male","2780591.8999999985","null","","<p></p>","null","choice","dtc","attraction_2","2","washing machines","null","null","null","null","null","null","1","","","","","","","","","",""
"","","","","","choice_trial","survey-html-form","149","2640249","0.0-5.0-1.32","169","1","2025-04-14 14:24:18","bb671e3ae32f654b8954ea4c4635f915","","Mozilla/5.0 (Windows NT 10.0; Win64; x64) AppleWebKit/537.36 (KHTML, like Gecko) Chrome/120.0.0.0 Safari/537.36","WebKit","Chrome","120.0.0.0","Windows","10.0","https://hz8g1ckzuq.cognition.run/","en-US,en;q=0.9","utru0t3ulum1f9r","54","[""White""]","No","Male","2780591.8999999985","7234","","","{""product_choice"":""B""}","choice","dtc","attraction_2","2","washing machines","null","null","null","null","null","null","1","50","60","40","60","50","60","Average lifespan","Energy savings","",""
"","","","","","choice_trial_setup","html-keyboard-response","150","2640566","0.0-5.0-0.33","169","1","2025-04-14 14:24:18","bb671e3ae32f654b8954ea4c4635f915","","Mozilla/5.0 (Windows NT 10.0; Win64; x64) AppleWebKit/537.36 (KHTML, like Gecko) Chrome/120.0.0.0 Safari/537.36","WebKit","Chrome","120.0.0.0","Windows","10.0","https://hz8g1ckzuq.cognition.run/","en-US,en;q=0.9","utru0t3ulum1f9r","54","[""White""]","No","Male","2780591.8999999985","null","","<p></p>","null","choice","wbw","catch","null","microwave ovens","80","80","40","35","20","45","2","","","","","","","","","",""
"","","","","","choice_trial","survey-html-form","151","2644649","0.0-5.0-1.33","169","1","2025-04-14 14:24:18","bb671e3ae32f654b8954ea4c4635f915","","Mozilla/5.0 (Windows NT 10.0; Win64; x64) AppleWebKit/537.36 (KHTML, like Gecko) Chrome/120.0.0.0 Safari/537.36","WebKit","Chrome","120.0.0.0","Windows","10.0","https://hz8g1ckzuq.cognition.run/","en-US,en;q=0.9","utru0t3ulum1f9r","54","[""White""]","No","Male","2780591.8999999985","4053","","","{""product_choice"":""B""}","choice","wbw","catch","null","microwave ovens","80","80","40","35","20","45","2","null","null","null","null","null","null","Warranty","Cooking power","",""
"","","","","","choice_trial_setup","html-keyboard-response","152","2644959","0.0-5.0-0.34","169","1","2025-04-14 14:24:18","bb671e3ae32f654b8954ea4c4635f915","","Mozilla/5.0 (Windows NT 10.0; Win64; x64) AppleWebKit/537.36 (KHTML, like Gecko) Chrome/120.0.0.0 Safari/537.36","WebKit","Chrome","120.0.0.0","Windows","10.0","https://hz8g1ckzuq.cognition.run/","en-US,en;q=0.9","utru0t3ulum1f9r","54","[""White""]","No","Male","2780591.8999999985","null","","<p></p>","null","choice","tdc","attraction_2","1","washing machines","null","null","null","null","null","null","1","","","","","","","","","",""
"","","","","","choice_trial","survey-html-form","153","2651505","0.0-5.0-1.34","169","1","2025-04-14 14:24:18","bb671e3ae32f654b8954ea4c4635f915","","Mozilla/5.0 (Windows NT 10.0; Win64; x64) AppleWebKit/537.36 (KHTML, like Gecko) Chrome/120.0.0.0 Safari/537.36","WebKit","Chrome","120.0.0.0","Windows","10.0","https://hz8g1ckzuq.cognition.run/","en-US,en;q=0.9","utru0t3ulum1f9r","54","[""White""]","No","Male","2780591.8999999985","6532","","","{""product_choice"":""C""}","choice","tdc","attraction_2","1","washing machines","null","null","null","null","null","null","1","60","50","60","50","60","40","Average lifespan","Energy savings","",""
"","","","","","choice_trial_setup","html-keyboard-response","154","2651813","0.0-5.0-0.35","169","1","2025-04-14 14:24:18","bb671e3ae32f654b8954ea4c4635f915","","Mozilla/5.0 (Windows NT 10.0; Win64; x64) AppleWebKit/537.36 (KHTML, like Gecko) Chrome/120.0.0.0 Safari/537.36","WebKit","Chrome","120.0.0.0","Windows","10.0","https://hz8g1ckzuq.cognition.run/","en-US,en;q=0.9","utru0t3ulum1f9r","54","[""White""]","No","Male","2780591.8999999985","null","","<p></p>","null","choice","dtc","repulsion_1","2","laptops","null","null","null","null","null","null","1","","","","","","","","","",""
"","","","","","choice_trial","survey-html-form","155","2655657","0.0-5.0-1.35","169","1","2025-04-14 14:24:18","bb671e3ae32f654b8954ea4c4635f915","","Mozilla/5.0 (Windows NT 10.0; Win64; x64) AppleWebKit/537.36 (KHTML, like Gecko) Chrome/120.0.0.0 Safari/537.36","WebKit","Chrome","120.0.0.0","Windows","10.0","https://hz8g1ckzuq.cognition.run/","en-US,en;q=0.9","utru0t3ulum1f9r","54","[""White""]","No","Male","2780591.8999999985","3835","","","{""product_choice"":""C""}","choice","dtc","repulsion_1","2","laptops","null","null","null","null","null","null","1","30","40","25","100","90","100","Processing speed","Memory (RAM)","",""
"","","","","","choice_trial_setup","html-keyboard-response","156","2655965","0.0-5.0-0.36","169","1","2025-04-14 14:24:18","bb671e3ae32f654b8954ea4c4635f915","","Mozilla/5.0 (Windows NT 10.0; Win64; x64) AppleWebKit/537.36 (KHTML, like Gecko) Chrome/120.0.0.0 Safari/537.36","WebKit","Chrome","120.0.0.0","Windows","10.0","https://hz8g1ckzuq.cognition.run/","en-US,en;q=0.9","utru0t3ulum1f9r","54","[""White""]","No","Male","2780591.8999999985","null","","<p></p>","null","choice","dct","attraction_1","1","laptops","null","null","null","null","null","null","1","","","","","","","","","",""
"","","","","","choice_trial","survey-html-form","157","2662658","0.0-5.0-1.36","169","1","2025-04-14 14:24:18","bb671e3ae32f654b8954ea4c4635f915","","Mozilla/5.0 (Windows NT 10.0; Win64; x64) AppleWebKit/537.36 (KHTML, like Gecko) Chrome/120.0.0.0 Safari/537.36","WebKit","Chrome","120.0.0.0","Windows","10.0","https://hz8g1ckzuq.cognition.run/","en-US,en;q=0.9","utru0t3ulum1f9r","54","[""White""]","No","Male","2780591.8999999985","6669","","","{""product_choice"":""C""}","choice","dct","attraction_1","1","laptops","null","null","null","null","null","null","1","60","50","60","50","60","45","Processing speed","Memory (RAM)","",""
