"success","timeout","failed_images","failed_audio","failed_video","screen_id","trial_type","trial_index","time_elapsed","internal_node_id","run_id","condition","recorded_at","source_code_version","ip","user_agent","device","browser","browser_version","platform","platform_version","referer","accept_language","ppt_id","age","race","ethnicity","gender","exp_duration","rt","view_history","stimulus","response","phase","order","effect","t_high","category","d1_best","d2_best","d1_worst1","d2_worst1","d1_worst2","d2_worst2","first_dim","d1_t","d1_c","d1_d","d2_t","d2_c","d2_d","d1_name","d2_name","strategy_response","question_order"
"true","false","[]","[]","[]","img preload","preload","0","175","0.0-0.0","170","1","2025-04-14 14:24:58","bb671e3ae32f654b8954ea4c4635f915","","Mozilla/5.0 (X11; CrOS x86_64 14541.0.0) AppleWebKit/537.36 (KHTML, like Gecko) Chrome/134.0.0.0 Safari/537.36","WebKit","Chrome","134.0.0.0","ChromeOS","14541.0.0","https://hz8g1ckzuq.cognition.run/","en-US,en;q=0.9","tabceha9dmsr4vf","30","[""Other""]","Yes","Male","1789461.3000000007","","","","","","","","","","","","","","","","","","","","","","","","","",""
"true","","","","","","fullscreen","1","4221","0.0-1.0","170","1","2025-04-14 14:24:58","bb671e3ae32f654b8954ea4c4635f915","","Mozilla/5.0 (X11; CrOS x86_64 14541.0.0) AppleWebKit/537.36 (KHTML, like Gecko) Chrome/134.0.0.0 Safari/537.36","WebKit","Chrome","134.0.0.0","ChromeOS","14541.0.0","https://hz8g1ckzuq.cognition.run/","en-US,en;q=0.9","tabceha9dmsr4vf","30","[""Other""]","Yes","Male","1789461.3000000007","3041","","","","","","","","","","","","","","","","","","","","","","","","",""
"","","","","","","instructions","2","68739","0.0-2.0","170","1","2025-04-14 14:24:58","bb671e3ae32f654b8954ea4c4635f915","","Mozilla/5.0 (X11; CrOS x86_64 14541.0.0) AppleWebKit/537.36 (KHTML, like Gecko) Chrome/134.0.0.0 Safari/537.36","WebKit","Chrome","134.0.0.0","ChromeOS","14541.0.0","https://hz8g1ckzuq.cognition.run/","en-US,en;q=0.9","tabceha9dmsr4vf","30","[""Other""]","Yes","Male","1789461.3000000007","64516","[{""page_index"":0,""viewing_time"":1850},{""page_index"":1,""viewing_time"":4015},{""page_index"":2,""viewing_time"":4778},{""page_index"":3,""viewing_time"":5741},{""page_index"":4,""viewing_time"":8094},{""page_index"":5,""viewing_time"":8224},{""page_index"":6,""viewing_time"":6602},{""page_index"":7,""viewing_time"":14431},{""page_index"":8,""viewing_time"":8897},{""page_index"":9,""viewing_time"":1885}]","","","","","","","","","","","","","","","","","","","","","","","",""
"","","","","","rating_trial_setup","html-keyboard-response","3","69049","0.0-3.0-0.0","170","1","2025-04-14 14:24:58","bb671e3ae32f654b8954ea4c4635f915","","Mozilla/5.0 (X11; CrOS x86_64 14541.0.0) AppleWebKit/537.36 (KHTML, like Gecko) Chrome/134.0.0.0 Safari/537.36","WebKit","Chrome","134.0.0.0","ChromeOS","14541.0.0","https://hz8g1ckzuq.cognition.run/","en-US,en;q=0.9","tabceha9dmsr4vf","30","[""Other""]","Yes","Male","1789461.3000000007","null","","<p></p>","null","rating","tcd","repulsion_1","2","televisions","null","null","null","null","null","null","1","","","","","","","","","",""
"","","","","","rating_trial","survey-html-form","4","104433","0.0-3.0-1.0","170","1","2025-04-14 14:24:58","bb671e3ae32f654b8954ea4c4635f915","","Mozilla/5.0 (X11; CrOS x86_64 14541.0.0) AppleWebKit/537.36 (KHTML, like Gecko) Chrome/134.0.0.0 Safari/537.36","WebKit","Chrome","134.0.0.0","ChromeOS","14541.0.0","https://hz8g1ckzuq.cognition.run/","en-US,en;q=0.9","tabceha9dmsr4vf","30","[""Other""]","Yes","Male","1789461.3000000007","35377","","","{""price_1"":""75"",""price_2"":""100"",""price_3"":""60""}","rating","tcd","repulsion_1","2","televisions","null","null","null","null","null","null","1","30","40","25","100","90","100","Screen size","Average lifespan","",""
"","","","","","rating_trial_setup","html-keyboard-response","5","104735","0.0-3.0-0.1","170","1","2025-04-14 14:24:58","bb671e3ae32f654b8954ea4c4635f915","","Mozilla/5.0 (X11; CrOS x86_64 14541.0.0) AppleWebKit/537.36 (KHTML, like Gecko) Chrome/134.0.0.0 Safari/537.36","WebKit","Chrome","134.0.0.0","ChromeOS","14541.0.0","https://hz8g1ckzuq.cognition.run/","en-US,en;q=0.9","tabceha9dmsr4vf","30","[""Other""]","Yes","Male","1789461.3000000007","null","","<p></p>","null","rating","tdc","repulsion_1","1","laptops","null","null","null","null","null","null","1","","","","","","","","","",""
"","","","","","rating_trial","survey-html-form","6","130002","0.0-3.0-1.1","170","1","2025-04-14 14:24:58","bb671e3ae32f654b8954ea4c4635f915","","Mozilla/5.0 (X11; CrOS x86_64 14541.0.0) AppleWebKit/537.36 (KHTML, like Gecko) Chrome/134.0.0.0 Safari/537.36","WebKit","Chrome","134.0.0.0","ChromeOS","14541.0.0","https://hz8g1ckzuq.cognition.run/","en-US,en;q=0.9","tabceha9dmsr4vf","30","[""Other""]","Yes","Male","1789461.3000000007","25265","","","{""price_1"":""200"",""price_2"":""150"",""price_3"":""190""}","rating","tdc","repulsion_1","1","laptops","null","null","null","null","null","null","1","100","90","100","30","40","25","Processing speed","Memory (RAM)","",""
"","","","","","rating_trial_setup","html-keyboard-response","7","130304","0.0-3.0-0.2","170","1","2025-04-14 14:24:58","bb671e3ae32f654b8954ea4c4635f915","","Mozilla/5.0 (X11; CrOS x86_64 14541.0.0) AppleWebKit/537.36 (KHTML, like Gecko) Chrome/134.0.0.0 Safari/537.36","WebKit","Chrome","134.0.0.0","ChromeOS","14541.0.0","https://hz8g1ckzuq.cognition.run/","en-US,en;q=0.9","tabceha9dmsr4vf","30","[""Other""]","Yes","Male","1789461.3000000007","null","","<p></p>","null","rating","dtc","repulsion_1","1","microwave ovens","null","null","null","null","null","null","2","","","","","","","","","",""
"","","","","","rating_trial","survey-html-form","8","158629","0.0-3.0-1.2","170","1","2025-04-14 14:24:58","bb671e3ae32f654b8954ea4c4635f915","","Mozilla/5.0 (X11; CrOS x86_64 14541.0.0) AppleWebKit/537.36 (KHTML, like Gecko) Chrome/134.0.0.0 Safari/537.36","WebKit","Chrome","134.0.0.0","ChromeOS","14541.0.0","https://hz8g1ckzuq.cognition.run/","en-US,en;q=0.9","tabceha9dmsr4vf","30","[""Other""]","Yes","Male","1789461.3000000007","28323","","","{""price_1"":""50"",""price_2"":""75"",""price_3"":""100""}","rating","dtc","repulsion_1","1","microwave ovens","null","null","null","null","null","null","2","100","90","100","30","40","25","Warranty","Cooking power","",""
"","","","","","rating_trial_setup","html-keyboard-response","9","158931","0.0-3.0-0.3","170","1","2025-04-14 14:24:58","bb671e3ae32f654b8954ea4c4635f915","","Mozilla/5.0 (X11; CrOS x86_64 14541.0.0) AppleWebKit/537.36 (KHTML, like Gecko) Chrome/134.0.0.0 Safari/537.36","WebKit","Chrome","134.0.0.0","ChromeOS","14541.0.0","https://hz8g1ckzuq.cognition.run/","en-US,en;q=0.9","tabceha9dmsr4vf","30","[""Other""]","Yes","Male","1789461.3000000007","null","","<p></p>","null","rating","wwb","catch","null","laptops","85","70","15","35","25","35","2","","","","","","","","","",""
"","","","","","rating_trial","survey-html-form","10","196537","0.0-3.0-1.3","170","1","2025-04-14 14:24:58","bb671e3ae32f654b8954ea4c4635f915","","Mozilla/5.0 (X11; CrOS x86_64 14541.0.0) AppleWebKit/537.36 (KHTML, like Gecko) Chrome/134.0.0.0 Safari/537.36","WebKit","Chrome","134.0.0.0","ChromeOS","14541.0.0","https://hz8g1ckzuq.cognition.run/","en-US,en;q=0.9","tabceha9dmsr4vf","30","[""Other""]","Yes","Male","1789461.3000000007","37604","","","{""price_1"":""120"",""price_2"":""150"",""price_3"":""200""}","rating","wwb","catch","null","laptops","85","70","15","35","25","35","2","null","null","null","null","null","null","Processing speed","Memory (RAM)","",""
"","","","","","rating_trial_setup","html-keyboard-response","11","196838","0.0-3.0-0.4","170","1","2025-04-14 14:24:58","bb671e3ae32f654b8954ea4c4635f915","","Mozilla/5.0 (X11; CrOS x86_64 14541.0.0) AppleWebKit/537.36 (KHTML, like Gecko) Chrome/134.0.0.0 Safari/537.36","WebKit","Chrome","134.0.0.0","ChromeOS","14541.0.0","https://hz8g1ckzuq.cognition.run/","en-US,en;q=0.9","tabceha9dmsr4vf","30","[""Other""]","Yes","Male","1789461.3000000007","null","","<p></p>","null","rating","tcd","repulsion_2","2","televisions","null","null","null","null","null","null","1","","","","","","","","","",""
"","","","","","rating_trial","survey-html-form","12","212273","0.0-3.0-1.4","170","1","2025-04-14 14:24:58","bb671e3ae32f654b8954ea4c4635f915","","Mozilla/5.0 (X11; CrOS x86_64 14541.0.0) AppleWebKit/537.36 (KHTML, like Gecko) Chrome/134.0.0.0 Safari/537.36","WebKit","Chrome","134.0.0.0","ChromeOS","14541.0.0","https://hz8g1ckzuq.cognition.run/","en-US,en;q=0.9","tabceha9dmsr4vf","30","[""Other""]","Yes","Male","1789461.3000000007","15433","","","{""price_1"":""200"",""price_2"":""250"",""price_3"":""190""}","rating","tcd","repulsion_2","2","televisions","null","null","null","null","null","null","1","30","40","20","100","90","100","Screen size","Average lifespan","",""
"","","","","","rating_trial_setup","html-keyboard-response","13","212576","0.0-3.0-0.5","170","1","2025-04-14 14:24:58","bb671e3ae32f654b8954ea4c4635f915","","Mozilla/5.0 (X11; CrOS x86_64 14541.0.0) AppleWebKit/537.36 (KHTML, like Gecko) Chrome/134.0.0.0 Safari/537.36","WebKit","Chrome","134.0.0.0","ChromeOS","14541.0.0","https://hz8g1ckzuq.cognition.run/","en-US,en;q=0.9","tabceha9dmsr4vf","30","[""Other""]","Yes","Male","1789461.3000000007","null","","<p></p>","null","rating","dtc","repulsion_1","1","televisions","null","null","null","null","null","null","2","","","","","","","","","",""
"","","","","","rating_trial","survey-html-form","14","222910","0.0-3.0-1.5","170","1","2025-04-14 14:24:58","bb671e3ae32f654b8954ea4c4635f915","","Mozilla/5.0 (X11; CrOS x86_64 14541.0.0) AppleWebKit/537.36 (KHTML, like Gecko) Chrome/134.0.0.0 Safari/537.36","WebKit","Chrome","134.0.0.0","ChromeOS","14541.0.0","https://hz8g1ckzuq.cognition.run/","en-US,en;q=0.9","tabceha9dmsr4vf","30","[""Other""]","Yes","Male","1789461.3000000007","10333","","","{""price_1"":""190"",""price_2"":""200"",""price_3"":""220""}","rating","dtc","repulsion_1","1","televisions","null","null","null","null","null","null","2","100","90","100","30","40","25","Screen size","Average lifespan","",""
"","","","","","rating_trial_setup","html-keyboard-response","15","223214","0.0-3.0-0.6","170","1","2025-04-14 14:24:58","bb671e3ae32f654b8954ea4c4635f915","","Mozilla/5.0 (X11; CrOS x86_64 14541.0.0) AppleWebKit/537.36 (KHTML, like Gecko) Chrome/134.0.0.0 Safari/537.36","WebKit","Chrome","134.0.0.0","ChromeOS","14541.0.0","https://hz8g1ckzuq.cognition.run/","en-US,en;q=0.9","tabceha9dmsr4vf","30","[""Other""]","Yes","Male","1789461.3000000007","null","","<p></p>","null","rating","wwb","catch","null","televisions","75","90","30","5","45","35","2","","","","","","","","","",""
"","","","","","rating_trial","survey-html-form","16","252898","0.0-3.0-1.6","170","1","2025-04-14 14:24:58","bb671e3ae32f654b8954ea4c4635f915","","Mozilla/5.0 (X11; CrOS x86_64 14541.0.0) AppleWebKit/537.36 (KHTML, like Gecko) Chrome/134.0.0.0 Safari/537.36","WebKit","Chrome","134.0.0.0","ChromeOS","14541.0.0","https://hz8g1ckzuq.cognition.run/","en-US,en;q=0.9","tabceha9dmsr4vf","30","[""Other""]","Yes","Male","1789461.3000000007","29682","","","{""price_1"":""175"",""price_2"":""185"",""price_3"":""200""}","rating","wwb","catch","null","televisions","75","90","30","5","45","35","2","null","null","null","null","null","null","Screen size","Average lifespan","",""
"","","","","","rating_trial_setup","html-keyboard-response","17","253200","0.0-3.0-0.7","170","1","2025-04-14 14:24:58","bb671e3ae32f654b8954ea4c4635f915","","Mozilla/5.0 (X11; CrOS x86_64 14541.0.0) AppleWebKit/537.36 (KHTML, like Gecko) Chrome/134.0.0.0 Safari/537.36","WebKit","Chrome","134.0.0.0","ChromeOS","14541.0.0","https://hz8g1ckzuq.cognition.run/","en-US,en;q=0.9","tabceha9dmsr4vf","30","[""Other""]","Yes","Male","1789461.3000000007","null","","<p></p>","null","rating","dtc","attraction_2","2","washing machines","null","null","null","null","null","null","1","","","","","","","","","",""
"","","","","","rating_trial","survey-html-form","18","275461","0.0-3.0-1.7","170","1","2025-04-14 14:24:58","bb671e3ae32f654b8954ea4c4635f915","","Mozilla/5.0 (X11; CrOS x86_64 14541.0.0) AppleWebKit/537.36 (KHTML, like Gecko) Chrome/134.0.0.0 Safari/537.36","WebKit","Chrome","134.0.0.0","ChromeOS","14541.0.0","https://hz8g1ckzuq.cognition.run/","en-US,en;q=0.9","tabceha9dmsr4vf","30","[""Other""]","Yes","Male","1789461.3000000007","22260","","","{""price_1"":""210"",""price_2"":""210"",""price_3"":""200""}","rating","dtc","attraction_2","2","washing machines","null","null","null","null","null","null","1","50","60","40","60","50","60","Average lifespan","Energy savings","",""
"","","","","","rating_trial_setup","html-keyboard-response","19","275763","0.0-3.0-0.8","170","1","2025-04-14 14:24:58","bb671e3ae32f654b8954ea4c4635f915","","Mozilla/5.0 (X11; CrOS x86_64 14541.0.0) AppleWebKit/537.36 (KHTML, like Gecko) Chrome/134.0.0.0 Safari/537.36","WebKit","Chrome","134.0.0.0","ChromeOS","14541.0.0","https://hz8g1ckzuq.cognition.run/","en-US,en;q=0.9","tabceha9dmsr4vf","30","[""Other""]","Yes","Male","1789461.3000000007","null","","<p></p>","null","rating","cdt","attraction_1","1","microwave ovens","null","null","null","null","null","null","1","","","","","","","","","",""
"","","","","","rating_trial","survey-html-form","20","289842","0.0-3.0-1.8","170","1","2025-04-14 14:24:58","bb671e3ae32f654b8954ea4c4635f915","","Mozilla/5.0 (X11; CrOS x86_64 14541.0.0) AppleWebKit/537.36 (KHTML, like Gecko) Chrome/134.0.0.0 Safari/537.36","WebKit","Chrome","134.0.0.0","ChromeOS","14541.0.0","https://hz8g1ckzuq.cognition.run/","en-US,en;q=0.9","tabceha9dmsr4vf","30","[""Other""]","Yes","Male","1789461.3000000007","14077","","","{""price_1"":""100"",""price_2"":""65"",""price_3"":""75""}","rating","cdt","attraction_1","1","microwave ovens","null","null","null","null","null","null","1","60","50","60","50","60","45","Warranty","Cooking power","",""
"","","","","","rating_trial_setup","html-keyboard-response","21","290145","0.0-3.0-0.9","170","1","2025-04-14 14:24:58","bb671e3ae32f654b8954ea4c4635f915","","Mozilla/5.0 (X11; CrOS x86_64 14541.0.0) AppleWebKit/537.36 (KHTML, like Gecko) Chrome/134.0.0.0 Safari/537.36","WebKit","Chrome","134.0.0.0","ChromeOS","14541.0.0","https://hz8g1ckzuq.cognition.run/","en-US,en;q=0.9","tabceha9dmsr4vf","30","[""Other""]","Yes","Male","1789461.3000000007","null","","<p></p>","null","rating","dct","repulsion_1","2","microwave ovens","null","null","null","null","null","null","1","","","","","","","","","",""
"","","","","","rating_trial","survey-html-form","22","299396","0.0-3.0-1.9","170","1","2025-04-14 14:24:58","bb671e3ae32f654b8954ea4c4635f915","","Mozilla/5.0 (X11; CrOS x86_64 14541.0.0) AppleWebKit/537.36 (KHTML, like Gecko) Chrome/134.0.0.0 Safari/537.36","WebKit","Chrome","134.0.0.0","ChromeOS","14541.0.0","https://hz8g1ckzuq.cognition.run/","en-US,en;q=0.9","tabceha9dmsr4vf","30","[""Other""]","Yes","Male","1789461.3000000007","9249","","","{""price_1"":""120"",""price_2"":""100"",""price_3"":""120""}","rating","dct","repulsion_1","2","microwave ovens","null","null","null","null","null","null","1","30","40","25","100","90","100","Warranty","Cooking power","",""
"","","","","","rating_trial_setup","html-keyboard-response","23","299698","0.0-3.0-0.10","170","1","2025-04-14 14:24:58","bb671e3ae32f654b8954ea4c4635f915","","Mozilla/5.0 (X11; CrOS x86_64 14541.0.0) AppleWebKit/537.36 (KHTML, like Gecko) Chrome/134.0.0.0 Safari/537.36","WebKit","Chrome","134.0.0.0","ChromeOS","14541.0.0","https://hz8g1ckzuq.cognition.run/","en-US,en;q=0.9","tabceha9dmsr4vf","30","[""Other""]","Yes","Male","1789461.3000000007","null","","<p></p>","null","rating","tdc","attraction_2","2","televisions","null","null","null","null","null","null","2","","","","","","","","","",""
"","","","","","rating_trial","survey-html-form","24","314315","0.0-3.0-1.10","170","1","2025-04-14 14:24:58","bb671e3ae32f654b8954ea4c4635f915","","Mozilla/5.0 (X11; CrOS x86_64 14541.0.0) AppleWebKit/537.36 (KHTML, like Gecko) Chrome/134.0.0.0 Safari/537.36","WebKit","Chrome","134.0.0.0","ChromeOS","14541.0.0","https://hz8g1ckzuq.cognition.run/","en-US,en;q=0.9","tabceha9dmsr4vf","30","[""Other""]","Yes","Male","1789461.3000000007","14616","","","{""price_1"":""200"",""price_2"":""180"",""price_3"":""220""}","rating","tdc","attraction_2","2","televisions","null","null","null","null","null","null","2","50","60","40","60","50","60","Screen size","Average lifespan","",""
"","","","","","rating_trial_setup","html-keyboard-response","25","314618","0.0-3.0-0.11","170","1","2025-04-14 14:24:58","bb671e3ae32f654b8954ea4c4635f915","","Mozilla/5.0 (X11; CrOS x86_64 14541.0.0) AppleWebKit/537.36 (KHTML, like Gecko) Chrome/134.0.0.0 Safari/537.36","WebKit","Chrome","134.0.0.0","ChromeOS","14541.0.0","https://hz8g1ckzuq.cognition.run/","en-US,en;q=0.9","tabceha9dmsr4vf","30","[""Other""]","Yes","Male","1789461.3000000007","null","","<p></p>","null","rating","dtc","attraction_1","1","televisions","null","null","null","null","null","null","1","","","","","","","","","",""
"","","","","","rating_trial","survey-html-form","26","351604","0.0-3.0-1.11","170","1","2025-04-14 14:24:58","bb671e3ae32f654b8954ea4c4635f915","","Mozilla/5.0 (X11; CrOS x86_64 14541.0.0) AppleWebKit/537.36 (KHTML, like Gecko) Chrome/134.0.0.0 Safari/537.36","WebKit","Chrome","134.0.0.0","ChromeOS","14541.0.0","https://hz8g1ckzuq.cognition.run/","en-US,en;q=0.9","tabceha9dmsr4vf","30","[""Other""]","Yes","Male","1789461.3000000007","36983","","","{""price_1"":""200"",""price_2"":""210"",""price_3"":""190""}","rating","dtc","attraction_1","1","televisions","null","null","null","null","null","null","1","60","50","60","50","60","45","Screen size","Average lifespan","",""
"","","","","","rating_trial_setup","html-keyboard-response","27","351907","0.0-3.0-0.12","170","1","2025-04-14 14:24:58","bb671e3ae32f654b8954ea4c4635f915","","Mozilla/5.0 (X11; CrOS x86_64 14541.0.0) AppleWebKit/537.36 (KHTML, like Gecko) Chrome/134.0.0.0 Safari/537.36","WebKit","Chrome","134.0.0.0","ChromeOS","14541.0.0","https://hz8g1ckzuq.cognition.run/","en-US,en;q=0.9","tabceha9dmsr4vf","30","[""Other""]","Yes","Male","1789461.3000000007","null","","<p></p>","null","rating","ctd","repulsion_2","1","microwave ovens","null","null","null","null","null","null","1","","","","","","","","","",""
"","","","","","rating_trial","survey-html-form","28","366113","0.0-3.0-1.12","170","1","2025-04-14 14:24:58","bb671e3ae32f654b8954ea4c4635f915","","Mozilla/5.0 (X11; CrOS x86_64 14541.0.0) AppleWebKit/537.36 (KHTML, like Gecko) Chrome/134.0.0.0 Safari/537.36","WebKit","Chrome","134.0.0.0","ChromeOS","14541.0.0","https://hz8g1ckzuq.cognition.run/","en-US,en;q=0.9","tabceha9dmsr4vf","30","[""Other""]","Yes","Male","1789461.3000000007","14204","","","{""price_1"":""75"",""price_2"":""65"",""price_3"":""60""}","rating","ctd","repulsion_2","1","microwave ovens","null","null","null","null","null","null","1","100","90","100","30","40","20","Warranty","Cooking power","",""
"","","","","","rating_trial_setup","html-keyboard-response","29","366416","0.0-3.0-0.13","170","1","2025-04-14 14:24:58","bb671e3ae32f654b8954ea4c4635f915","","Mozilla/5.0 (X11; CrOS x86_64 14541.0.0) AppleWebKit/537.36 (KHTML, like Gecko) Chrome/134.0.0.0 Safari/537.36","WebKit","Chrome","134.0.0.0","ChromeOS","14541.0.0","https://hz8g1ckzuq.cognition.run/","en-US,en;q=0.9","tabceha9dmsr4vf","30","[""Other""]","Yes","Male","1789461.3000000007","null","","<p></p>","null","rating","tdc","attraction_1","2","washing machines","null","null","null","null","null","null","1","","","","","","","","","",""
"","","","","","rating_trial","survey-html-form","30","378420","0.0-3.0-1.13","170","1","2025-04-14 14:24:58","bb671e3ae32f654b8954ea4c4635f915","","Mozilla/5.0 (X11; CrOS x86_64 14541.0.0) AppleWebKit/537.36 (KHTML, like Gecko) Chrome/134.0.0.0 Safari/537.36","WebKit","Chrome","134.0.0.0","ChromeOS","14541.0.0","https://hz8g1ckzuq.cognition.run/","en-US,en;q=0.9","tabceha9dmsr4vf","30","[""Other""]","Yes","Male","1789461.3000000007","12002","","","{""price_1"":""200"",""price_2"":""200"",""price_3"":""190""}","rating","tdc","attraction_1","2","washing machines","null","null","null","null","null","null","1","50","60","45","60","50","60","Average lifespan","Energy savings","",""
"","","","","","rating_trial_setup","html-keyboard-response","31","378723","0.0-3.0-0.14","170","1","2025-04-14 14:24:58","bb671e3ae32f654b8954ea4c4635f915","","Mozilla/5.0 (X11; CrOS x86_64 14541.0.0) AppleWebKit/537.36 (KHTML, like Gecko) Chrome/134.0.0.0 Safari/537.36","WebKit","Chrome","134.0.0.0","ChromeOS","14541.0.0","https://hz8g1ckzuq.cognition.run/","en-US,en;q=0.9","tabceha9dmsr4vf","30","[""Other""]","Yes","Male","1789461.3000000007","null","","<p></p>","null","rating","wbw","catch","null","washing machines","60","85","50","20","35","50","2","","","","","","","","","",""
"","","","","","rating_trial","survey-html-form","32","397593","0.0-3.0-1.14","170","1","2025-04-14 14:24:58","bb671e3ae32f654b8954ea4c4635f915","","Mozilla/5.0 (X11; CrOS x86_64 14541.0.0) AppleWebKit/537.36 (KHTML, like Gecko) Chrome/134.0.0.0 Safari/537.36","WebKit","Chrome","134.0.0.0","ChromeOS","14541.0.0","https://hz8g1ckzuq.cognition.run/","en-US,en;q=0.9","tabceha9dmsr4vf","30","[""Other""]","Yes","Male","1789461.3000000007","18868","","","{""price_1"":""200"",""price_2"":""210"",""price_3"":""150""}","rating","wbw","catch","null","washing machines","60","85","50","20","35","50","2","null","null","null","null","null","null","Average lifespan","Energy savings","",""
"","","","","","rating_trial_setup","html-keyboard-response","33","397897","0.0-3.0-0.15","170","1","2025-04-14 14:24:58","bb671e3ae32f654b8954ea4c4635f915","","Mozilla/5.0 (X11; CrOS x86_64 14541.0.0) AppleWebKit/537.36 (KHTML, like Gecko) Chrome/134.0.0.0 Safari/537.36","WebKit","Chrome","134.0.0.0","ChromeOS","14541.0.0","https://hz8g1ckzuq.cognition.run/","en-US,en;q=0.9","tabceha9dmsr4vf","30","[""Other""]","Yes","Male","1789461.3000000007","null","","<p></p>","null","rating","ctd","attraction_2","2","microwave ovens","null","null","null","null","null","null","2","","","","","","","","","",""
"","","","","","rating_trial","survey-html-form","34","413860","0.0-3.0-1.15","170","1","2025-04-14 14:24:58","bb671e3ae32f654b8954ea4c4635f915","","Mozilla/5.0 (X11; CrOS x86_64 14541.0.0) AppleWebKit/537.36 (KHTML, like Gecko) Chrome/134.0.0.0 Safari/537.36","WebKit","Chrome","134.0.0.0","ChromeOS","14541.0.0","https://hz8g1ckzuq.cognition.run/","en-US,en;q=0.9","tabceha9dmsr4vf","30","[""Other""]","Yes","Male","1789461.3000000007","15961","","","{""price_1"":""55"",""price_2"":""60"",""price_3"":""50""}","rating","ctd","attraction_2","2","microwave ovens","null","null","null","null","null","null","2","50","60","40","60","50","60","Warranty","Cooking power","",""
"","","","","","rating_trial_setup","html-keyboard-response","35","414163","0.0-3.0-0.16","170","1","2025-04-14 14:24:58","bb671e3ae32f654b8954ea4c4635f915","","Mozilla/5.0 (X11; CrOS x86_64 14541.0.0) AppleWebKit/537.36 (KHTML, like Gecko) Chrome/134.0.0.0 Safari/537.36","WebKit","Chrome","134.0.0.0","ChromeOS","14541.0.0","https://hz8g1ckzuq.cognition.run/","en-US,en;q=0.9","tabceha9dmsr4vf","30","[""Other""]","Yes","Male","1789461.3000000007","null","","<p></p>","null","rating","tdc","attraction_1","1","laptops","null","null","null","null","null","null","2","","","","","","","","","",""
"","","","","","rating_trial","survey-html-form","36","434352","0.0-3.0-1.16","170","1","2025-04-14 14:24:58","bb671e3ae32f654b8954ea4c4635f915","","Mozilla/5.0 (X11; CrOS x86_64 14541.0.0) AppleWebKit/537.36 (KHTML, like Gecko) Chrome/134.0.0.0 Safari/537.36","WebKit","Chrome","134.0.0.0","ChromeOS","14541.0.0","https://hz8g1ckzuq.cognition.run/","en-US,en;q=0.9","tabceha9dmsr4vf","30","[""Other""]","Yes","Male","1789461.3000000007","20187","","","{""price_1"":""180"",""price_2"":""150"",""price_3"":""160""}","rating","tdc","attraction_1","1","laptops","null","null","null","null","null","null","2","60","50","60","50","60","45","Processing speed","Memory (RAM)","",""
"","","","","","rating_trial_setup","html-keyboard-response","37","434655","0.0-3.0-0.17","170","1","2025-04-14 14:24:58","bb671e3ae32f654b8954ea4c4635f915","","Mozilla/5.0 (X11; CrOS x86_64 14541.0.0) AppleWebKit/537.36 (KHTML, like Gecko) Chrome/134.0.0.0 Safari/537.36","WebKit","Chrome","134.0.0.0","ChromeOS","14541.0.0","https://hz8g1ckzuq.cognition.run/","en-US,en;q=0.9","tabceha9dmsr4vf","30","[""Other""]","Yes","Male","1789461.3000000007","null","","<p></p>","null","rating","cdt","repulsion_1","2","washing machines","null","null","null","null","null","null","2","","","","","","","","","",""
"","","","","","rating_trial","survey-html-form","38","446176","0.0-3.0-1.17","170","1","2025-04-14 14:24:58","bb671e3ae32f654b8954ea4c4635f915","","Mozilla/5.0 (X11; CrOS x86_64 14541.0.0) AppleWebKit/537.36 (KHTML, like Gecko) Chrome/134.0.0.0 Safari/537.36","WebKit","Chrome","134.0.0.0","ChromeOS","14541.0.0","https://hz8g1ckzuq.cognition.run/","en-US,en;q=0.9","tabceha9dmsr4vf","30","[""Other""]","Yes","Male","1789461.3000000007","11519","","","{""price_1"":""190"",""price_2"":""200"",""price_3"":""210""}","rating","cdt","repulsion_1","2","washing machines","null","null","null","null","null","null","2","30","40","25","100","90","100","Average lifespan","Energy savings","",""
"","","","","","rating_trial_setup","html-keyboard-response","39","446478","0.0-3.0-0.18","170","1","2025-04-14 14:24:58","bb671e3ae32f654b8954ea4c4635f915","","Mozilla/5.0 (X11; CrOS x86_64 14541.0.0) AppleWebKit/537.36 (KHTML, like Gecko) Chrome/134.0.0.0 Safari/537.36","WebKit","Chrome","134.0.0.0","ChromeOS","14541.0.0","https://hz8g1ckzuq.cognition.run/","en-US,en;q=0.9","tabceha9dmsr4vf","30","[""Other""]","Yes","Male","1789461.3000000007","null","","<p></p>","null","rating","ctd","repulsion_1","2","laptops","null","null","null","null","null","null","2","","","","","","","","","",""
"","","","","","rating_trial","survey-html-form","40","462889","0.0-3.0-1.18","170","1","2025-04-14 14:24:58","bb671e3ae32f654b8954ea4c4635f915","","Mozilla/5.0 (X11; CrOS x86_64 14541.0.0) AppleWebKit/537.36 (KHTML, like Gecko) Chrome/134.0.0.0 Safari/537.36","WebKit","Chrome","134.0.0.0","ChromeOS","14541.0.0","https://hz8g1ckzuq.cognition.run/","en-US,en;q=0.9","tabceha9dmsr4vf","30","[""Other""]","Yes","Male","1789461.3000000007","16409","","","{""price_1"":""180"",""price_2"":""200"",""price_3"":""175""}","rating","ctd","repulsion_1","2","laptops","null","null","null","null","null","null","2","30","40","25","100","90","100","Processing speed","Memory (RAM)","",""
"","","","","","rating_trial_setup","html-keyboard-response","41","463193","0.0-3.0-0.19","170","1","2025-04-14 14:24:58","bb671e3ae32f654b8954ea4c4635f915","","Mozilla/5.0 (X11; CrOS x86_64 14541.0.0) AppleWebKit/537.36 (KHTML, like Gecko) Chrome/134.0.0.0 Safari/537.36","WebKit","Chrome","134.0.0.0","ChromeOS","14541.0.0","https://hz8g1ckzuq.cognition.run/","en-US,en;q=0.9","tabceha9dmsr4vf","30","[""Other""]","Yes","Male","1789461.3000000007","null","","<p></p>","null","rating","wbw","catch","null","microwave ovens","95","80","50","5","15","15","1","","","","","","","","","",""
"","","","","","rating_trial","survey-html-form","42","477300","0.0-3.0-1.19","170","1","2025-04-14 14:24:58","bb671e3ae32f654b8954ea4c4635f915","","Mozilla/5.0 (X11; CrOS x86_64 14541.0.0) AppleWebKit/537.36 (KHTML, like Gecko) Chrome/134.0.0.0 Safari/537.36","WebKit","Chrome","134.0.0.0","ChromeOS","14541.0.0","https://hz8g1ckzuq.cognition.run/","en-US,en;q=0.9","tabceha9dmsr4vf","30","[""Other""]","Yes","Male","1789461.3000000007","14104","","","{""price_1"":""20"",""price_2"":""40"",""price_3"":""15""}","rating","wbw","catch","null","microwave ovens","95","80","50","5","15","15","1","null","null","null","null","null","null","Warranty","Cooking power","",""
"","","","","","rating_trial_setup","html-keyboard-response","43","477602","0.0-3.0-0.20","170","1","2025-04-14 14:24:58","bb671e3ae32f654b8954ea4c4635f915","","Mozilla/5.0 (X11; CrOS x86_64 14541.0.0) AppleWebKit/537.36 (KHTML, like Gecko) Chrome/134.0.0.0 Safari/537.36","WebKit","Chrome","134.0.0.0","ChromeOS","14541.0.0","https://hz8g1ckzuq.cognition.run/","en-US,en;q=0.9","tabceha9dmsr4vf","30","[""Other""]","Yes","Male","1789461.3000000007","null","","<p></p>","null","rating","tdc","attraction_2","1","microwave ovens","null","null","null","null","null","null","2","","","","","","","","","",""
"","","","","","rating_trial","survey-html-form","44","497145","0.0-3.0-1.20","170","1","2025-04-14 14:24:58","bb671e3ae32f654b8954ea4c4635f915","","Mozilla/5.0 (X11; CrOS x86_64 14541.0.0) AppleWebKit/537.36 (KHTML, like Gecko) Chrome/134.0.0.0 Safari/537.36","WebKit","Chrome","134.0.0.0","ChromeOS","14541.0.0","https://hz8g1ckzuq.cognition.run/","en-US,en;q=0.9","tabceha9dmsr4vf","30","[""Other""]","Yes","Male","1789461.3000000007","19540","","","{""price_1"":""55"",""price_2"":""40"",""price_3"":""60""}","rating","tdc","attraction_2","1","microwave ovens","null","null","null","null","null","null","2","60","50","60","50","60","40","Warranty","Cooking power","",""
"","","","","","rating_trial_setup","html-keyboard-response","45","497447","0.0-3.0-0.21","170","1","2025-04-14 14:24:58","bb671e3ae32f654b8954ea4c4635f915","","Mozilla/5.0 (X11; CrOS x86_64 14541.0.0) AppleWebKit/537.36 (KHTML, like Gecko) Chrome/134.0.0.0 Safari/537.36","WebKit","Chrome","134.0.0.0","ChromeOS","14541.0.0","https://hz8g1ckzuq.cognition.run/","en-US,en;q=0.9","tabceha9dmsr4vf","30","[""Other""]","Yes","Male","1789461.3000000007","null","","<p></p>","null","rating","ctd","attraction_2","2","laptops","null","null","null","null","null","null","1","","","","","","","","","",""
"","","","","","rating_trial","survey-html-form","46","513157","0.0-3.0-1.21","170","1","2025-04-14 14:24:58","bb671e3ae32f654b8954ea4c4635f915","","Mozilla/5.0 (X11; CrOS x86_64 14541.0.0) AppleWebKit/537.36 (KHTML, like Gecko) Chrome/134.0.0.0 Safari/537.36","WebKit","Chrome","134.0.0.0","ChromeOS","14541.0.0","https://hz8g1ckzuq.cognition.run/","en-US,en;q=0.9","tabceha9dmsr4vf","30","[""Other""]","Yes","Male","1789461.3000000007","15708","","","{""price_1"":""200"",""price_2"":""190"",""price_3"":""180""}","rating","ctd","attraction_2","2","laptops","null","null","null","null","null","null","1","50","60","40","60","50","60","Processing speed","Memory (RAM)","",""
"","","","","","rating_trial_setup","html-keyboard-response","47","513460","0.0-3.0-0.22","170","1","2025-04-14 14:24:58","bb671e3ae32f654b8954ea4c4635f915","","Mozilla/5.0 (X11; CrOS x86_64 14541.0.0) AppleWebKit/537.36 (KHTML, like Gecko) Chrome/134.0.0.0 Safari/537.36","WebKit","Chrome","134.0.0.0","ChromeOS","14541.0.0","https://hz8g1ckzuq.cognition.run/","en-US,en;q=0.9","tabceha9dmsr4vf","30","[""Other""]","Yes","Male","1789461.3000000007","null","","<p></p>","null","rating","bww","catch","null","laptops","95","55","30","10","40","5","2","","","","","","","","","",""
"","","","","","rating_trial","survey-html-form","48","528187","0.0-3.0-1.22","170","1","2025-04-14 14:24:58","bb671e3ae32f654b8954ea4c4635f915","","Mozilla/5.0 (X11; CrOS x86_64 14541.0.0) AppleWebKit/537.36 (KHTML, like Gecko) Chrome/134.0.0.0 Safari/537.36","WebKit","Chrome","134.0.0.0","ChromeOS","14541.0.0","https://hz8g1ckzuq.cognition.run/","en-US,en;q=0.9","tabceha9dmsr4vf","30","[""Other""]","Yes","Male","1789461.3000000007","14725","","","{""price_1"":""200"",""price_2"":""100"",""price_3"":""75""}","rating","bww","catch","null","laptops","95","55","30","10","40","5","2","null","null","null","null","null","null","Processing speed","Memory (RAM)","",""
"","","","","","rating_trial_setup","html-keyboard-response","49","528492","0.0-3.0-0.23","170","1","2025-04-14 14:24:58","bb671e3ae32f654b8954ea4c4635f915","","Mozilla/5.0 (X11; CrOS x86_64 14541.0.0) AppleWebKit/537.36 (KHTML, like Gecko) Chrome/134.0.0.0 Safari/537.36","WebKit","Chrome","134.0.0.0","ChromeOS","14541.0.0","https://hz8g1ckzuq.cognition.run/","en-US,en;q=0.9","tabceha9dmsr4vf","30","[""Other""]","Yes","Male","1789461.3000000007","null","","<p></p>","null","rating","tdc","repulsion_2","1","laptops","null","null","null","null","null","null","1","","","","","","","","","",""
"","","","","","rating_trial","survey-html-form","50","539808","0.0-3.0-1.23","170","1","2025-04-14 14:24:58","bb671e3ae32f654b8954ea4c4635f915","","Mozilla/5.0 (X11; CrOS x86_64 14541.0.0) AppleWebKit/537.36 (KHTML, like Gecko) Chrome/134.0.0.0 Safari/537.36","WebKit","Chrome","134.0.0.0","ChromeOS","14541.0.0","https://hz8g1ckzuq.cognition.run/","en-US,en;q=0.9","tabceha9dmsr4vf","30","[""Other""]","Yes","Male","1789461.3000000007","11314","","","{""price_1"":""200"",""price_2"":""200"",""price_3"":""180""}","rating","tdc","repulsion_2","1","laptops","null","null","null","null","null","null","1","100","90","100","30","40","20","Processing speed","Memory (RAM)","",""
"","","","","","rating_trial_setup","html-keyboard-response","51","540112","0.0-3.0-0.24","170","1","2025-04-14 14:24:58","bb671e3ae32f654b8954ea4c4635f915","","Mozilla/5.0 (X11; CrOS x86_64 14541.0.0) AppleWebKit/537.36 (KHTML, like Gecko) Chrome/134.0.0.0 Safari/537.36","WebKit","Chrome","134.0.0.0","ChromeOS","14541.0.0","https://hz8g1ckzuq.cognition.run/","en-US,en;q=0.9","tabceha9dmsr4vf","30","[""Other""]","Yes","Male","1789461.3000000007","null","","<p></p>","null","rating","wwb","catch","null","washing machines","55","95","25","50","25","40","1","","","","","","","","","",""
"","","","","","rating_trial","survey-html-form","52","561529","0.0-3.0-1.24","170","1","2025-04-14 14:24:58","bb671e3ae32f654b8954ea4c4635f915","","Mozilla/5.0 (X11; CrOS x86_64 14541.0.0) AppleWebKit/537.36 (KHTML, like Gecko) Chrome/134.0.0.0 Safari/537.36","WebKit","Chrome","134.0.0.0","ChromeOS","14541.0.0","https://hz8g1ckzuq.cognition.run/","en-US,en;q=0.9","tabceha9dmsr4vf","30","[""Other""]","Yes","Male","1789461.3000000007","21415","","","{""price_1"":""200"",""price_2"":""210"",""price_3"":""300""}","rating","wwb","catch","null","washing machines","55","95","25","50","25","40","1","null","null","null","null","null","null","Average lifespan","Energy savings","",""
"","","","","","rating_trial_setup","html-keyboard-response","53","561832","0.0-3.0-0.25","170","1","2025-04-14 14:24:58","bb671e3ae32f654b8954ea4c4635f915","","Mozilla/5.0 (X11; CrOS x86_64 14541.0.0) AppleWebKit/537.36 (KHTML, like Gecko) Chrome/134.0.0.0 Safari/537.36","WebKit","Chrome","134.0.0.0","ChromeOS","14541.0.0","https://hz8g1ckzuq.cognition.run/","en-US,en;q=0.9","tabceha9dmsr4vf","30","[""Other""]","Yes","Male","1789461.3000000007","null","","<p></p>","null","rating","cdt","repulsion_2","2","microwave ovens","null","null","null","null","null","null","2","","","","","","","","","",""
"","","","","","rating_trial","survey-html-form","54","582397","0.0-3.0-1.25","170","1","2025-04-14 14:24:58","bb671e3ae32f654b8954ea4c4635f915","","Mozilla/5.0 (X11; CrOS x86_64 14541.0.0) AppleWebKit/537.36 (KHTML, like Gecko) Chrome/134.0.0.0 Safari/537.36","WebKit","Chrome","134.0.0.0","ChromeOS","14541.0.0","https://hz8g1ckzuq.cognition.run/","en-US,en;q=0.9","tabceha9dmsr4vf","30","[""Other""]","Yes","Male","1789461.3000000007","20563","","","{""price_1"":""75"",""price_2"":""90"",""price_3"":""95""}","rating","cdt","repulsion_2","2","microwave ovens","null","null","null","null","null","null","2","30","40","20","100","90","100","Warranty","Cooking power","",""
"","","","","","rating_trial_setup","html-keyboard-response","55","582700","0.0-3.0-0.26","170","1","2025-04-14 14:24:58","bb671e3ae32f654b8954ea4c4635f915","","Mozilla/5.0 (X11; CrOS x86_64 14541.0.0) AppleWebKit/537.36 (KHTML, like Gecko) Chrome/134.0.0.0 Safari/537.36","WebKit","Chrome","134.0.0.0","ChromeOS","14541.0.0","https://hz8g1ckzuq.cognition.run/","en-US,en;q=0.9","tabceha9dmsr4vf","30","[""Other""]","Yes","Male","1789461.3000000007","null","","<p></p>","null","rating","tcd","repulsion_2","1","washing machines","null","null","null","null","null","null","2","","","","","","","","","",""
"","","","","","rating_trial","survey-html-form","56","600291","0.0-3.0-1.26","170","1","2025-04-14 14:24:58","bb671e3ae32f654b8954ea4c4635f915","","Mozilla/5.0 (X11; CrOS x86_64 14541.0.0) AppleWebKit/537.36 (KHTML, like Gecko) Chrome/134.0.0.0 Safari/537.36","WebKit","Chrome","134.0.0.0","ChromeOS","14541.0.0","https://hz8g1ckzuq.cognition.run/","en-US,en;q=0.9","tabceha9dmsr4vf","30","[""Other""]","Yes","Male","1789461.3000000007","17589","","","{""price_1"":""180"",""price_2"":""200"",""price_3"":""175""}","rating","tcd","repulsion_2","1","washing machines","null","null","null","null","null","null","2","100","90","100","30","40","20","Average lifespan","Energy savings","",""
"","","","","","rating_trial_setup","html-keyboard-response","57","600595","0.0-3.0-0.27","170","1","2025-04-14 14:24:58","bb671e3ae32f654b8954ea4c4635f915","","Mozilla/5.0 (X11; CrOS x86_64 14541.0.0) AppleWebKit/537.36 (KHTML, like Gecko) Chrome/134.0.0.0 Safari/537.36","WebKit","Chrome","134.0.0.0","ChromeOS","14541.0.0","https://hz8g1ckzuq.cognition.run/","en-US,en;q=0.9","tabceha9dmsr4vf","30","[""Other""]","Yes","Male","1789461.3000000007","null","","<p></p>","null","rating","tcd","repulsion_2","1","televisions","null","null","null","null","null","null","2","","","","","","","","","",""
"","","","","","rating_trial","survey-html-form","58","621182","0.0-3.0-1.27","170","1","2025-04-14 14:24:58","bb671e3ae32f654b8954ea4c4635f915","","Mozilla/5.0 (X11; CrOS x86_64 14541.0.0) AppleWebKit/537.36 (KHTML, like Gecko) Chrome/134.0.0.0 Safari/537.36","WebKit","Chrome","134.0.0.0","ChromeOS","14541.0.0","https://hz8g1ckzuq.cognition.run/","en-US,en;q=0.9","tabceha9dmsr4vf","30","[""Other""]","Yes","Male","1789461.3000000007","20584","","","{""price_1"":""265"",""price_2"":""200"",""price_3"":""255""}","rating","tcd","repulsion_2","1","televisions","null","null","null","null","null","null","2","100","90","100","30","40","20","Screen size","Average lifespan","",""
"","","","","","rating_trial_setup","html-keyboard-response","59","621485","0.0-3.0-0.28","170","1","2025-04-14 14:24:58","bb671e3ae32f654b8954ea4c4635f915","","Mozilla/5.0 (X11; CrOS x86_64 14541.0.0) AppleWebKit/537.36 (KHTML, like Gecko) Chrome/134.0.0.0 Safari/537.36","WebKit","Chrome","134.0.0.0","ChromeOS","14541.0.0","https://hz8g1ckzuq.cognition.run/","en-US,en;q=0.9","tabceha9dmsr4vf","30","[""Other""]","Yes","Male","1789461.3000000007","null","","<p></p>","null","rating","tcd","attraction_2","1","laptops","null","null","null","null","null","null","2","","","","","","","","","",""
"","","","","","rating_trial","survey-html-form","60","636656","0.0-3.0-1.28","170","1","2025-04-14 14:24:58","bb671e3ae32f654b8954ea4c4635f915","","Mozilla/5.0 (X11; CrOS x86_64 14541.0.0) AppleWebKit/537.36 (KHTML, like Gecko) Chrome/134.0.0.0 Safari/537.36","WebKit","Chrome","134.0.0.0","ChromeOS","14541.0.0","https://hz8g1ckzuq.cognition.run/","en-US,en;q=0.9","tabceha9dmsr4vf","30","[""Other""]","Yes","Male","1789461.3000000007","15168","","","{""price_1"":""200"",""price_2"":""200"",""price_3"":""175""}","rating","tcd","attraction_2","1","laptops","null","null","null","null","null","null","2","60","50","60","50","60","40","Processing speed","Memory (RAM)","",""
"","","","","","rating_trial_setup","html-keyboard-response","61","636960","0.0-3.0-0.29","170","1","2025-04-14 14:24:58","bb671e3ae32f654b8954ea4c4635f915","","Mozilla/5.0 (X11; CrOS x86_64 14541.0.0) AppleWebKit/537.36 (KHTML, like Gecko) Chrome/134.0.0.0 Safari/537.36","WebKit","Chrome","134.0.0.0","ChromeOS","14541.0.0","https://hz8g1ckzuq.cognition.run/","en-US,en;q=0.9","tabceha9dmsr4vf","30","[""Other""]","Yes","Male","1789461.3000000007","null","","<p></p>","null","rating","wwb","catch","null","microwave ovens","65","55","20","45","20","40","1","","","","","","","","","",""
"","","","","","rating_trial","survey-html-form","62","648114","0.0-3.0-1.29","170","1","2025-04-14 14:24:58","bb671e3ae32f654b8954ea4c4635f915","","Mozilla/5.0 (X11; CrOS x86_64 14541.0.0) AppleWebKit/537.36 (KHTML, like Gecko) Chrome/134.0.0.0 Safari/537.36","WebKit","Chrome","134.0.0.0","ChromeOS","14541.0.0","https://hz8g1ckzuq.cognition.run/","en-US,en;q=0.9","tabceha9dmsr4vf","30","[""Other""]","Yes","Male","1789461.3000000007","11151","","","{""price_1"":""45"",""price_2"":""40"",""price_3"":""65""}","rating","wwb","catch","null","microwave ovens","65","55","20","45","20","40","1","null","null","null","null","null","null","Warranty","Cooking power","",""
"","","","","","rating_trial_setup","html-keyboard-response","63","648419","0.0-3.0-0.30","170","1","2025-04-14 14:24:58","bb671e3ae32f654b8954ea4c4635f915","","Mozilla/5.0 (X11; CrOS x86_64 14541.0.0) AppleWebKit/537.36 (KHTML, like Gecko) Chrome/134.0.0.0 Safari/537.36","WebKit","Chrome","134.0.0.0","ChromeOS","14541.0.0","https://hz8g1ckzuq.cognition.run/","en-US,en;q=0.9","tabceha9dmsr4vf","30","[""Other""]","Yes","Male","1789461.3000000007","null","","<p></p>","null","rating","dtc","attraction_2","1","televisions","null","null","null","null","null","null","1","","","","","","","","","",""
"","","","","","rating_trial","survey-html-form","64","669702","0.0-3.0-1.30","170","1","2025-04-14 14:24:58","bb671e3ae32f654b8954ea4c4635f915","","Mozilla/5.0 (X11; CrOS x86_64 14541.0.0) AppleWebKit/537.36 (KHTML, like Gecko) Chrome/134.0.0.0 Safari/537.36","WebKit","Chrome","134.0.0.0","ChromeOS","14541.0.0","https://hz8g1ckzuq.cognition.run/","en-US,en;q=0.9","tabceha9dmsr4vf","30","[""Other""]","Yes","Male","1789461.3000000007","21281","","","{""price_1"":""140"",""price_2"":""120"",""price_3"":""110""}","rating","dtc","attraction_2","1","televisions","null","null","null","null","null","null","1","60","50","60","50","60","40","Screen size","Average lifespan","",""
"","","","","","rating_trial_setup","html-keyboard-response","65","670005","0.0-3.0-0.31","170","1","2025-04-14 14:24:58","bb671e3ae32f654b8954ea4c4635f915","","Mozilla/5.0 (X11; CrOS x86_64 14541.0.0) AppleWebKit/537.36 (KHTML, like Gecko) Chrome/134.0.0.0 Safari/537.36","WebKit","Chrome","134.0.0.0","ChromeOS","14541.0.0","https://hz8g1ckzuq.cognition.run/","en-US,en;q=0.9","tabceha9dmsr4vf","30","[""Other""]","Yes","Male","1789461.3000000007","null","","<p></p>","null","rating","tdc","attraction_1","2","microwave ovens","null","null","null","null","null","null","1","","","","","","","","","",""
"","","","","","rating_trial","survey-html-form","66","683078","0.0-3.0-1.31","170","1","2025-04-14 14:24:58","bb671e3ae32f654b8954ea4c4635f915","","Mozilla/5.0 (X11; CrOS x86_64 14541.0.0) AppleWebKit/537.36 (KHTML, like Gecko) Chrome/134.0.0.0 Safari/537.36","WebKit","Chrome","134.0.0.0","ChromeOS","14541.0.0","https://hz8g1ckzuq.cognition.run/","en-US,en;q=0.9","tabceha9dmsr4vf","30","[""Other""]","Yes","Male","1789461.3000000007","13071","","","{""price_1"":""45"",""price_2"":""40"",""price_3"":""60""}","rating","tdc","attraction_1","2","microwave ovens","null","null","null","null","null","null","1","50","60","45","60","50","60","Warranty","Cooking power","",""
"","","","","","rating_trial_setup","html-keyboard-response","67","683383","0.0-3.0-0.32","170","1","2025-04-14 14:24:58","bb671e3ae32f654b8954ea4c4635f915","","Mozilla/5.0 (X11; CrOS x86_64 14541.0.0) AppleWebKit/537.36 (KHTML, like Gecko) Chrome/134.0.0.0 Safari/537.36","WebKit","Chrome","134.0.0.0","ChromeOS","14541.0.0","https://hz8g1ckzuq.cognition.run/","en-US,en;q=0.9","tabceha9dmsr4vf","30","[""Other""]","Yes","Male","1789461.3000000007","null","","<p></p>","null","rating","tdc","attraction_1","1","washing machines","null","null","null","null","null","null","1","","","","","","","","","",""
"","","","","","rating_trial","survey-html-form","68","702323","0.0-3.0-1.32","170","1","2025-04-14 14:24:58","bb671e3ae32f654b8954ea4c4635f915","","Mozilla/5.0 (X11; CrOS x86_64 14541.0.0) AppleWebKit/537.36 (KHTML, like Gecko) Chrome/134.0.0.0 Safari/537.36","WebKit","Chrome","134.0.0.0","ChromeOS","14541.0.0","https://hz8g1ckzuq.cognition.run/","en-US,en;q=0.9","tabceha9dmsr4vf","30","[""Other""]","Yes","Male","1789461.3000000007","18937","","","{""price_1"":""180"",""price_2"":""175"",""price_3"":""200""}","rating","tdc","attraction_1","1","washing machines","null","null","null","null","null","null","1","60","50","60","50","60","45","Average lifespan","Energy savings","",""
"","","","","","rating_trial_setup","html-keyboard-response","69","702626","0.0-3.0-0.33","170","1","2025-04-14 14:24:58","bb671e3ae32f654b8954ea4c4635f915","","Mozilla/5.0 (X11; CrOS x86_64 14541.0.0) AppleWebKit/537.36 (KHTML, like Gecko) Chrome/134.0.0.0 Safari/537.36","WebKit","Chrome","134.0.0.0","ChromeOS","14541.0.0","https://hz8g1ckzuq.cognition.run/","en-US,en;q=0.9","tabceha9dmsr4vf","30","[""Other""]","Yes","Male","1789461.3000000007","null","","<p></p>","null","rating","dct","repulsion_1","1","washing machines","null","null","null","null","null","null","2","","","","","","","","","",""
"","","","","","rating_trial","survey-html-form","70","717946","0.0-3.0-1.33","170","1","2025-04-14 14:24:58","bb671e3ae32f654b8954ea4c4635f915","","Mozilla/5.0 (X11; CrOS x86_64 14541.0.0) AppleWebKit/537.36 (KHTML, like Gecko) Chrome/134.0.0.0 Safari/537.36","WebKit","Chrome","134.0.0.0","ChromeOS","14541.0.0","https://hz8g1ckzuq.cognition.run/","en-US,en;q=0.9","tabceha9dmsr4vf","30","[""Other""]","Yes","Male","1789461.3000000007","15317","","","{""price_1"":""100"",""price_2"":""200"",""price_3"":""180""}","rating","dct","repulsion_1","1","washing machines","null","null","null","null","null","null","2","100","90","100","30","40","25","Average lifespan","Energy savings","",""
"","","","","","rating_trial_setup","html-keyboard-response","71","718251","0.0-3.0-0.34","170","1","2025-04-14 14:24:58","bb671e3ae32f654b8954ea4c4635f915","","Mozilla/5.0 (X11; CrOS x86_64 14541.0.0) AppleWebKit/537.36 (KHTML, like Gecko) Chrome/134.0.0.0 Safari/537.36","WebKit","Chrome","134.0.0.0","ChromeOS","14541.0.0","https://hz8g1ckzuq.cognition.run/","en-US,en;q=0.9","tabceha9dmsr4vf","30","[""Other""]","Yes","Male","1789461.3000000007","null","","<p></p>","null","rating","tdc","repulsion_2","2","washing machines","null","null","null","null","null","null","1","","","","","","","","","",""
"","","","","","rating_trial","survey-html-form","72","733960","0.0-3.0-1.34","170","1","2025-04-14 14:24:58","bb671e3ae32f654b8954ea4c4635f915","","Mozilla/5.0 (X11; CrOS x86_64 14541.0.0) AppleWebKit/537.36 (KHTML, like Gecko) Chrome/134.0.0.0 Safari/537.36","WebKit","Chrome","134.0.0.0","ChromeOS","14541.0.0","https://hz8g1ckzuq.cognition.run/","en-US,en;q=0.9","tabceha9dmsr4vf","30","[""Other""]","Yes","Male","1789461.3000000007","15707","","","{""price_1"":""300"",""price_2"":""300"",""price_3"":""280""}","rating","tdc","repulsion_2","2","washing machines","null","null","null","null","null","null","1","30","40","20","100","90","100","Average lifespan","Energy savings","",""
"","","","","","rating_trial_setup","html-keyboard-response","73","734265","0.0-3.0-0.35","170","1","2025-04-14 14:24:58","bb671e3ae32f654b8954ea4c4635f915","","Mozilla/5.0 (X11; CrOS x86_64 14541.0.0) AppleWebKit/537.36 (KHTML, like Gecko) Chrome/134.0.0.0 Safari/537.36","WebKit","Chrome","134.0.0.0","ChromeOS","14541.0.0","https://hz8g1ckzuq.cognition.run/","en-US,en;q=0.9","tabceha9dmsr4vf","30","[""Other""]","Yes","Male","1789461.3000000007","null","","<p></p>","null","rating","dtc","attraction_1","2","televisions","null","null","null","null","null","null","2","","","","","","","","","",""
"","","","","","rating_trial","survey-html-form","74","745925","0.0-3.0-1.35","170","1","2025-04-14 14:24:58","bb671e3ae32f654b8954ea4c4635f915","","Mozilla/5.0 (X11; CrOS x86_64 14541.0.0) AppleWebKit/537.36 (KHTML, like Gecko) Chrome/134.0.0.0 Safari/537.36","WebKit","Chrome","134.0.0.0","ChromeOS","14541.0.0","https://hz8g1ckzuq.cognition.run/","en-US,en;q=0.9","tabceha9dmsr4vf","30","[""Other""]","Yes","Male","1789461.3000000007","11656","","","{""price_1"":""120"",""price_2"":""150"",""price_3"":""170""}","rating","dtc","attraction_1","2","televisions","null","null","null","null","null","null","2","50","60","45","60","50","60","Screen size","Average lifespan","",""
"","","","","","rating_trial_setup","html-keyboard-response","75","746230","0.0-3.0-0.36","170","1","2025-04-14 14:24:58","bb671e3ae32f654b8954ea4c4635f915","","Mozilla/5.0 (X11; CrOS x86_64 14541.0.0) AppleWebKit/537.36 (KHTML, like Gecko) Chrome/134.0.0.0 Safari/537.36","WebKit","Chrome","134.0.0.0","ChromeOS","14541.0.0","https://hz8g1ckzuq.cognition.run/","en-US,en;q=0.9","tabceha9dmsr4vf","30","[""Other""]","Yes","Male","1789461.3000000007","null","","<p></p>","null","rating","ctd","attraction_1","2","laptops","null","null","null","null","null","null","2","","","","","","","","","",""
"","","","","","rating_trial","survey-html-form","76","761607","0.0-3.0-1.36","170","1","2025-04-14 14:24:58","bb671e3ae32f654b8954ea4c4635f915","","Mozilla/5.0 (X11; CrOS x86_64 14541.0.0) AppleWebKit/537.36 (KHTML, like Gecko) Chrome/134.0.0.0 Safari/537.36","WebKit","Chrome","134.0.0.0","ChromeOS","14541.0.0","https://hz8g1ckzuq.cognition.run/","en-US,en;q=0.9","tabceha9dmsr4vf","30","[""Other""]","Yes","Male","1789461.3000000007","15374","","","{""price_1"":""200"",""price_2"":""175"",""price_3"":""120""}","rating","ctd","attraction_1","2","laptops","null","null","null","null","null","null","2","50","60","45","60","50","60","Processing speed","Memory (RAM)","",""
"","","","","","rating_trial_setup","html-keyboard-response","77","761912","0.0-3.0-0.37","170","1","2025-04-14 14:24:58","bb671e3ae32f654b8954ea4c4635f915","","Mozilla/5.0 (X11; CrOS x86_64 14541.0.0) AppleWebKit/537.36 (KHTML, like Gecko) Chrome/134.0.0.0 Safari/537.36","WebKit","Chrome","134.0.0.0","ChromeOS","14541.0.0","https://hz8g1ckzuq.cognition.run/","en-US,en;q=0.9","tabceha9dmsr4vf","30","[""Other""]","Yes","Male","1789461.3000000007","null","","<p></p>","null","rating","bww","catch","null","televisions","50","85","35","30","10","15","2","","","","","","","","","",""
"","","","","","rating_trial","survey-html-form","78","776491","0.0-3.0-1.37","170","1","2025-04-14 14:24:58","bb671e3ae32f654b8954ea4c4635f915","","Mozilla/5.0 (X11; CrOS x86_64 14541.0.0) AppleWebKit/537.36 (KHTML, like Gecko) Chrome/134.0.0.0 Safari/537.36","WebKit","Chrome","134.0.0.0","ChromeOS","14541.0.0","https://hz8g1ckzuq.cognition.run/","en-US,en;q=0.9","tabceha9dmsr4vf","30","[""Other""]","Yes","Male","1789461.3000000007","14577","","","{""price_1"":""150"",""price_2"":""100"",""price_3"":""25""}","rating","bww","catch","null","televisions","50","85","35","30","10","15","2","null","null","null","null","null","null","Screen size","Average lifespan","",""
"","","","","","rating_trial_setup","html-keyboard-response","79","776794","0.0-3.0-0.38","170","1","2025-04-14 14:24:58","bb671e3ae32f654b8954ea4c4635f915","","Mozilla/5.0 (X11; CrOS x86_64 14541.0.0) AppleWebKit/537.36 (KHTML, like Gecko) Chrome/134.0.0.0 Safari/537.36","WebKit","Chrome","134.0.0.0","ChromeOS","14541.0.0","https://hz8g1ckzuq.cognition.run/","en-US,en;q=0.9","tabceha9dmsr4vf","30","[""Other""]","Yes","Male","1789461.3000000007","null","","<p></p>","null","rating","tdc","attraction_2","1","washing machines","null","null","null","null","null","null","1","","","","","","","","","",""
"","","","","","rating_trial","survey-html-form","80","790714","0.0-3.0-1.38","170","1","2025-04-14 14:24:58","bb671e3ae32f654b8954ea4c4635f915","","Mozilla/5.0 (X11; CrOS x86_64 14541.0.0) AppleWebKit/537.36 (KHTML, like Gecko) Chrome/134.0.0.0 Safari/537.36","WebKit","Chrome","134.0.0.0","ChromeOS","14541.0.0","https://hz8g1ckzuq.cognition.run/","en-US,en;q=0.9","tabceha9dmsr4vf","30","[""Other""]","Yes","Male","1789461.3000000007","13917","","","{""price_1"":""190"",""price_2"":""180"",""price_3"":""200""}","rating","tdc","attraction_2","1","washing machines","null","null","null","null","null","null","1","60","50","60","50","60","40","Average lifespan","Energy savings","",""
"","","","","","rating_trial_setup","html-keyboard-response","81","791017","0.0-3.0-0.39","170","1","2025-04-14 14:24:58","bb671e3ae32f654b8954ea4c4635f915","","Mozilla/5.0 (X11; CrOS x86_64 14541.0.0) AppleWebKit/537.36 (KHTML, like Gecko) Chrome/134.0.0.0 Safari/537.36","WebKit","Chrome","134.0.0.0","ChromeOS","14541.0.0","https://hz8g1ckzuq.cognition.run/","en-US,en;q=0.9","tabceha9dmsr4vf","30","[""Other""]","Yes","Male","1789461.3000000007","null","","<p></p>","null","rating","cdt","repulsion_2","2","laptops","null","null","null","null","null","null","1","","","","","","","","","",""
"","","","","","rating_trial","survey-html-form","82","810486","0.0-3.0-1.39","170","1","2025-04-14 14:24:58","bb671e3ae32f654b8954ea4c4635f915","","Mozilla/5.0 (X11; CrOS x86_64 14541.0.0) AppleWebKit/537.36 (KHTML, like Gecko) Chrome/134.0.0.0 Safari/537.36","WebKit","Chrome","134.0.0.0","ChromeOS","14541.0.0","https://hz8g1ckzuq.cognition.run/","en-US,en;q=0.9","tabceha9dmsr4vf","30","[""Other""]","Yes","Male","1789461.3000000007","19466","","","{""price_1"":""190"",""price_2"":""200"",""price_3"":""220""}","rating","cdt","repulsion_2","2","laptops","null","null","null","null","null","null","1","30","40","20","100","90","100","Processing speed","Memory (RAM)","",""
"","","","","","","instructions","83","835295","0.0-4.0","170","1","2025-04-14 14:24:58","bb671e3ae32f654b8954ea4c4635f915","","Mozilla/5.0 (X11; CrOS x86_64 14541.0.0) AppleWebKit/537.36 (KHTML, like Gecko) Chrome/134.0.0.0 Safari/537.36","WebKit","Chrome","134.0.0.0","ChromeOS","14541.0.0","https://hz8g1ckzuq.cognition.run/","en-US,en;q=0.9","tabceha9dmsr4vf","30","[""Other""]","Yes","Male","1789461.3000000007","24802","[{""page_index"":0,""viewing_time"":2192},{""page_index"":1,""viewing_time"":1215},{""page_index"":2,""viewing_time"":3029},{""page_index"":3,""viewing_time"":3096},{""page_index"":4,""viewing_time"":3646},{""page_index"":5,""viewing_time"":3380},{""page_index"":6,""viewing_time"":6408},{""page_index"":7,""viewing_time"":1836}]","","","","","","","","","","","","","","","","","","","","","","","",""
"","","","","","choice_trial_setup","html-keyboard-response","84","835599","0.0-5.0-0.0","170","1","2025-04-14 14:24:58","bb671e3ae32f654b8954ea4c4635f915","","Mozilla/5.0 (X11; CrOS x86_64 14541.0.0) AppleWebKit/537.36 (KHTML, like Gecko) Chrome/134.0.0.0 Safari/537.36","WebKit","Chrome","134.0.0.0","ChromeOS","14541.0.0","https://hz8g1ckzuq.cognition.run/","en-US,en;q=0.9","tabceha9dmsr4vf","30","[""Other""]","Yes","Male","1789461.3000000007","null","","<p></p>","null","choice","wbw","catch","null","televisions","95","75","50","25","10","10","2","","","","","","","","","",""
"","","","","","choice_trial","survey-html-form","85","842068","0.0-5.0-1.0","170","1","2025-04-14 14:24:58","bb671e3ae32f654b8954ea4c4635f915","","Mozilla/5.0 (X11; CrOS x86_64 14541.0.0) AppleWebKit/537.36 (KHTML, like Gecko) Chrome/134.0.0.0 Safari/537.36","WebKit","Chrome","134.0.0.0","ChromeOS","14541.0.0","https://hz8g1ckzuq.cognition.run/","en-US,en;q=0.9","tabceha9dmsr4vf","30","[""Other""]","Yes","Male","1789461.3000000007","6462","","","{""product_choice"":""B""}","choice","wbw","catch","null","televisions","95","75","50","25","10","10","2","null","null","null","null","null","null","Screen size","Average lifespan","",""
"","","","","","choice_trial_setup","html-keyboard-response","86","842373","0.0-5.0-0.1","170","1","2025-04-14 14:24:58","bb671e3ae32f654b8954ea4c4635f915","","Mozilla/5.0 (X11; CrOS x86_64 14541.0.0) AppleWebKit/537.36 (KHTML, like Gecko) Chrome/134.0.0.0 Safari/537.36","WebKit","Chrome","134.0.0.0","ChromeOS","14541.0.0","https://hz8g1ckzuq.cognition.run/","en-US,en;q=0.9","tabceha9dmsr4vf","30","[""Other""]","Yes","Male","1789461.3000000007","null","","<p></p>","null","choice","dct","repulsion_2","2","microwave ovens","null","null","null","null","null","null","2","","","","","","","","","",""
"","","","","","choice_trial","survey-html-form","87","853986","0.0-5.0-1.1","170","1","2025-04-14 14:24:58","bb671e3ae32f654b8954ea4c4635f915","","Mozilla/5.0 (X11; CrOS x86_64 14541.0.0) AppleWebKit/537.36 (KHTML, like Gecko) Chrome/134.0.0.0 Safari/537.36","WebKit","Chrome","134.0.0.0","ChromeOS","14541.0.0","https://hz8g1ckzuq.cognition.run/","en-US,en;q=0.9","tabceha9dmsr4vf","30","[""Other""]","Yes","Male","1789461.3000000007","11607","","","{""product_choice"":""C""}","choice","dct","repulsion_2","2","microwave ovens","null","null","null","null","null","null","2","30","40","20","100","90","100","Warranty","Cooking power","",""
"","","","","","choice_trial_setup","html-keyboard-response","88","854292","0.0-5.0-0.2","170","1","2025-04-14 14:24:58","bb671e3ae32f654b8954ea4c4635f915","","Mozilla/5.0 (X11; CrOS x86_64 14541.0.0) AppleWebKit/537.36 (KHTML, like Gecko) Chrome/134.0.0.0 Safari/537.36","WebKit","Chrome","134.0.0.0","ChromeOS","14541.0.0","https://hz8g1ckzuq.cognition.run/","en-US,en;q=0.9","tabceha9dmsr4vf","30","[""Other""]","Yes","Male","1789461.3000000007","null","","<p></p>","null","choice","tdc","attraction_2","1","laptops","null","null","null","null","null","null","1","","","","","","","","","",""
"","","","","","choice_trial","survey-html-form","89","863129","0.0-5.0-1.2","170","1","2025-04-14 14:24:58","bb671e3ae32f654b8954ea4c4635f915","","Mozilla/5.0 (X11; CrOS x86_64 14541.0.0) AppleWebKit/537.36 (KHTML, like Gecko) Chrome/134.0.0.0 Safari/537.36","WebKit","Chrome","134.0.0.0","ChromeOS","14541.0.0","https://hz8g1ckzuq.cognition.run/","en-US,en;q=0.9","tabceha9dmsr4vf","30","[""Other""]","Yes","Male","1789461.3000000007","8831","","","{""product_choice"":""A""}","choice","tdc","attraction_2","1","laptops","null","null","null","null","null","null","1","60","50","60","50","60","40","Processing speed","Memory (RAM)","",""
"","","","","","choice_trial_setup","html-keyboard-response","90","863433","0.0-5.0-0.3","170","1","2025-04-14 14:24:58","bb671e3ae32f654b8954ea4c4635f915","","Mozilla/5.0 (X11; CrOS x86_64 14541.0.0) AppleWebKit/537.36 (KHTML, like Gecko) Chrome/134.0.0.0 Safari/537.36","WebKit","Chrome","134.0.0.0","ChromeOS","14541.0.0","https://hz8g1ckzuq.cognition.run/","en-US,en;q=0.9","tabceha9dmsr4vf","30","[""Other""]","Yes","Male","1789461.3000000007","null","","<p></p>","null","choice","tcd","repulsion_1","2","washing machines","null","null","null","null","null","null","1","","","","","","","","","",""
"","","","","","choice_trial","survey-html-form","91","870274","0.0-5.0-1.3","170","1","2025-04-14 14:24:58","bb671e3ae32f654b8954ea4c4635f915","","Mozilla/5.0 (X11; CrOS x86_64 14541.0.0) AppleWebKit/537.36 (KHTML, like Gecko) Chrome/134.0.0.0 Safari/537.36","WebKit","Chrome","134.0.0.0","ChromeOS","14541.0.0","https://hz8g1ckzuq.cognition.run/","en-US,en;q=0.9","tabceha9dmsr4vf","30","[""Other""]","Yes","Male","1789461.3000000007","6835","","","{""product_choice"":""A""}","choice","tcd","repulsion_1","2","washing machines","null","null","null","null","null","null","1","30","40","25","100","90","100","Average lifespan","Energy savings","",""
"","","","","","choice_trial_setup","html-keyboard-response","92","870578","0.0-5.0-0.4","170","1","2025-04-14 14:24:58","bb671e3ae32f654b8954ea4c4635f915","","Mozilla/5.0 (X11; CrOS x86_64 14541.0.0) AppleWebKit/537.36 (KHTML, like Gecko) Chrome/134.0.0.0 Safari/537.36","WebKit","Chrome","134.0.0.0","ChromeOS","14541.0.0","https://hz8g1ckzuq.cognition.run/","en-US,en;q=0.9","tabceha9dmsr4vf","30","[""Other""]","Yes","Male","1789461.3000000007","null","","<p></p>","null","choice","tdc","attraction_1","2","laptops","null","null","null","null","null","null","1","","","","","","","","","",""
"","","","","","choice_trial","survey-html-form","93","878143","0.0-5.0-1.4","170","1","2025-04-14 14:24:58","bb671e3ae32f654b8954ea4c4635f915","","Mozilla/5.0 (X11; CrOS x86_64 14541.0.0) AppleWebKit/537.36 (KHTML, like Gecko) Chrome/134.0.0.0 Safari/537.36","WebKit","Chrome","134.0.0.0","ChromeOS","14541.0.0","https://hz8g1ckzuq.cognition.run/","en-US,en;q=0.9","tabceha9dmsr4vf","30","[""Other""]","Yes","Male","1789461.3000000007","7555","","","{""product_choice"":""C""}","choice","tdc","attraction_1","2","laptops","null","null","null","null","null","null","1","50","60","45","60","50","60","Processing speed","Memory (RAM)","",""
"","","","","","choice_trial_setup","html-keyboard-response","94","878449","0.0-5.0-0.5","170","1","2025-04-14 14:24:58","bb671e3ae32f654b8954ea4c4635f915","","Mozilla/5.0 (X11; CrOS x86_64 14541.0.0) AppleWebKit/537.36 (KHTML, like Gecko) Chrome/134.0.0.0 Safari/537.36","WebKit","Chrome","134.0.0.0","ChromeOS","14541.0.0","https://hz8g1ckzuq.cognition.run/","en-US,en;q=0.9","tabceha9dmsr4vf","30","[""Other""]","Yes","Male","1789461.3000000007","null","","<p></p>","null","choice","tdc","attraction_2","1","televisions","null","null","null","null","null","null","1","","","","","","","","","",""
"","","","","","choice_trial","survey-html-form","95","927280","0.0-5.0-1.5","170","1","2025-04-14 14:24:58","bb671e3ae32f654b8954ea4c4635f915","","Mozilla/5.0 (X11; CrOS x86_64 14541.0.0) AppleWebKit/537.36 (KHTML, like Gecko) Chrome/134.0.0.0 Safari/537.36","WebKit","Chrome","134.0.0.0","ChromeOS","14541.0.0","https://hz8g1ckzuq.cognition.run/","en-US,en;q=0.9","tabceha9dmsr4vf","30","[""Other""]","Yes","Male","1789461.3000000007","48824","","","{""product_choice"":""A""}","choice","tdc","attraction_2","1","televisions","null","null","null","null","null","null","1","60","50","60","50","60","40","Screen size","Average lifespan","",""
"","","","","","choice_trial_setup","html-keyboard-response","96","927586","0.0-5.0-0.6","170","1","2025-04-14 14:24:58","bb671e3ae32f654b8954ea4c4635f915","","Mozilla/5.0 (X11; CrOS x86_64 14541.0.0) AppleWebKit/537.36 (KHTML, like Gecko) Chrome/134.0.0.0 Safari/537.36","WebKit","Chrome","134.0.0.0","ChromeOS","14541.0.0","https://hz8g1ckzuq.cognition.run/","en-US,en;q=0.9","tabceha9dmsr4vf","30","[""Other""]","Yes","Male","1789461.3000000007","null","","<p></p>","null","choice","tcd","attraction_2","2","televisions","null","null","null","null","null","null","2","","","","","","","","","",""
"","","","","","choice_trial","survey-html-form","97","933767","0.0-5.0-1.6","170","1","2025-04-14 14:24:58","bb671e3ae32f654b8954ea4c4635f915","","Mozilla/5.0 (X11; CrOS x86_64 14541.0.0) AppleWebKit/537.36 (KHTML, like Gecko) Chrome/134.0.0.0 Safari/537.36","WebKit","Chrome","134.0.0.0","ChromeOS","14541.0.0","https://hz8g1ckzuq.cognition.run/","en-US,en;q=0.9","tabceha9dmsr4vf","30","[""Other""]","Yes","Male","1789461.3000000007","6175","","","{""product_choice"":""B""}","choice","tcd","attraction_2","2","televisions","null","null","null","null","null","null","2","50","60","40","60","50","60","Screen size","Average lifespan","",""
"","","","","","choice_trial_setup","html-keyboard-response","98","934074","0.0-5.0-0.7","170","1","2025-04-14 14:24:58","bb671e3ae32f654b8954ea4c4635f915","","Mozilla/5.0 (X11; CrOS x86_64 14541.0.0) AppleWebKit/537.36 (KHTML, like Gecko) Chrome/134.0.0.0 Safari/537.36","WebKit","Chrome","134.0.0.0","ChromeOS","14541.0.0","https://hz8g1ckzuq.cognition.run/","en-US,en;q=0.9","tabceha9dmsr4vf","30","[""Other""]","Yes","Male","1789461.3000000007","null","","<p></p>","null","choice","dct","attraction_2","2","washing machines","null","null","null","null","null","null","1","","","","","","","","","",""
"","","","","","choice_trial","survey-html-form","99","941510","0.0-5.0-1.7","170","1","2025-04-14 14:24:58","bb671e3ae32f654b8954ea4c4635f915","","Mozilla/5.0 (X11; CrOS x86_64 14541.0.0) AppleWebKit/537.36 (KHTML, like Gecko) Chrome/134.0.0.0 Safari/537.36","WebKit","Chrome","134.0.0.0","ChromeOS","14541.0.0","https://hz8g1ckzuq.cognition.run/","en-US,en;q=0.9","tabceha9dmsr4vf","30","[""Other""]","Yes","Male","1789461.3000000007","7430","","","{""product_choice"":""C""}","choice","dct","attraction_2","2","washing machines","null","null","null","null","null","null","1","50","60","40","60","50","60","Average lifespan","Energy savings","",""
"","","","","","choice_trial_setup","html-keyboard-response","100","941814","0.0-5.0-0.8","170","1","2025-04-14 14:24:58","bb671e3ae32f654b8954ea4c4635f915","","Mozilla/5.0 (X11; CrOS x86_64 14541.0.0) AppleWebKit/537.36 (KHTML, like Gecko) Chrome/134.0.0.0 Safari/537.36","WebKit","Chrome","134.0.0.0","ChromeOS","14541.0.0","https://hz8g1ckzuq.cognition.run/","en-US,en;q=0.9","tabceha9dmsr4vf","30","[""Other""]","Yes","Male","1789461.3000000007","null","","<p></p>","null","choice","bww","catch","null","laptops","95","65","20","40","30","25","1","","","","","","","","","",""
"","","","","","choice_trial","survey-html-form","101","946738","0.0-5.0-1.8","170","1","2025-04-14 14:24:58","bb671e3ae32f654b8954ea4c4635f915","","Mozilla/5.0 (X11; CrOS x86_64 14541.0.0) AppleWebKit/537.36 (KHTML, like Gecko) Chrome/134.0.0.0 Safari/537.36","WebKit","Chrome","134.0.0.0","ChromeOS","14541.0.0","https://hz8g1ckzuq.cognition.run/","en-US,en;q=0.9","tabceha9dmsr4vf","30","[""Other""]","Yes","Male","1789461.3000000007","4918","","","{""product_choice"":""A""}","choice","bww","catch","null","laptops","95","65","20","40","30","25","1","null","null","null","null","null","null","Processing speed","Memory (RAM)","",""
"","","","","","choice_trial_setup","html-keyboard-response","102","947042","0.0-5.0-0.9","170","1","2025-04-14 14:24:58","bb671e3ae32f654b8954ea4c4635f915","","Mozilla/5.0 (X11; CrOS x86_64 14541.0.0) AppleWebKit/537.36 (KHTML, like Gecko) Chrome/134.0.0.0 Safari/537.36","WebKit","Chrome","134.0.0.0","ChromeOS","14541.0.0","https://hz8g1ckzuq.cognition.run/","en-US,en;q=0.9","tabceha9dmsr4vf","30","[""Other""]","Yes","Male","1789461.3000000007","null","","<p></p>","null","choice","ctd","repulsion_1","1","microwave ovens","null","null","null","null","null","null","2","","","","","","","","","",""
"","","","","","choice_trial","survey-html-form","103","953244","0.0-5.0-1.9","170","1","2025-04-14 14:24:58","bb671e3ae32f654b8954ea4c4635f915","","Mozilla/5.0 (X11; CrOS x86_64 14541.0.0) AppleWebKit/537.36 (KHTML, like Gecko) Chrome/134.0.0.0 Safari/537.36","WebKit","Chrome","134.0.0.0","ChromeOS","14541.0.0","https://hz8g1ckzuq.cognition.run/","en-US,en;q=0.9","tabceha9dmsr4vf","30","[""Other""]","Yes","Male","1789461.3000000007","6194","","","{""product_choice"":""A""}","choice","ctd","repulsion_1","1","microwave ovens","null","null","null","null","null","null","2","100","90","100","30","40","25","Warranty","Cooking power","",""
"","","","","","choice_trial_setup","html-keyboard-response","104","953549","0.0-5.0-0.10","170","1","2025-04-14 14:24:58","bb671e3ae32f654b8954ea4c4635f915","","Mozilla/5.0 (X11; CrOS x86_64 14541.0.0) AppleWebKit/537.36 (KHTML, like Gecko) Chrome/134.0.0.0 Safari/537.36","WebKit","Chrome","134.0.0.0","ChromeOS","14541.0.0","https://hz8g1ckzuq.cognition.run/","en-US,en;q=0.9","tabceha9dmsr4vf","30","[""Other""]","Yes","Male","1789461.3000000007","null","","<p></p>","null","choice","dtc","attraction_2","2","laptops","null","null","null","null","null","null","2","","","","","","","","","",""
"","","","","","choice_trial","survey-html-form","105","965038","0.0-5.0-1.10","170","1","2025-04-14 14:24:58","bb671e3ae32f654b8954ea4c4635f915","","Mozilla/5.0 (X11; CrOS x86_64 14541.0.0) AppleWebKit/537.36 (KHTML, like Gecko) Chrome/134.0.0.0 Safari/537.36","WebKit","Chrome","134.0.0.0","ChromeOS","14541.0.0","https://hz8g1ckzuq.cognition.run/","en-US,en;q=0.9","tabceha9dmsr4vf","30","[""Other""]","Yes","Male","1789461.3000000007","11482","","","{""product_choice"":""B""}","choice","dtc","attraction_2","2","laptops","null","null","null","null","null","null","2","50","60","40","60","50","60","Processing speed","Memory (RAM)","",""
"","","","","","choice_trial_setup","html-keyboard-response","106","965342","0.0-5.0-0.11","170","1","2025-04-14 14:24:58","bb671e3ae32f654b8954ea4c4635f915","","Mozilla/5.0 (X11; CrOS x86_64 14541.0.0) AppleWebKit/537.36 (KHTML, like Gecko) Chrome/134.0.0.0 Safari/537.36","WebKit","Chrome","134.0.0.0","ChromeOS","14541.0.0","https://hz8g1ckzuq.cognition.run/","en-US,en;q=0.9","tabceha9dmsr4vf","30","[""Other""]","Yes","Male","1789461.3000000007","null","","<p></p>","null","choice","dtc","attraction_1","1","televisions","null","null","null","null","null","null","2","","","","","","","","","",""
"","","","","","choice_trial","survey-html-form","107","973234","0.0-5.0-1.11","170","1","2025-04-14 14:24:58","bb671e3ae32f654b8954ea4c4635f915","","Mozilla/5.0 (X11; CrOS x86_64 14541.0.0) AppleWebKit/537.36 (KHTML, like Gecko) Chrome/134.0.0.0 Safari/537.36","WebKit","Chrome","134.0.0.0","ChromeOS","14541.0.0","https://hz8g1ckzuq.cognition.run/","en-US,en;q=0.9","tabceha9dmsr4vf","30","[""Other""]","Yes","Male","1789461.3000000007","7887","","","{""product_choice"":""B""}","choice","dtc","attraction_1","1","televisions","null","null","null","null","null","null","2","60","50","60","50","60","45","Screen size","Average lifespan","",""
"","","","","","choice_trial_setup","html-keyboard-response","108","973538","0.0-5.0-0.12","170","1","2025-04-14 14:24:58","bb671e3ae32f654b8954ea4c4635f915","","Mozilla/5.0 (X11; CrOS x86_64 14541.0.0) AppleWebKit/537.36 (KHTML, like Gecko) Chrome/134.0.0.0 Safari/537.36","WebKit","Chrome","134.0.0.0","ChromeOS","14541.0.0","https://hz8g1ckzuq.cognition.run/","en-US,en;q=0.9","tabceha9dmsr4vf","30","[""Other""]","Yes","Male","1789461.3000000007","null","","<p></p>","null","choice","cdt","repulsion_2","1","televisions","null","null","null","null","null","null","1","","","","","","","","","",""
"","","","","","choice_trial","survey-html-form","109","988554","0.0-5.0-1.12","170","1","2025-04-14 14:24:58","bb671e3ae32f654b8954ea4c4635f915","","Mozilla/5.0 (X11; CrOS x86_64 14541.0.0) AppleWebKit/537.36 (KHTML, like Gecko) Chrome/134.0.0.0 Safari/537.36","WebKit","Chrome","134.0.0.0","ChromeOS","14541.0.0","https://hz8g1ckzuq.cognition.run/","en-US,en;q=0.9","tabceha9dmsr4vf","30","[""Other""]","Yes","Male","1789461.3000000007","15009","","","{""product_choice"":""C""}","choice","cdt","repulsion_2","1","televisions","null","null","null","null","null","null","1","100","90","100","30","40","20","Screen size","Average lifespan","",""
"","","","","","choice_trial_setup","html-keyboard-response","110","988859","0.0-5.0-0.13","170","1","2025-04-14 14:24:58","bb671e3ae32f654b8954ea4c4635f915","","Mozilla/5.0 (X11; CrOS x86_64 14541.0.0) AppleWebKit/537.36 (KHTML, like Gecko) Chrome/134.0.0.0 Safari/537.36","WebKit","Chrome","134.0.0.0","ChromeOS","14541.0.0","https://hz8g1ckzuq.cognition.run/","en-US,en;q=0.9","tabceha9dmsr4vf","30","[""Other""]","Yes","Male","1789461.3000000007","null","","<p></p>","null","choice","bww","catch","null","laptops","55","80","30","45","35","20","2","","","","","","","","","",""
"","","","","","choice_trial","survey-html-form","111","994778","0.0-5.0-1.13","170","1","2025-04-14 14:24:58","bb671e3ae32f654b8954ea4c4635f915","","Mozilla/5.0 (X11; CrOS x86_64 14541.0.0) AppleWebKit/537.36 (KHTML, like Gecko) Chrome/134.0.0.0 Safari/537.36","WebKit","Chrome","134.0.0.0","ChromeOS","14541.0.0","https://hz8g1ckzuq.cognition.run/","en-US,en;q=0.9","tabceha9dmsr4vf","30","[""Other""]","Yes","Male","1789461.3000000007","5912","","","{""product_choice"":""A""}","choice","bww","catch","null","laptops","55","80","30","45","35","20","2","null","null","null","null","null","null","Processing speed","Memory (RAM)","",""
"","","","","","choice_trial_setup","html-keyboard-response","112","995083","0.0-5.0-0.14","170","1","2025-04-14 14:24:58","bb671e3ae32f654b8954ea4c4635f915","","Mozilla/5.0 (X11; CrOS x86_64 14541.0.0) AppleWebKit/537.36 (KHTML, like Gecko) Chrome/134.0.0.0 Safari/537.36","WebKit","Chrome","134.0.0.0","ChromeOS","14541.0.0","https://hz8g1ckzuq.cognition.run/","en-US,en;q=0.9","tabceha9dmsr4vf","30","[""Other""]","Yes","Male","1789461.3000000007","null","","<p></p>","null","choice","bww","catch","null","washing machines","80","50","50","15","10","50","2","","","","","","","","","",""
"","","","","","choice_trial","survey-html-form","113","1001009","0.0-5.0-1.14","170","1","2025-04-14 14:24:58","bb671e3ae32f654b8954ea4c4635f915","","Mozilla/5.0 (X11; CrOS x86_64 14541.0.0) AppleWebKit/537.36 (KHTML, like Gecko) Chrome/134.0.0.0 Safari/537.36","WebKit","Chrome","134.0.0.0","ChromeOS","14541.0.0","https://hz8g1ckzuq.cognition.run/","en-US,en;q=0.9","tabceha9dmsr4vf","30","[""Other""]","Yes","Male","1789461.3000000007","5919","","","{""product_choice"":""A""}","choice","bww","catch","null","washing machines","80","50","50","15","10","50","2","null","null","null","null","null","null","Average lifespan","Energy savings","",""
"","","","","","choice_trial_setup","html-keyboard-response","114","1001313","0.0-5.0-0.15","170","1","2025-04-14 14:24:58","bb671e3ae32f654b8954ea4c4635f915","","Mozilla/5.0 (X11; CrOS x86_64 14541.0.0) AppleWebKit/537.36 (KHTML, like Gecko) Chrome/134.0.0.0 Safari/537.36","WebKit","Chrome","134.0.0.0","ChromeOS","14541.0.0","https://hz8g1ckzuq.cognition.run/","en-US,en;q=0.9","tabceha9dmsr4vf","30","[""Other""]","Yes","Male","1789461.3000000007","null","","<p></p>","null","choice","bww","catch","null","microwave ovens","95","95","10","10","25","40","2","","","","","","","","","",""
"","","","","","choice_trial","survey-html-form","115","1009935","0.0-5.0-1.15","170","1","2025-04-14 14:24:58","bb671e3ae32f654b8954ea4c4635f915","","Mozilla/5.0 (X11; CrOS x86_64 14541.0.0) AppleWebKit/537.36 (KHTML, like Gecko) Chrome/134.0.0.0 Safari/537.36","WebKit","Chrome","134.0.0.0","ChromeOS","14541.0.0","https://hz8g1ckzuq.cognition.run/","en-US,en;q=0.9","tabceha9dmsr4vf","30","[""Other""]","Yes","Male","1789461.3000000007","8615","","","{""product_choice"":""A""}","choice","bww","catch","null","microwave ovens","95","95","10","10","25","40","2","null","null","null","null","null","null","Warranty","Cooking power","",""
"","","","","","choice_trial_setup","html-keyboard-response","116","1010241","0.0-5.0-0.16","170","1","2025-04-14 14:24:58","bb671e3ae32f654b8954ea4c4635f915","","Mozilla/5.0 (X11; CrOS x86_64 14541.0.0) AppleWebKit/537.36 (KHTML, like Gecko) Chrome/134.0.0.0 Safari/537.36","WebKit","Chrome","134.0.0.0","ChromeOS","14541.0.0","https://hz8g1ckzuq.cognition.run/","en-US,en;q=0.9","tabceha9dmsr4vf","30","[""Other""]","Yes","Male","1789461.3000000007","null","","<p></p>","null","choice","cdt","attraction_1","1","laptops","null","null","null","null","null","null","2","","","","","","","","","",""
"","","","","","choice_trial","survey-html-form","117","1071597","0.0-5.0-1.16","170","1","2025-04-14 14:24:58","bb671e3ae32f654b8954ea4c4635f915","","Mozilla/5.0 (X11; CrOS x86_64 14541.0.0) AppleWebKit/537.36 (KHTML, like Gecko) Chrome/134.0.0.0 Safari/537.36","WebKit","Chrome","134.0.0.0","ChromeOS","14541.0.0","https://hz8g1ckzuq.cognition.run/","en-US,en;q=0.9","tabceha9dmsr4vf","30","[""Other""]","Yes","Male","1789461.3000000007","61349","","","{""product_choice"":""A""}","choice","cdt","attraction_1","1","laptops","null","null","null","null","null","null","2","60","50","60","50","60","45","Processing speed","Memory (RAM)","",""
"","","","","","choice_trial_setup","html-keyboard-response","118","1071904","0.0-5.0-0.17","170","1","2025-04-14 14:24:58","bb671e3ae32f654b8954ea4c4635f915","","Mozilla/5.0 (X11; CrOS x86_64 14541.0.0) AppleWebKit/537.36 (KHTML, like Gecko) Chrome/134.0.0.0 Safari/537.36","WebKit","Chrome","134.0.0.0","ChromeOS","14541.0.0","https://hz8g1ckzuq.cognition.run/","en-US,en;q=0.9","tabceha9dmsr4vf","30","[""Other""]","Yes","Male","1789461.3000000007","null","","<p></p>","null","choice","dct","repulsion_2","1","microwave ovens","null","null","null","null","null","null","1","","","","","","","","","",""
"","","","","","choice_trial","survey-html-form","119","1081631","0.0-5.0-1.17","170","1","2025-04-14 14:24:58","bb671e3ae32f654b8954ea4c4635f915","","Mozilla/5.0 (X11; CrOS x86_64 14541.0.0) AppleWebKit/537.36 (KHTML, like Gecko) Chrome/134.0.0.0 Safari/537.36","WebKit","Chrome","134.0.0.0","ChromeOS","14541.0.0","https://hz8g1ckzuq.cognition.run/","en-US,en;q=0.9","tabceha9dmsr4vf","30","[""Other""]","Yes","Male","1789461.3000000007","9719","","","{""product_choice"":""C""}","choice","dct","repulsion_2","1","microwave ovens","null","null","null","null","null","null","1","100","90","100","30","40","20","Warranty","Cooking power","",""
"","","","","","choice_trial_setup","html-keyboard-response","120","1081938","0.0-5.0-0.18","170","1","2025-04-14 14:24:58","bb671e3ae32f654b8954ea4c4635f915","","Mozilla/5.0 (X11; CrOS x86_64 14541.0.0) AppleWebKit/537.36 (KHTML, like Gecko) Chrome/134.0.0.0 Safari/537.36","WebKit","Chrome","134.0.0.0","ChromeOS","14541.0.0","https://hz8g1ckzuq.cognition.run/","en-US,en;q=0.9","tabceha9dmsr4vf","30","[""Other""]","Yes","Male","1789461.3000000007","null","","<p></p>","null","choice","dct","attraction_1","2","microwave ovens","null","null","null","null","null","null","2","","","","","","","","","",""
"","","","","","choice_trial","survey-html-form","121","1103271","0.0-5.0-1.18","170","1","2025-04-14 14:24:58","bb671e3ae32f654b8954ea4c4635f915","","Mozilla/5.0 (X11; CrOS x86_64 14541.0.0) AppleWebKit/537.36 (KHTML, like Gecko) Chrome/134.0.0.0 Safari/537.36","WebKit","Chrome","134.0.0.0","ChromeOS","14541.0.0","https://hz8g1ckzuq.cognition.run/","en-US,en;q=0.9","tabceha9dmsr4vf","30","[""Other""]","Yes","Male","1789461.3000000007","21327","","","{""product_choice"":""C""}","choice","dct","attraction_1","2","microwave ovens","null","null","null","null","null","null","2","50","60","45","60","50","60","Warranty","Cooking power","",""
"","","","","","choice_trial_setup","html-keyboard-response","122","1103577","0.0-5.0-0.19","170","1","2025-04-14 14:24:58","bb671e3ae32f654b8954ea4c4635f915","","Mozilla/5.0 (X11; CrOS x86_64 14541.0.0) AppleWebKit/537.36 (KHTML, like Gecko) Chrome/134.0.0.0 Safari/537.36","WebKit","Chrome","134.0.0.0","ChromeOS","14541.0.0","https://hz8g1ckzuq.cognition.run/","en-US,en;q=0.9","tabceha9dmsr4vf","30","[""Other""]","Yes","Male","1789461.3000000007","null","","<p></p>","null","choice","bww","catch","null","washing machines","95","90","15","50","25","20","1","","","","","","","","","",""
"","","","","","choice_trial","survey-html-form","123","1109778","0.0-5.0-1.19","170","1","2025-04-14 14:24:58","bb671e3ae32f654b8954ea4c4635f915","","Mozilla/5.0 (X11; CrOS x86_64 14541.0.0) AppleWebKit/537.36 (KHTML, like Gecko) Chrome/134.0.0.0 Safari/537.36","WebKit","Chrome","134.0.0.0","ChromeOS","14541.0.0","https://hz8g1ckzuq.cognition.run/","en-US,en;q=0.9","tabceha9dmsr4vf","30","[""Other""]","Yes","Male","1789461.3000000007","6195","","","{""product_choice"":""A""}","choice","bww","catch","null","washing machines","95","90","15","50","25","20","1","null","null","null","null","null","null","Average lifespan","Energy savings","",""
"","","","","","choice_trial_setup","html-keyboard-response","124","1110085","0.0-5.0-0.20","170","1","2025-04-14 14:24:58","bb671e3ae32f654b8954ea4c4635f915","","Mozilla/5.0 (X11; CrOS x86_64 14541.0.0) AppleWebKit/537.36 (KHTML, like Gecko) Chrome/134.0.0.0 Safari/537.36","WebKit","Chrome","134.0.0.0","ChromeOS","14541.0.0","https://hz8g1ckzuq.cognition.run/","en-US,en;q=0.9","tabceha9dmsr4vf","30","[""Other""]","Yes","Male","1789461.3000000007","null","","<p></p>","null","choice","ctd","attraction_1","2","washing machines","null","null","null","null","null","null","2","","","","","","","","","",""
"","","","","","choice_trial","survey-html-form","125","1116174","0.0-5.0-1.20","170","1","2025-04-14 14:24:58","bb671e3ae32f654b8954ea4c4635f915","","Mozilla/5.0 (X11; CrOS x86_64 14541.0.0) AppleWebKit/537.36 (KHTML, like Gecko) Chrome/134.0.0.0 Safari/537.36","WebKit","Chrome","134.0.0.0","ChromeOS","14541.0.0","https://hz8g1ckzuq.cognition.run/","en-US,en;q=0.9","tabceha9dmsr4vf","30","[""Other""]","Yes","Male","1789461.3000000007","6082","","","{""product_choice"":""B""}","choice","ctd","attraction_1","2","washing machines","null","null","null","null","null","null","2","50","60","45","60","50","60","Average lifespan","Energy savings","",""
"","","","","","choice_trial_setup","html-keyboard-response","126","1116481","0.0-5.0-0.21","170","1","2025-04-14 14:24:58","bb671e3ae32f654b8954ea4c4635f915","","Mozilla/5.0 (X11; CrOS x86_64 14541.0.0) AppleWebKit/537.36 (KHTML, like Gecko) Chrome/134.0.0.0 Safari/537.36","WebKit","Chrome","134.0.0.0","ChromeOS","14541.0.0","https://hz8g1ckzuq.cognition.run/","en-US,en;q=0.9","tabceha9dmsr4vf","30","[""Other""]","Yes","Male","1789461.3000000007","null","","<p></p>","null","choice","cdt","attraction_2","1","washing machines","null","null","null","null","null","null","1","","","","","","","","","",""
"","","","","","choice_trial","survey-html-form","127","1121505","0.0-5.0-1.21","170","1","2025-04-14 14:24:58","bb671e3ae32f654b8954ea4c4635f915","","Mozilla/5.0 (X11; CrOS x86_64 14541.0.0) AppleWebKit/537.36 (KHTML, like Gecko) Chrome/134.0.0.0 Safari/537.36","WebKit","Chrome","134.0.0.0","ChromeOS","14541.0.0","https://hz8g1ckzuq.cognition.run/","en-US,en;q=0.9","tabceha9dmsr4vf","30","[""Other""]","Yes","Male","1789461.3000000007","5017","","","{""product_choice"":""C""}","choice","cdt","attraction_2","1","washing machines","null","null","null","null","null","null","1","60","50","60","50","60","40","Average lifespan","Energy savings","",""
"","","","","","choice_trial_setup","html-keyboard-response","128","1121811","0.0-5.0-0.22","170","1","2025-04-14 14:24:58","bb671e3ae32f654b8954ea4c4635f915","","Mozilla/5.0 (X11; CrOS x86_64 14541.0.0) AppleWebKit/537.36 (KHTML, like Gecko) Chrome/134.0.0.0 Safari/537.36","WebKit","Chrome","134.0.0.0","ChromeOS","14541.0.0","https://hz8g1ckzuq.cognition.run/","en-US,en;q=0.9","tabceha9dmsr4vf","30","[""Other""]","Yes","Male","1789461.3000000007","null","","<p></p>","null","choice","ctd","repulsion_1","2","microwave ovens","null","null","null","null","null","null","2","","","","","","","","","",""
"","","","","","choice_trial","survey-html-form","129","1305798","0.0-5.0-1.22","170","1","2025-04-14 14:24:58","bb671e3ae32f654b8954ea4c4635f915","","Mozilla/5.0 (X11; CrOS x86_64 14541.0.0) AppleWebKit/537.36 (KHTML, like Gecko) Chrome/134.0.0.0 Safari/537.36","WebKit","Chrome","134.0.0.0","ChromeOS","14541.0.0","https://hz8g1ckzuq.cognition.run/","en-US,en;q=0.9","tabceha9dmsr4vf","30","[""Other""]","Yes","Male","1789461.3000000007","183979","","","{""product_choice"":""B""}","choice","ctd","repulsion_1","2","microwave ovens","null","null","null","null","null","null","2","30","40","25","100","90","100","Warranty","Cooking power","",""
"","","","","","choice_trial_setup","html-keyboard-response","130","1306103","0.0-5.0-0.23","170","1","2025-04-14 14:24:58","bb671e3ae32f654b8954ea4c4635f915","","Mozilla/5.0 (X11; CrOS x86_64 14541.0.0) AppleWebKit/537.36 (KHTML, like Gecko) Chrome/134.0.0.0 Safari/537.36","WebKit","Chrome","134.0.0.0","ChromeOS","14541.0.0","https://hz8g1ckzuq.cognition.run/","en-US,en;q=0.9","tabceha9dmsr4vf","30","[""Other""]","Yes","Male","1789461.3000000007","null","","<p></p>","null","choice","bww","catch","null","televisions","95","75","25","15","25","15","1","","","","","","","","","",""
"","","","","","choice_trial","survey-html-form","131","1437440","0.0-5.0-1.23","170","1","2025-04-14 14:24:58","bb671e3ae32f654b8954ea4c4635f915","","Mozilla/5.0 (X11; CrOS x86_64 14541.0.0) AppleWebKit/537.36 (KHTML, like Gecko) Chrome/134.0.0.0 Safari/537.36","WebKit","Chrome","134.0.0.0","ChromeOS","14541.0.0","https://hz8g1ckzuq.cognition.run/","en-US,en;q=0.9","tabceha9dmsr4vf","30","[""Other""]","Yes","Male","1789461.3000000007","131330","","","{""product_choice"":""A""}","choice","bww","catch","null","televisions","95","75","25","15","25","15","1","null","null","null","null","null","null","Screen size","Average lifespan","",""
"","","","","","choice_trial_setup","html-keyboard-response","132","1437745","0.0-5.0-0.24","170","1","2025-04-14 14:24:58","bb671e3ae32f654b8954ea4c4635f915","","Mozilla/5.0 (X11; CrOS x86_64 14541.0.0) AppleWebKit/537.36 (KHTML, like Gecko) Chrome/134.0.0.0 Safari/537.36","WebKit","Chrome","134.0.0.0","ChromeOS","14541.0.0","https://hz8g1ckzuq.cognition.run/","en-US,en;q=0.9","tabceha9dmsr4vf","30","[""Other""]","Yes","Male","1789461.3000000007","null","","<p></p>","null","choice","cdt","repulsion_1","2","televisions","null","null","null","null","null","null","1","","","","","","","","","",""
"","","","","","choice_trial","survey-html-form","133","1442930","0.0-5.0-1.24","170","1","2025-04-14 14:24:58","bb671e3ae32f654b8954ea4c4635f915","","Mozilla/5.0 (X11; CrOS x86_64 14541.0.0) AppleWebKit/537.36 (KHTML, like Gecko) Chrome/134.0.0.0 Safari/537.36","WebKit","Chrome","134.0.0.0","ChromeOS","14541.0.0","https://hz8g1ckzuq.cognition.run/","en-US,en;q=0.9","tabceha9dmsr4vf","30","[""Other""]","Yes","Male","1789461.3000000007","5177","","","{""product_choice"":""A""}","choice","cdt","repulsion_1","2","televisions","null","null","null","null","null","null","1","30","40","25","100","90","100","Screen size","Average lifespan","",""
"","","","","","choice_trial_setup","html-keyboard-response","134","1443235","0.0-5.0-0.25","170","1","2025-04-14 14:24:58","bb671e3ae32f654b8954ea4c4635f915","","Mozilla/5.0 (X11; CrOS x86_64 14541.0.0) AppleWebKit/537.36 (KHTML, like Gecko) Chrome/134.0.0.0 Safari/537.36","WebKit","Chrome","134.0.0.0","ChromeOS","14541.0.0","https://hz8g1ckzuq.cognition.run/","en-US,en;q=0.9","tabceha9dmsr4vf","30","[""Other""]","Yes","Male","1789461.3000000007","null","","<p></p>","null","choice","ctd","repulsion_1","1","televisions","null","null","null","null","null","null","2","","","","","","","","","",""
"","","","","","choice_trial","survey-html-form","135","1454330","0.0-5.0-1.25","170","1","2025-04-14 14:24:58","bb671e3ae32f654b8954ea4c4635f915","","Mozilla/5.0 (X11; CrOS x86_64 14541.0.0) AppleWebKit/537.36 (KHTML, like Gecko) Chrome/134.0.0.0 Safari/537.36","WebKit","Chrome","134.0.0.0","ChromeOS","14541.0.0","https://hz8g1ckzuq.cognition.run/","en-US,en;q=0.9","tabceha9dmsr4vf","30","[""Other""]","Yes","Male","1789461.3000000007","11084","","","{""product_choice"":""B""}","choice","ctd","repulsion_1","1","televisions","null","null","null","null","null","null","2","100","90","100","30","40","25","Screen size","Average lifespan","",""
"","","","","","choice_trial_setup","html-keyboard-response","136","1454645","0.0-5.0-0.26","170","1","2025-04-14 14:24:58","bb671e3ae32f654b8954ea4c4635f915","","Mozilla/5.0 (X11; CrOS x86_64 14541.0.0) AppleWebKit/537.36 (KHTML, like Gecko) Chrome/134.0.0.0 Safari/537.36","WebKit","Chrome","134.0.0.0","ChromeOS","14541.0.0","https://hz8g1ckzuq.cognition.run/","en-US,en;q=0.9","tabceha9dmsr4vf","30","[""Other""]","Yes","Male","1789461.3000000007","null","","<p></p>","null","choice","cdt","attraction_1","2","televisions","null","null","null","null","null","null","1","","","","","","","","","",""
"","","","","","choice_trial","survey-html-form","137","1460533","0.0-5.0-1.26","170","1","2025-04-14 14:24:58","bb671e3ae32f654b8954ea4c4635f915","","Mozilla/5.0 (X11; CrOS x86_64 14541.0.0) AppleWebKit/537.36 (KHTML, like Gecko) Chrome/134.0.0.0 Safari/537.36","WebKit","Chrome","134.0.0.0","ChromeOS","14541.0.0","https://hz8g1ckzuq.cognition.run/","en-US,en;q=0.9","tabceha9dmsr4vf","30","[""Other""]","Yes","Male","1789461.3000000007","5880","","","{""product_choice"":""A""}","choice","cdt","attraction_1","2","televisions","null","null","null","null","null","null","1","50","60","45","60","50","60","Screen size","Average lifespan","",""
"","","","","","choice_trial_setup","html-keyboard-response","138","1460837","0.0-5.0-0.27","170","1","2025-04-14 14:24:58","bb671e3ae32f654b8954ea4c4635f915","","Mozilla/5.0 (X11; CrOS x86_64 14541.0.0) AppleWebKit/537.36 (KHTML, like Gecko) Chrome/134.0.0.0 Safari/537.36","WebKit","Chrome","134.0.0.0","ChromeOS","14541.0.0","https://hz8g1ckzuq.cognition.run/","en-US,en;q=0.9","tabceha9dmsr4vf","30","[""Other""]","Yes","Male","1789461.3000000007","null","","<p></p>","null","choice","tcd","attraction_2","2","microwave ovens","null","null","null","null","null","null","2","","","","","","","","","",""
"","","","","","choice_trial","survey-html-form","139","1467145","0.0-5.0-1.27","170","1","2025-04-14 14:24:58","bb671e3ae32f654b8954ea4c4635f915","","Mozilla/5.0 (X11; CrOS x86_64 14541.0.0) AppleWebKit/537.36 (KHTML, like Gecko) Chrome/134.0.0.0 Safari/537.36","WebKit","Chrome","134.0.0.0","ChromeOS","14541.0.0","https://hz8g1ckzuq.cognition.run/","en-US,en;q=0.9","tabceha9dmsr4vf","30","[""Other""]","Yes","Male","1789461.3000000007","6301","","","{""product_choice"":""A""}","choice","tcd","attraction_2","2","microwave ovens","null","null","null","null","null","null","2","50","60","40","60","50","60","Warranty","Cooking power","",""
"","","","","","choice_trial_setup","html-keyboard-response","140","1467451","0.0-5.0-0.28","170","1","2025-04-14 14:24:58","bb671e3ae32f654b8954ea4c4635f915","","Mozilla/5.0 (X11; CrOS x86_64 14541.0.0) AppleWebKit/537.36 (KHTML, like Gecko) Chrome/134.0.0.0 Safari/537.36","WebKit","Chrome","134.0.0.0","ChromeOS","14541.0.0","https://hz8g1ckzuq.cognition.run/","en-US,en;q=0.9","tabceha9dmsr4vf","30","[""Other""]","Yes","Male","1789461.3000000007","null","","<p></p>","null","choice","cdt","repulsion_1","2","laptops","null","null","null","null","null","null","1","","","","","","","","","",""
"","","","","","choice_trial","survey-html-form","141","1477933","0.0-5.0-1.28","170","1","2025-04-14 14:24:58","bb671e3ae32f654b8954ea4c4635f915","","Mozilla/5.0 (X11; CrOS x86_64 14541.0.0) AppleWebKit/537.36 (KHTML, like Gecko) Chrome/134.0.0.0 Safari/537.36","WebKit","Chrome","134.0.0.0","ChromeOS","14541.0.0","https://hz8g1ckzuq.cognition.run/","en-US,en;q=0.9","tabceha9dmsr4vf","30","[""Other""]","Yes","Male","1789461.3000000007","10475","","","{""product_choice"":""A""}","choice","cdt","repulsion_1","2","laptops","null","null","null","null","null","null","1","30","40","25","100","90","100","Processing speed","Memory (RAM)","",""
"","","","","","choice_trial_setup","html-keyboard-response","142","1478238","0.0-5.0-0.29","170","1","2025-04-14 14:24:58","bb671e3ae32f654b8954ea4c4635f915","","Mozilla/5.0 (X11; CrOS x86_64 14541.0.0) AppleWebKit/537.36 (KHTML, like Gecko) Chrome/134.0.0.0 Safari/537.36","WebKit","Chrome","134.0.0.0","ChromeOS","14541.0.0","https://hz8g1ckzuq.cognition.run/","en-US,en;q=0.9","tabceha9dmsr4vf","30","[""Other""]","Yes","Male","1789461.3000000007","null","","<p></p>","null","choice","dtc","repulsion_2","1","laptops","null","null","null","null","null","null","1","","","","","","","","","",""
"","","","","","choice_trial","survey-html-form","143","1484726","0.0-5.0-1.29","170","1","2025-04-14 14:24:58","bb671e3ae32f654b8954ea4c4635f915","","Mozilla/5.0 (X11; CrOS x86_64 14541.0.0) AppleWebKit/537.36 (KHTML, like Gecko) Chrome/134.0.0.0 Safari/537.36","WebKit","Chrome","134.0.0.0","ChromeOS","14541.0.0","https://hz8g1ckzuq.cognition.run/","en-US,en;q=0.9","tabceha9dmsr4vf","30","[""Other""]","Yes","Male","1789461.3000000007","6480","","","{""product_choice"":""C""}","choice","dtc","repulsion_2","1","laptops","null","null","null","null","null","null","1","100","90","100","30","40","20","Processing speed","Memory (RAM)","",""
"","","","","","choice_trial_setup","html-keyboard-response","144","1485031","0.0-5.0-0.30","170","1","2025-04-14 14:24:58","bb671e3ae32f654b8954ea4c4635f915","","Mozilla/5.0 (X11; CrOS x86_64 14541.0.0) AppleWebKit/537.36 (KHTML, like Gecko) Chrome/134.0.0.0 Safari/537.36","WebKit","Chrome","134.0.0.0","ChromeOS","14541.0.0","https://hz8g1ckzuq.cognition.run/","en-US,en;q=0.9","tabceha9dmsr4vf","30","[""Other""]","Yes","Male","1789461.3000000007","null","","<p></p>","null","choice","ctd","attraction_1","1","microwave ovens","null","null","null","null","null","null","1","","","","","","","","","",""
"","","","","","choice_trial","survey-html-form","145","1494386","0.0-5.0-1.30","170","1","2025-04-14 14:24:58","bb671e3ae32f654b8954ea4c4635f915","","Mozilla/5.0 (X11; CrOS x86_64 14541.0.0) AppleWebKit/537.36 (KHTML, like Gecko) Chrome/134.0.0.0 Safari/537.36","WebKit","Chrome","134.0.0.0","ChromeOS","14541.0.0","https://hz8g1ckzuq.cognition.run/","en-US,en;q=0.9","tabceha9dmsr4vf","30","[""Other""]","Yes","Male","1789461.3000000007","9349","","","{""product_choice"":""A""}","choice","ctd","attraction_1","1","microwave ovens","null","null","null","null","null","null","1","60","50","60","50","60","45","Warranty","Cooking power","",""
"","","","","","choice_trial_setup","html-keyboard-response","146","1494694","0.0-5.0-0.31","170","1","2025-04-14 14:24:58","bb671e3ae32f654b8954ea4c4635f915","","Mozilla/5.0 (X11; CrOS x86_64 14541.0.0) AppleWebKit/537.36 (KHTML, like Gecko) Chrome/134.0.0.0 Safari/537.36","WebKit","Chrome","134.0.0.0","ChromeOS","14541.0.0","https://hz8g1ckzuq.cognition.run/","en-US,en;q=0.9","tabceha9dmsr4vf","30","[""Other""]","Yes","Male","1789461.3000000007","null","","<p></p>","null","choice","tdc","repulsion_1","1","laptops","null","null","null","null","null","null","2","","","","","","","","","",""
"","","","","","choice_trial","survey-html-form","147","1503188","0.0-5.0-1.31","170","1","2025-04-14 14:24:58","bb671e3ae32f654b8954ea4c4635f915","","Mozilla/5.0 (X11; CrOS x86_64 14541.0.0) AppleWebKit/537.36 (KHTML, like Gecko) Chrome/134.0.0.0 Safari/537.36","WebKit","Chrome","134.0.0.0","ChromeOS","14541.0.0","https://hz8g1ckzuq.cognition.run/","en-US,en;q=0.9","tabceha9dmsr4vf","30","[""Other""]","Yes","Male","1789461.3000000007","8482","","","{""product_choice"":""C""}","choice","tdc","repulsion_1","1","laptops","null","null","null","null","null","null","2","100","90","100","30","40","25","Processing speed","Memory (RAM)","",""
"","","","","","choice_trial_setup","html-keyboard-response","148","1503496","0.0-5.0-0.32","170","1","2025-04-14 14:24:58","bb671e3ae32f654b8954ea4c4635f915","","Mozilla/5.0 (X11; CrOS x86_64 14541.0.0) AppleWebKit/537.36 (KHTML, like Gecko) Chrome/134.0.0.0 Safari/537.36","WebKit","Chrome","134.0.0.0","ChromeOS","14541.0.0","https://hz8g1ckzuq.cognition.run/","en-US,en;q=0.9","tabceha9dmsr4vf","30","[""Other""]","Yes","Male","1789461.3000000007","null","","<p></p>","null","choice","tdc","repulsion_1","1","washing machines","null","null","null","null","null","null","2","","","","","","","","","",""
"","","","","","choice_trial","survey-html-form","149","1510460","0.0-5.0-1.32","170","1","2025-04-14 14:24:58","bb671e3ae32f654b8954ea4c4635f915","","Mozilla/5.0 (X11; CrOS x86_64 14541.0.0) AppleWebKit/537.36 (KHTML, like Gecko) Chrome/134.0.0.0 Safari/537.36","WebKit","Chrome","134.0.0.0","ChromeOS","14541.0.0","https://hz8g1ckzuq.cognition.run/","en-US,en;q=0.9","tabceha9dmsr4vf","30","[""Other""]","Yes","Male","1789461.3000000007","6958","","","{""product_choice"":""C""}","choice","tdc","repulsion_1","1","washing machines","null","null","null","null","null","null","2","100","90","100","30","40","25","Average lifespan","Energy savings","",""
"","","","","","choice_trial_setup","html-keyboard-response","150","1510764","0.0-5.0-0.33","170","1","2025-04-14 14:24:58","bb671e3ae32f654b8954ea4c4635f915","","Mozilla/5.0 (X11; CrOS x86_64 14541.0.0) AppleWebKit/537.36 (KHTML, like Gecko) Chrome/134.0.0.0 Safari/537.36","WebKit","Chrome","134.0.0.0","ChromeOS","14541.0.0","https://hz8g1ckzuq.cognition.run/","en-US,en;q=0.9","tabceha9dmsr4vf","30","[""Other""]","Yes","Male","1789461.3000000007","null","","<p></p>","null","choice","ctd","repulsion_2","2","televisions","null","null","null","null","null","null","2","","","","","","","","","",""
"","","","","","choice_trial","survey-html-form","151","1515914","0.0-5.0-1.33","170","1","2025-04-14 14:24:58","bb671e3ae32f654b8954ea4c4635f915","","Mozilla/5.0 (X11; CrOS x86_64 14541.0.0) AppleWebKit/537.36 (KHTML, like Gecko) Chrome/134.0.0.0 Safari/537.36","WebKit","Chrome","134.0.0.0","ChromeOS","14541.0.0","https://hz8g1ckzuq.cognition.run/","en-US,en;q=0.9","tabceha9dmsr4vf","30","[""Other""]","Yes","Male","1789461.3000000007","5143","","","{""product_choice"":""A""}","choice","ctd","repulsion_2","2","televisions","null","null","null","null","null","null","2","30","40","20","100","90","100","Screen size","Average lifespan","",""
"","","","","","choice_trial_setup","html-keyboard-response","152","1516222","0.0-5.0-0.34","170","1","2025-04-14 14:24:58","bb671e3ae32f654b8954ea4c4635f915","","Mozilla/5.0 (X11; CrOS x86_64 14541.0.0) AppleWebKit/537.36 (KHTML, like Gecko) Chrome/134.0.0.0 Safari/537.36","WebKit","Chrome","134.0.0.0","ChromeOS","14541.0.0","https://hz8g1ckzuq.cognition.run/","en-US,en;q=0.9","tabceha9dmsr4vf","30","[""Other""]","Yes","Male","1789461.3000000007","null","","<p></p>","null","choice","dct","repulsion_2","1","washing machines","null","null","null","null","null","null","2","","","","","","","","","",""
"","","","","","choice_trial","survey-html-form","153","1531733","0.0-5.0-1.34","170","1","2025-04-14 14:24:58","bb671e3ae32f654b8954ea4c4635f915","","Mozilla/5.0 (X11; CrOS x86_64 14541.0.0) AppleWebKit/537.36 (KHTML, like Gecko) Chrome/134.0.0.0 Safari/537.36","WebKit","Chrome","134.0.0.0","ChromeOS","14541.0.0","https://hz8g1ckzuq.cognition.run/","en-US,en;q=0.9","tabceha9dmsr4vf","30","[""Other""]","Yes","Male","1789461.3000000007","15504","","","{""product_choice"":""B""}","choice","dct","repulsion_2","1","washing machines","null","null","null","null","null","null","2","100","90","100","30","40","20","Average lifespan","Energy savings","",""
"","","","","","choice_trial_setup","html-keyboard-response","154","1532039","0.0-5.0-0.35","170","1","2025-04-14 14:24:58","bb671e3ae32f654b8954ea4c4635f915","","Mozilla/5.0 (X11; CrOS x86_64 14541.0.0) AppleWebKit/537.36 (KHTML, like Gecko) Chrome/134.0.0.0 Safari/537.36","WebKit","Chrome","134.0.0.0","ChromeOS","14541.0.0","https://hz8g1ckzuq.cognition.run/","en-US,en;q=0.9","tabceha9dmsr4vf","30","[""Other""]","Yes","Male","1789461.3000000007","null","","<p></p>","null","choice","wbw","catch","null","microwave ovens","75","80","20","5","45","40","1","","","","","","","","","",""
"","","","","","choice_trial","survey-html-form","155","1536383","0.0-5.0-1.35","170","1","2025-04-14 14:24:58","bb671e3ae32f654b8954ea4c4635f915","","Mozilla/5.0 (X11; CrOS x86_64 14541.0.0) AppleWebKit/537.36 (KHTML, like Gecko) Chrome/134.0.0.0 Safari/537.36","WebKit","Chrome","134.0.0.0","ChromeOS","14541.0.0","https://hz8g1ckzuq.cognition.run/","en-US,en;q=0.9","tabceha9dmsr4vf","30","[""Other""]","Yes","Male","1789461.3000000007","4337","","","{""product_choice"":""B""}","choice","wbw","catch","null","microwave ovens","75","80","20","5","45","40","1","null","null","null","null","null","null","Warranty","Cooking power","",""
"","","","","","choice_trial_setup","html-keyboard-response","156","1536692","0.0-5.0-0.36","170","1","2025-04-14 14:24:58","bb671e3ae32f654b8954ea4c4635f915","","Mozilla/5.0 (X11; CrOS x86_64 14541.0.0) AppleWebKit/537.36 (KHTML, like Gecko) Chrome/134.0.0.0 Safari/537.36","WebKit","Chrome","134.0.0.0","ChromeOS","14541.0.0","https://hz8g1ckzuq.cognition.run/","en-US,en;q=0.9","tabceha9dmsr4vf","30","[""Other""]","Yes","Male","1789461.3000000007","null","","<p></p>","null","choice","ctd","repulsion_2","2","washing machines","null","null","null","null","null","null","2","","","","","","","","","",""
