"success","timeout","failed_images","failed_audio","failed_video","screen_id","trial_type","trial_index","time_elapsed","internal_node_id","run_id","condition","recorded_at","source_code_version","ip","user_agent","device","browser","browser_version","platform","platform_version","referer","accept_language","ppt_id","age","race","ethnicity","gender","exp_duration","rt","view_history","stimulus","response","phase","order","effect","t_high","category","d1_best","d2_best","d1_worst1","d2_worst1","d1_worst2","d2_worst2","first_dim","d1_t","d1_c","d1_d","d2_t","d2_c","d2_d","d1_name","d2_name","strategy_response","question_order"
"true","false","[]","[]","[]","img preload","preload","0","105","0.0-0.0","171","1","2025-04-14 14:25:43","bb671e3ae32f654b8954ea4c4635f915","","Mozilla/5.0 (Windows NT 10.0; Win64; x64; rv:137.0) Gecko/20100101 Firefox/137.0","","Firefox","137.0","Windows","10.0","https://hz8g1ckzuq.cognition.run/","en-US,en;q=0.5","kn3o5p39gx78cmk","32","[""White""]","No","Female","1150267","","","","","","","","","","","","","","","","","","","","","","","","","",""
"true","","","","","","fullscreen","1","4960","0.0-1.0","171","1","2025-04-14 14:25:43","bb671e3ae32f654b8954ea4c4635f915","","Mozilla/5.0 (Windows NT 10.0; Win64; x64; rv:137.0) Gecko/20100101 Firefox/137.0","","Firefox","137.0","Windows","10.0","https://hz8g1ckzuq.cognition.run/","en-US,en;q=0.5","kn3o5p39gx78cmk","32","[""White""]","No","Female","1150267","3841","","","","","","","","","","","","","","","","","","","","","","","","",""
"","","","","","","instructions","2","103151","0.0-2.0","171","1","2025-04-14 14:25:43","bb671e3ae32f654b8954ea4c4635f915","","Mozilla/5.0 (Windows NT 10.0; Win64; x64; rv:137.0) Gecko/20100101 Firefox/137.0","","Firefox","137.0","Windows","10.0","https://hz8g1ckzuq.cognition.run/","en-US,en;q=0.5","kn3o5p39gx78cmk","32","[""White""]","No","Female","1150267","98190","[{""page_index"":0,""viewing_time"":2467},{""page_index"":1,""viewing_time"":3164},{""page_index"":2,""viewing_time"":7279},{""page_index"":3,""viewing_time"":3913},{""page_index"":4,""viewing_time"":8623},{""page_index"":5,""viewing_time"":6290},{""page_index"":6,""viewing_time"":43289},{""page_index"":7,""viewing_time"":15718},{""page_index"":8,""viewing_time"":3314},{""page_index"":9,""viewing_time"":4132}]","","","","","","","","","","","","","","","","","","","","","","","",""
"","","","","","rating_trial_setup","html-keyboard-response","3","103459","0.0-3.0-0.0","171","1","2025-04-14 14:25:43","bb671e3ae32f654b8954ea4c4635f915","","Mozilla/5.0 (Windows NT 10.0; Win64; x64; rv:137.0) Gecko/20100101 Firefox/137.0","","Firefox","137.0","Windows","10.0","https://hz8g1ckzuq.cognition.run/","en-US,en;q=0.5","kn3o5p39gx78cmk","32","[""White""]","No","Female","1150267","null","","<p></p>","null","rating","tdc","attraction_1","2","laptops","null","null","null","null","null","null","2","","","","","","","","","",""
"","","","","","rating_trial","survey-html-form","4","128784","0.0-3.0-1.0","171","1","2025-04-14 14:25:43","bb671e3ae32f654b8954ea4c4635f915","","Mozilla/5.0 (Windows NT 10.0; Win64; x64; rv:137.0) Gecko/20100101 Firefox/137.0","","Firefox","137.0","Windows","10.0","https://hz8g1ckzuq.cognition.run/","en-US,en;q=0.5","kn3o5p39gx78cmk","32","[""White""]","No","Female","1150267","25323","","","{""price_1"":""500"",""price_2"":""450"",""price_3"":""500""}","rating","tdc","attraction_1","2","laptops","null","null","null","null","null","null","2","50","60","45","60","50","60","Processing speed","Memory (RAM)","",""
"","","","","","rating_trial_setup","html-keyboard-response","5","129095","0.0-3.0-0.1","171","1","2025-04-14 14:25:43","bb671e3ae32f654b8954ea4c4635f915","","Mozilla/5.0 (Windows NT 10.0; Win64; x64; rv:137.0) Gecko/20100101 Firefox/137.0","","Firefox","137.0","Windows","10.0","https://hz8g1ckzuq.cognition.run/","en-US,en;q=0.5","kn3o5p39gx78cmk","32","[""White""]","No","Female","1150267","null","","<p></p>","null","rating","tdc","attraction_1","1","laptops","null","null","null","null","null","null","1","","","","","","","","","",""
"","","","","","rating_trial","survey-html-form","6","146806","0.0-3.0-1.1","171","1","2025-04-14 14:25:43","bb671e3ae32f654b8954ea4c4635f915","","Mozilla/5.0 (Windows NT 10.0; Win64; x64; rv:137.0) Gecko/20100101 Firefox/137.0","","Firefox","137.0","Windows","10.0","https://hz8g1ckzuq.cognition.run/","en-US,en;q=0.5","kn3o5p39gx78cmk","32","[""White""]","No","Female","1150267","17709","","","{""price_1"":""500"",""price_2"":""450"",""price_3"":""500""}","rating","tdc","attraction_1","1","laptops","null","null","null","null","null","null","1","60","50","60","50","60","45","Processing speed","Memory (RAM)","",""
"","","","","","rating_trial_setup","html-keyboard-response","7","147112","0.0-3.0-0.2","171","1","2025-04-14 14:25:43","bb671e3ae32f654b8954ea4c4635f915","","Mozilla/5.0 (Windows NT 10.0; Win64; x64; rv:137.0) Gecko/20100101 Firefox/137.0","","Firefox","137.0","Windows","10.0","https://hz8g1ckzuq.cognition.run/","en-US,en;q=0.5","kn3o5p39gx78cmk","32","[""White""]","No","Female","1150267","null","","<p></p>","null","rating","tdc","attraction_2","1","washing machines","null","null","null","null","null","null","1","","","","","","","","","",""
"","","","","","rating_trial","survey-html-form","8","165795","0.0-3.0-1.2","171","1","2025-04-14 14:25:43","bb671e3ae32f654b8954ea4c4635f915","","Mozilla/5.0 (Windows NT 10.0; Win64; x64; rv:137.0) Gecko/20100101 Firefox/137.0","","Firefox","137.0","Windows","10.0","https://hz8g1ckzuq.cognition.run/","en-US,en;q=0.5","kn3o5p39gx78cmk","32","[""White""]","No","Female","1150267","18681","","","{""price_1"":""700"",""price_2"":""650"",""price_3"":""700""}","rating","tdc","attraction_2","1","washing machines","null","null","null","null","null","null","1","60","50","60","50","60","40","Average lifespan","Energy savings","",""
"","","","","","rating_trial_setup","html-keyboard-response","9","166098","0.0-3.0-0.3","171","1","2025-04-14 14:25:43","bb671e3ae32f654b8954ea4c4635f915","","Mozilla/5.0 (Windows NT 10.0; Win64; x64; rv:137.0) Gecko/20100101 Firefox/137.0","","Firefox","137.0","Windows","10.0","https://hz8g1ckzuq.cognition.run/","en-US,en;q=0.5","kn3o5p39gx78cmk","32","[""White""]","No","Female","1150267","null","","<p></p>","null","rating","tcd","attraction_2","2","laptops","null","null","null","null","null","null","1","","","","","","","","","",""
"","","","","","rating_trial","survey-html-form","10","175760","0.0-3.0-1.3","171","1","2025-04-14 14:25:43","bb671e3ae32f654b8954ea4c4635f915","","Mozilla/5.0 (Windows NT 10.0; Win64; x64; rv:137.0) Gecko/20100101 Firefox/137.0","","Firefox","137.0","Windows","10.0","https://hz8g1ckzuq.cognition.run/","en-US,en;q=0.5","kn3o5p39gx78cmk","32","[""White""]","No","Female","1150267","9661","","","{""price_1"":""500"",""price_2"":""500"",""price_3"":""450""}","rating","tcd","attraction_2","2","laptops","null","null","null","null","null","null","1","50","60","40","60","50","60","Processing speed","Memory (RAM)","",""
"","","","","","rating_trial_setup","html-keyboard-response","11","176072","0.0-3.0-0.4","171","1","2025-04-14 14:25:43","bb671e3ae32f654b8954ea4c4635f915","","Mozilla/5.0 (Windows NT 10.0; Win64; x64; rv:137.0) Gecko/20100101 Firefox/137.0","","Firefox","137.0","Windows","10.0","https://hz8g1ckzuq.cognition.run/","en-US,en;q=0.5","kn3o5p39gx78cmk","32","[""White""]","No","Female","1150267","null","","<p></p>","null","rating","tdc","attraction_1","2","televisions","null","null","null","null","null","null","1","","","","","","","","","",""
"","","","","","rating_trial","survey-html-form","12","195881","0.0-3.0-1.4","171","1","2025-04-14 14:25:43","bb671e3ae32f654b8954ea4c4635f915","","Mozilla/5.0 (Windows NT 10.0; Win64; x64; rv:137.0) Gecko/20100101 Firefox/137.0","","Firefox","137.0","Windows","10.0","https://hz8g1ckzuq.cognition.run/","en-US,en;q=0.5","kn3o5p39gx78cmk","32","[""White""]","No","Female","1150267","19808","","","{""price_1"":""900"",""price_2"":""850"",""price_3"":""900""}","rating","tdc","attraction_1","2","televisions","null","null","null","null","null","null","1","50","60","45","60","50","60","Screen size","Average lifespan","",""
"","","","","","rating_trial_setup","html-keyboard-response","13","196198","0.0-3.0-0.5","171","1","2025-04-14 14:25:43","bb671e3ae32f654b8954ea4c4635f915","","Mozilla/5.0 (Windows NT 10.0; Win64; x64; rv:137.0) Gecko/20100101 Firefox/137.0","","Firefox","137.0","Windows","10.0","https://hz8g1ckzuq.cognition.run/","en-US,en;q=0.5","kn3o5p39gx78cmk","32","[""White""]","No","Female","1150267","null","","<p></p>","null","rating","ctd","repulsion_1","2","microwave ovens","null","null","null","null","null","null","2","","","","","","","","","",""
"","","","","","rating_trial","survey-html-form","14","214429","0.0-3.0-1.5","171","1","2025-04-14 14:25:43","bb671e3ae32f654b8954ea4c4635f915","","Mozilla/5.0 (Windows NT 10.0; Win64; x64; rv:137.0) Gecko/20100101 Firefox/137.0","","Firefox","137.0","Windows","10.0","https://hz8g1ckzuq.cognition.run/","en-US,en;q=0.5","kn3o5p39gx78cmk","32","[""White""]","No","Female","1150267","18230","","","{""price_1"":""80"",""price_2"":""75"",""price_3"":""65""}","rating","ctd","repulsion_1","2","microwave ovens","null","null","null","null","null","null","2","30","40","25","100","90","100","Warranty","Cooking power","",""
"","","","","","rating_trial_setup","html-keyboard-response","15","214733","0.0-3.0-0.6","171","1","2025-04-14 14:25:43","bb671e3ae32f654b8954ea4c4635f915","","Mozilla/5.0 (Windows NT 10.0; Win64; x64; rv:137.0) Gecko/20100101 Firefox/137.0","","Firefox","137.0","Windows","10.0","https://hz8g1ckzuq.cognition.run/","en-US,en;q=0.5","kn3o5p39gx78cmk","32","[""White""]","No","Female","1150267","null","","<p></p>","null","rating","tcd","repulsion_1","1","laptops","null","null","null","null","null","null","2","","","","","","","","","",""
"","","","","","rating_trial","survey-html-form","16","240893","0.0-3.0-1.6","171","1","2025-04-14 14:25:43","bb671e3ae32f654b8954ea4c4635f915","","Mozilla/5.0 (Windows NT 10.0; Win64; x64; rv:137.0) Gecko/20100101 Firefox/137.0","","Firefox","137.0","Windows","10.0","https://hz8g1ckzuq.cognition.run/","en-US,en;q=0.5","kn3o5p39gx78cmk","32","[""White""]","No","Female","1150267","26157","","","{""price_1"":""400"",""price_2"":""450"",""price_3"":""400""}","rating","tcd","repulsion_1","1","laptops","null","null","null","null","null","null","2","100","90","100","30","40","25","Processing speed","Memory (RAM)","",""
"","","","","","rating_trial_setup","html-keyboard-response","17","241215","0.0-3.0-0.7","171","1","2025-04-14 14:25:43","bb671e3ae32f654b8954ea4c4635f915","","Mozilla/5.0 (Windows NT 10.0; Win64; x64; rv:137.0) Gecko/20100101 Firefox/137.0","","Firefox","137.0","Windows","10.0","https://hz8g1ckzuq.cognition.run/","en-US,en;q=0.5","kn3o5p39gx78cmk","32","[""White""]","No","Female","1150267","null","","<p></p>","null","rating","wwb","catch","null","televisions","65","85","10","20","5","10","1","","","","","","","","","",""
"","","","","","rating_trial","survey-html-form","18","304138","0.0-3.0-1.7","171","1","2025-04-14 14:25:43","bb671e3ae32f654b8954ea4c4635f915","","Mozilla/5.0 (Windows NT 10.0; Win64; x64; rv:137.0) Gecko/20100101 Firefox/137.0","","Firefox","137.0","Windows","10.0","https://hz8g1ckzuq.cognition.run/","en-US,en;q=0.5","kn3o5p39gx78cmk","32","[""White""]","No","Female","1150267","62918","","","{""price_1"":""50"",""price_2"":""25"",""price_3"":""500""}","rating","wwb","catch","null","televisions","65","85","10","20","5","10","1","null","null","null","null","null","null","Screen size","Average lifespan","",""
"","","","","","rating_trial_setup","html-keyboard-response","19","304453","0.0-3.0-0.8","171","1","2025-04-14 14:25:43","bb671e3ae32f654b8954ea4c4635f915","","Mozilla/5.0 (Windows NT 10.0; Win64; x64; rv:137.0) Gecko/20100101 Firefox/137.0","","Firefox","137.0","Windows","10.0","https://hz8g1ckzuq.cognition.run/","en-US,en;q=0.5","kn3o5p39gx78cmk","32","[""White""]","No","Female","1150267","null","","<p></p>","null","rating","tcd","repulsion_1","2","televisions","null","null","null","null","null","null","2","","","","","","","","","",""
"","","","","","rating_trial","survey-html-form","20","321854","0.0-3.0-1.8","171","1","2025-04-14 14:25:43","bb671e3ae32f654b8954ea4c4635f915","","Mozilla/5.0 (Windows NT 10.0; Win64; x64; rv:137.0) Gecko/20100101 Firefox/137.0","","Firefox","137.0","Windows","10.0","https://hz8g1ckzuq.cognition.run/","en-US,en;q=0.5","kn3o5p39gx78cmk","32","[""White""]","No","Female","1150267","17399","","","{""price_1"":""150"",""price_2"":""150"",""price_3"":""125""}","rating","tcd","repulsion_1","2","televisions","null","null","null","null","null","null","2","30","40","25","100","90","100","Screen size","Average lifespan","",""
"","","","","","rating_trial_setup","html-keyboard-response","21","322157","0.0-3.0-0.9","171","1","2025-04-14 14:25:43","bb671e3ae32f654b8954ea4c4635f915","","Mozilla/5.0 (Windows NT 10.0; Win64; x64; rv:137.0) Gecko/20100101 Firefox/137.0","","Firefox","137.0","Windows","10.0","https://hz8g1ckzuq.cognition.run/","en-US,en;q=0.5","kn3o5p39gx78cmk","32","[""White""]","No","Female","1150267","null","","<p></p>","null","rating","ctd","repulsion_2","2","microwave ovens","null","null","null","null","null","null","2","","","","","","","","","",""
"","","","","","rating_trial","survey-html-form","22","332963","0.0-3.0-1.9","171","1","2025-04-14 14:25:43","bb671e3ae32f654b8954ea4c4635f915","","Mozilla/5.0 (Windows NT 10.0; Win64; x64; rv:137.0) Gecko/20100101 Firefox/137.0","","Firefox","137.0","Windows","10.0","https://hz8g1ckzuq.cognition.run/","en-US,en;q=0.5","kn3o5p39gx78cmk","32","[""White""]","No","Female","1150267","10805","","","{""price_1"":""80"",""price_2"":""80"",""price_3"":""75""}","rating","ctd","repulsion_2","2","microwave ovens","null","null","null","null","null","null","2","30","40","20","100","90","100","Warranty","Cooking power","",""
"","","","","","rating_trial_setup","html-keyboard-response","23","333266","0.0-3.0-0.10","171","1","2025-04-14 14:25:43","bb671e3ae32f654b8954ea4c4635f915","","Mozilla/5.0 (Windows NT 10.0; Win64; x64; rv:137.0) Gecko/20100101 Firefox/137.0","","Firefox","137.0","Windows","10.0","https://hz8g1ckzuq.cognition.run/","en-US,en;q=0.5","kn3o5p39gx78cmk","32","[""White""]","No","Female","1150267","null","","<p></p>","null","rating","tdc","repulsion_2","2","televisions","null","null","null","null","null","null","2","","","","","","","","","",""
"","","","","","rating_trial","survey-html-form","24","394996","0.0-3.0-1.10","171","1","2025-04-14 14:25:43","bb671e3ae32f654b8954ea4c4635f915","","Mozilla/5.0 (Windows NT 10.0; Win64; x64; rv:137.0) Gecko/20100101 Firefox/137.0","","Firefox","137.0","Windows","10.0","https://hz8g1ckzuq.cognition.run/","en-US,en;q=0.5","kn3o5p39gx78cmk","32","[""White""]","No","Female","1150267","61728","","","{""price_1"":""500"",""price_2"":""450"",""price_3"":""450""}","rating","tdc","repulsion_2","2","televisions","null","null","null","null","null","null","2","30","40","20","100","90","100","Screen size","Average lifespan","",""
"","","","","","rating_trial_setup","html-keyboard-response","25","395309","0.0-3.0-0.11","171","1","2025-04-14 14:25:43","bb671e3ae32f654b8954ea4c4635f915","","Mozilla/5.0 (Windows NT 10.0; Win64; x64; rv:137.0) Gecko/20100101 Firefox/137.0","","Firefox","137.0","Windows","10.0","https://hz8g1ckzuq.cognition.run/","en-US,en;q=0.5","kn3o5p39gx78cmk","32","[""White""]","No","Female","1150267","null","","<p></p>","null","rating","ctd","repulsion_1","1","microwave ovens","null","null","null","null","null","null","1","","","","","","","","","",""
"","","","","","rating_trial","survey-html-form","26","405386","0.0-3.0-1.11","171","1","2025-04-14 14:25:43","bb671e3ae32f654b8954ea4c4635f915","","Mozilla/5.0 (Windows NT 10.0; Win64; x64; rv:137.0) Gecko/20100101 Firefox/137.0","","Firefox","137.0","Windows","10.0","https://hz8g1ckzuq.cognition.run/","en-US,en;q=0.5","kn3o5p39gx78cmk","32","[""White""]","No","Female","1150267","10073","","","{""price_1"":""85"",""price_2"":""85"",""price_3"":""85""}","rating","ctd","repulsion_1","1","microwave ovens","null","null","null","null","null","null","1","100","90","100","30","40","25","Warranty","Cooking power","",""
"","","","","","rating_trial_setup","html-keyboard-response","27","405694","0.0-3.0-0.12","171","1","2025-04-14 14:25:43","bb671e3ae32f654b8954ea4c4635f915","","Mozilla/5.0 (Windows NT 10.0; Win64; x64; rv:137.0) Gecko/20100101 Firefox/137.0","","Firefox","137.0","Windows","10.0","https://hz8g1ckzuq.cognition.run/","en-US,en;q=0.5","kn3o5p39gx78cmk","32","[""White""]","No","Female","1150267","null","","<p></p>","null","rating","cdt","repulsion_2","2","laptops","null","null","null","null","null","null","1","","","","","","","","","",""
"","","","","","rating_trial","survey-html-form","28","424726","0.0-3.0-1.12","171","1","2025-04-14 14:25:43","bb671e3ae32f654b8954ea4c4635f915","","Mozilla/5.0 (Windows NT 10.0; Win64; x64; rv:137.0) Gecko/20100101 Firefox/137.0","","Firefox","137.0","Windows","10.0","https://hz8g1ckzuq.cognition.run/","en-US,en;q=0.5","kn3o5p39gx78cmk","32","[""White""]","No","Female","1150267","19031","","","{""price_1"":""450"",""price_2"":""450"",""price_3"":""500""}","rating","cdt","repulsion_2","2","laptops","null","null","null","null","null","null","1","30","40","20","100","90","100","Processing speed","Memory (RAM)","",""
"","","","","","rating_trial_setup","html-keyboard-response","29","425039","0.0-3.0-0.13","171","1","2025-04-14 14:25:43","bb671e3ae32f654b8954ea4c4635f915","","Mozilla/5.0 (Windows NT 10.0; Win64; x64; rv:137.0) Gecko/20100101 Firefox/137.0","","Firefox","137.0","Windows","10.0","https://hz8g1ckzuq.cognition.run/","en-US,en;q=0.5","kn3o5p39gx78cmk","32","[""White""]","No","Female","1150267","null","","<p></p>","null","rating","wwb","catch","null","televisions","80","65","45","45","25","45","1","","","","","","","","","",""
"","","","","","rating_trial","survey-html-form","30","468765","0.0-3.0-1.13","171","1","2025-04-14 14:25:43","bb671e3ae32f654b8954ea4c4635f915","","Mozilla/5.0 (Windows NT 10.0; Win64; x64; rv:137.0) Gecko/20100101 Firefox/137.0","","Firefox","137.0","Windows","10.0","https://hz8g1ckzuq.cognition.run/","en-US,en;q=0.5","kn3o5p39gx78cmk","32","[""White""]","No","Female","1150267","43724","","","{""price_1"":""450"",""price_2"":""350"",""price_3"":""550""}","rating","wwb","catch","null","televisions","80","65","45","45","25","45","1","null","null","null","null","null","null","Screen size","Average lifespan","",""
"","","","","","rating_trial_setup","html-keyboard-response","31","469081","0.0-3.0-0.14","171","1","2025-04-14 14:25:43","bb671e3ae32f654b8954ea4c4635f915","","Mozilla/5.0 (Windows NT 10.0; Win64; x64; rv:137.0) Gecko/20100101 Firefox/137.0","","Firefox","137.0","Windows","10.0","https://hz8g1ckzuq.cognition.run/","en-US,en;q=0.5","kn3o5p39gx78cmk","32","[""White""]","No","Female","1150267","null","","<p></p>","null","rating","dct","attraction_1","1","washing machines","null","null","null","null","null","null","1","","","","","","","","","",""
"","","","","","rating_trial","survey-html-form","32","486263","0.0-3.0-1.14","171","1","2025-04-14 14:25:43","bb671e3ae32f654b8954ea4c4635f915","","Mozilla/5.0 (Windows NT 10.0; Win64; x64; rv:137.0) Gecko/20100101 Firefox/137.0","","Firefox","137.0","Windows","10.0","https://hz8g1ckzuq.cognition.run/","en-US,en;q=0.5","kn3o5p39gx78cmk","32","[""White""]","No","Female","1150267","17181","","","{""price_1"":""800"",""price_2"":""850"",""price_3"":""825""}","rating","dct","attraction_1","1","washing machines","null","null","null","null","null","null","1","60","50","60","50","60","45","Average lifespan","Energy savings","",""
"","","","","","rating_trial_setup","html-keyboard-response","33","486572","0.0-3.0-0.15","171","1","2025-04-14 14:25:43","bb671e3ae32f654b8954ea4c4635f915","","Mozilla/5.0 (Windows NT 10.0; Win64; x64; rv:137.0) Gecko/20100101 Firefox/137.0","","Firefox","137.0","Windows","10.0","https://hz8g1ckzuq.cognition.run/","en-US,en;q=0.5","kn3o5p39gx78cmk","32","[""White""]","No","Female","1150267","null","","<p></p>","null","rating","ctd","attraction_1","1","microwave ovens","null","null","null","null","null","null","1","","","","","","","","","",""
"","","","","","rating_trial","survey-html-form","34","561892","0.0-3.0-1.15","171","1","2025-04-14 14:25:43","bb671e3ae32f654b8954ea4c4635f915","","Mozilla/5.0 (Windows NT 10.0; Win64; x64; rv:137.0) Gecko/20100101 Firefox/137.0","","Firefox","137.0","Windows","10.0","https://hz8g1ckzuq.cognition.run/","en-US,en;q=0.5","kn3o5p39gx78cmk","32","[""White""]","No","Female","1150267","75320","","","{""price_1"":""80"",""price_2"":""80"",""price_3"":""75""}","rating","ctd","attraction_1","1","microwave ovens","null","null","null","null","null","null","1","60","50","60","50","60","45","Warranty","Cooking power","",""
"","","","","","rating_trial_setup","html-keyboard-response","35","562207","0.0-3.0-0.16","171","1","2025-04-14 14:25:43","bb671e3ae32f654b8954ea4c4635f915","","Mozilla/5.0 (Windows NT 10.0; Win64; x64; rv:137.0) Gecko/20100101 Firefox/137.0","","Firefox","137.0","Windows","10.0","https://hz8g1ckzuq.cognition.run/","en-US,en;q=0.5","kn3o5p39gx78cmk","32","[""White""]","No","Female","1150267","null","","<p></p>","null","rating","wbw","catch","null","washing machines","80","50","20","5","5","15","2","","","","","","","","","",""
"","","","","","rating_trial","survey-html-form","36","572875","0.0-3.0-1.16","171","1","2025-04-14 14:25:43","bb671e3ae32f654b8954ea4c4635f915","","Mozilla/5.0 (Windows NT 10.0; Win64; x64; rv:137.0) Gecko/20100101 Firefox/137.0","","Firefox","137.0","Windows","10.0","https://hz8g1ckzuq.cognition.run/","en-US,en;q=0.5","kn3o5p39gx78cmk","32","[""White""]","No","Female","1150267","10666","","","{""price_1"":""400"",""price_2"":""450"",""price_3"":""50""}","rating","wbw","catch","null","washing machines","80","50","20","5","5","15","2","null","null","null","null","null","null","Average lifespan","Energy savings","",""
"","","","","","rating_trial_setup","html-keyboard-response","37","573180","0.0-3.0-0.17","171","1","2025-04-14 14:25:43","bb671e3ae32f654b8954ea4c4635f915","","Mozilla/5.0 (Windows NT 10.0; Win64; x64; rv:137.0) Gecko/20100101 Firefox/137.0","","Firefox","137.0","Windows","10.0","https://hz8g1ckzuq.cognition.run/","en-US,en;q=0.5","kn3o5p39gx78cmk","32","[""White""]","No","Female","1150267","null","","<p></p>","null","rating","tdc","attraction_1","2","washing machines","null","null","null","null","null","null","1","","","","","","","","","",""
"","","","","","rating_trial","survey-html-form","38","586818","0.0-3.0-1.17","171","1","2025-04-14 14:25:43","bb671e3ae32f654b8954ea4c4635f915","","Mozilla/5.0 (Windows NT 10.0; Win64; x64; rv:137.0) Gecko/20100101 Firefox/137.0","","Firefox","137.0","Windows","10.0","https://hz8g1ckzuq.cognition.run/","en-US,en;q=0.5","kn3o5p39gx78cmk","32","[""White""]","No","Female","1150267","13637","","","{""price_1"":""500"",""price_2"":""450"",""price_3"":""500""}","rating","tdc","attraction_1","2","washing machines","null","null","null","null","null","null","1","50","60","45","60","50","60","Average lifespan","Energy savings","",""
"","","","","","rating_trial_setup","html-keyboard-response","39","587124","0.0-3.0-0.18","171","1","2025-04-14 14:25:43","bb671e3ae32f654b8954ea4c4635f915","","Mozilla/5.0 (Windows NT 10.0; Win64; x64; rv:137.0) Gecko/20100101 Firefox/137.0","","Firefox","137.0","Windows","10.0","https://hz8g1ckzuq.cognition.run/","en-US,en;q=0.5","kn3o5p39gx78cmk","32","[""White""]","No","Female","1150267","null","","<p></p>","null","rating","dct","repulsion_1","1","televisions","null","null","null","null","null","null","2","","","","","","","","","",""
"","","","","","rating_trial","survey-html-form","40","602158","0.0-3.0-1.18","171","1","2025-04-14 14:25:43","bb671e3ae32f654b8954ea4c4635f915","","Mozilla/5.0 (Windows NT 10.0; Win64; x64; rv:137.0) Gecko/20100101 Firefox/137.0","","Firefox","137.0","Windows","10.0","https://hz8g1ckzuq.cognition.run/","en-US,en;q=0.5","kn3o5p39gx78cmk","32","[""White""]","No","Female","1150267","15033","","","{""price_1"":""700"",""price_2"":""750"",""price_3"":""750""}","rating","dct","repulsion_1","1","televisions","null","null","null","null","null","null","2","100","90","100","30","40","25","Screen size","Average lifespan","",""
"","","","","","rating_trial_setup","html-keyboard-response","41","602465","0.0-3.0-0.19","171","1","2025-04-14 14:25:43","bb671e3ae32f654b8954ea4c4635f915","","Mozilla/5.0 (Windows NT 10.0; Win64; x64; rv:137.0) Gecko/20100101 Firefox/137.0","","Firefox","137.0","Windows","10.0","https://hz8g1ckzuq.cognition.run/","en-US,en;q=0.5","kn3o5p39gx78cmk","32","[""White""]","No","Female","1150267","null","","<p></p>","null","rating","dct","attraction_2","2","microwave ovens","null","null","null","null","null","null","1","","","","","","","","","",""
"","","","","","rating_trial","survey-html-form","42","616232","0.0-3.0-1.19","171","1","2025-04-14 14:25:43","bb671e3ae32f654b8954ea4c4635f915","","Mozilla/5.0 (Windows NT 10.0; Win64; x64; rv:137.0) Gecko/20100101 Firefox/137.0","","Firefox","137.0","Windows","10.0","https://hz8g1ckzuq.cognition.run/","en-US,en;q=0.5","kn3o5p39gx78cmk","32","[""White""]","No","Female","1150267","13765","","","{""price_1"":""70"",""price_2"":""85"",""price_3"":""85""}","rating","dct","attraction_2","2","microwave ovens","null","null","null","null","null","null","1","50","60","40","60","50","60","Warranty","Cooking power","",""
"","","","","","rating_trial_setup","html-keyboard-response","43","616534","0.0-3.0-0.20","171","1","2025-04-14 14:25:43","bb671e3ae32f654b8954ea4c4635f915","","Mozilla/5.0 (Windows NT 10.0; Win64; x64; rv:137.0) Gecko/20100101 Firefox/137.0","","Firefox","137.0","Windows","10.0","https://hz8g1ckzuq.cognition.run/","en-US,en;q=0.5","kn3o5p39gx78cmk","32","[""White""]","No","Female","1150267","null","","<p></p>","null","rating","wwb","catch","null","microwave ovens","70","80","50","45","20","30","1","","","","","","","","","",""
"","","","","","rating_trial","survey-html-form","44","629074","0.0-3.0-1.20","171","1","2025-04-14 14:25:43","bb671e3ae32f654b8954ea4c4635f915","","Mozilla/5.0 (Windows NT 10.0; Win64; x64; rv:137.0) Gecko/20100101 Firefox/137.0","","Firefox","137.0","Windows","10.0","https://hz8g1ckzuq.cognition.run/","en-US,en;q=0.5","kn3o5p39gx78cmk","32","[""White""]","No","Female","1150267","12537","","","{""price_1"":""45"",""price_2"":""20"",""price_3"":""85""}","rating","wwb","catch","null","microwave ovens","70","80","50","45","20","30","1","null","null","null","null","null","null","Warranty","Cooking power","",""
"","","","","","rating_trial_setup","html-keyboard-response","45","629376","0.0-3.0-0.21","171","1","2025-04-14 14:25:43","bb671e3ae32f654b8954ea4c4635f915","","Mozilla/5.0 (Windows NT 10.0; Win64; x64; rv:137.0) Gecko/20100101 Firefox/137.0","","Firefox","137.0","Windows","10.0","https://hz8g1ckzuq.cognition.run/","en-US,en;q=0.5","kn3o5p39gx78cmk","32","[""White""]","No","Female","1150267","null","","<p></p>","null","rating","dct","repulsion_1","2","laptops","null","null","null","null","null","null","2","","","","","","","","","",""
"","","","","","rating_trial","survey-html-form","46","648505","0.0-3.0-1.21","171","1","2025-04-14 14:25:43","bb671e3ae32f654b8954ea4c4635f915","","Mozilla/5.0 (Windows NT 10.0; Win64; x64; rv:137.0) Gecko/20100101 Firefox/137.0","","Firefox","137.0","Windows","10.0","https://hz8g1ckzuq.cognition.run/","en-US,en;q=0.5","kn3o5p39gx78cmk","32","[""White""]","No","Female","1150267","19127","","","{""price_1"":""450"",""price_2"":""550"",""price_3"":""500""}","rating","dct","repulsion_1","2","laptops","null","null","null","null","null","null","2","30","40","25","100","90","100","Processing speed","Memory (RAM)","",""
"","","","","","rating_trial_setup","html-keyboard-response","47","648822","0.0-3.0-0.22","171","1","2025-04-14 14:25:43","bb671e3ae32f654b8954ea4c4635f915","","Mozilla/5.0 (Windows NT 10.0; Win64; x64; rv:137.0) Gecko/20100101 Firefox/137.0","","Firefox","137.0","Windows","10.0","https://hz8g1ckzuq.cognition.run/","en-US,en;q=0.5","kn3o5p39gx78cmk","32","[""White""]","No","Female","1150267","null","","<p></p>","null","rating","tdc","attraction_2","2","televisions","null","null","null","null","null","null","2","","","","","","","","","",""
"","","","","","rating_trial","survey-html-form","48","661707","0.0-3.0-1.22","171","1","2025-04-14 14:25:43","bb671e3ae32f654b8954ea4c4635f915","","Mozilla/5.0 (Windows NT 10.0; Win64; x64; rv:137.0) Gecko/20100101 Firefox/137.0","","Firefox","137.0","Windows","10.0","https://hz8g1ckzuq.cognition.run/","en-US,en;q=0.5","kn3o5p39gx78cmk","32","[""White""]","No","Female","1150267","12883","","","{""price_1"":""800"",""price_2"":""700"",""price_3"":""800""}","rating","tdc","attraction_2","2","televisions","null","null","null","null","null","null","2","50","60","40","60","50","60","Screen size","Average lifespan","",""
"","","","","","rating_trial_setup","html-keyboard-response","49","662017","0.0-3.0-0.23","171","1","2025-04-14 14:25:43","bb671e3ae32f654b8954ea4c4635f915","","Mozilla/5.0 (Windows NT 10.0; Win64; x64; rv:137.0) Gecko/20100101 Firefox/137.0","","Firefox","137.0","Windows","10.0","https://hz8g1ckzuq.cognition.run/","en-US,en;q=0.5","kn3o5p39gx78cmk","32","[""White""]","No","Female","1150267","null","","<p></p>","null","rating","dtc","attraction_2","1","laptops","null","null","null","null","null","null","1","","","","","","","","","",""
"","","","","","rating_trial","survey-html-form","50","674994","0.0-3.0-1.23","171","1","2025-04-14 14:25:43","bb671e3ae32f654b8954ea4c4635f915","","Mozilla/5.0 (Windows NT 10.0; Win64; x64; rv:137.0) Gecko/20100101 Firefox/137.0","","Firefox","137.0","Windows","10.0","https://hz8g1ckzuq.cognition.run/","en-US,en;q=0.5","kn3o5p39gx78cmk","32","[""White""]","No","Female","1150267","12975","","","{""price_1"":""500"",""price_2"":""550"",""price_3"":""550""}","rating","dtc","attraction_2","1","laptops","null","null","null","null","null","null","1","60","50","60","50","60","40","Processing speed","Memory (RAM)","",""
"","","","","","rating_trial_setup","html-keyboard-response","51","675296","0.0-3.0-0.24","171","1","2025-04-14 14:25:43","bb671e3ae32f654b8954ea4c4635f915","","Mozilla/5.0 (Windows NT 10.0; Win64; x64; rv:137.0) Gecko/20100101 Firefox/137.0","","Firefox","137.0","Windows","10.0","https://hz8g1ckzuq.cognition.run/","en-US,en;q=0.5","kn3o5p39gx78cmk","32","[""White""]","No","Female","1150267","null","","<p></p>","null","rating","ctd","repulsion_2","1","washing machines","null","null","null","null","null","null","2","","","","","","","","","",""
"","","","","","rating_trial","survey-html-form","52","688675","0.0-3.0-1.24","171","1","2025-04-14 14:25:43","bb671e3ae32f654b8954ea4c4635f915","","Mozilla/5.0 (Windows NT 10.0; Win64; x64; rv:137.0) Gecko/20100101 Firefox/137.0","","Firefox","137.0","Windows","10.0","https://hz8g1ckzuq.cognition.run/","en-US,en;q=0.5","kn3o5p39gx78cmk","32","[""White""]","No","Female","1150267","13377","","","{""price_1"":""900"",""price_2"":""850"",""price_3"":""800""}","rating","ctd","repulsion_2","1","washing machines","null","null","null","null","null","null","2","100","90","100","30","40","20","Average lifespan","Energy savings","",""
"","","","","","rating_trial_setup","html-keyboard-response","53","688981","0.0-3.0-0.25","171","1","2025-04-14 14:25:43","bb671e3ae32f654b8954ea4c4635f915","","Mozilla/5.0 (Windows NT 10.0; Win64; x64; rv:137.0) Gecko/20100101 Firefox/137.0","","Firefox","137.0","Windows","10.0","https://hz8g1ckzuq.cognition.run/","en-US,en;q=0.5","kn3o5p39gx78cmk","32","[""White""]","No","Female","1150267","null","","<p></p>","null","rating","ctd","repulsion_2","2","washing machines","null","null","null","null","null","null","2","","","","","","","","","",""
"","","","","","rating_trial","survey-html-form","54","704419","0.0-3.0-1.25","171","1","2025-04-14 14:25:43","bb671e3ae32f654b8954ea4c4635f915","","Mozilla/5.0 (Windows NT 10.0; Win64; x64; rv:137.0) Gecko/20100101 Firefox/137.0","","Firefox","137.0","Windows","10.0","https://hz8g1ckzuq.cognition.run/","en-US,en;q=0.5","kn3o5p39gx78cmk","32","[""White""]","No","Female","1150267","15437","","","{""price_1"":""750"",""price_2"":""800"",""price_3"":""750""}","rating","ctd","repulsion_2","2","washing machines","null","null","null","null","null","null","2","30","40","20","100","90","100","Average lifespan","Energy savings","",""
"","","","","","rating_trial_setup","html-keyboard-response","55","704735","0.0-3.0-0.26","171","1","2025-04-14 14:25:43","bb671e3ae32f654b8954ea4c4635f915","","Mozilla/5.0 (Windows NT 10.0; Win64; x64; rv:137.0) Gecko/20100101 Firefox/137.0","","Firefox","137.0","Windows","10.0","https://hz8g1ckzuq.cognition.run/","en-US,en;q=0.5","kn3o5p39gx78cmk","32","[""White""]","No","Female","1150267","null","","<p></p>","null","rating","bww","catch","null","laptops","95","70","10","40","5","10","1","","","","","","","","","",""
"","","","","","rating_trial","survey-html-form","56","724075","0.0-3.0-1.26","171","1","2025-04-14 14:25:43","bb671e3ae32f654b8954ea4c4635f915","","Mozilla/5.0 (Windows NT 10.0; Win64; x64; rv:137.0) Gecko/20100101 Firefox/137.0","","Firefox","137.0","Windows","10.0","https://hz8g1ckzuq.cognition.run/","en-US,en;q=0.5","kn3o5p39gx78cmk","32","[""White""]","No","Female","1150267","19339","","","{""price_1"":""500"",""price_2"":""350"",""price_3"":""200""}","rating","bww","catch","null","laptops","95","70","10","40","5","10","1","null","null","null","null","null","null","Processing speed","Memory (RAM)","",""
"","","","","","rating_trial_setup","html-keyboard-response","57","724395","0.0-3.0-0.27","171","1","2025-04-14 14:25:43","bb671e3ae32f654b8954ea4c4635f915","","Mozilla/5.0 (Windows NT 10.0; Win64; x64; rv:137.0) Gecko/20100101 Firefox/137.0","","Firefox","137.0","Windows","10.0","https://hz8g1ckzuq.cognition.run/","en-US,en;q=0.5","kn3o5p39gx78cmk","32","[""White""]","No","Female","1150267","null","","<p></p>","null","rating","wwb","catch","null","laptops","50","80","5","5","35","15","1","","","","","","","","","",""
"","","","","","rating_trial","survey-html-form","58","743082","0.0-3.0-1.27","171","1","2025-04-14 14:25:43","bb671e3ae32f654b8954ea4c4635f915","","Mozilla/5.0 (Windows NT 10.0; Win64; x64; rv:137.0) Gecko/20100101 Firefox/137.0","","Firefox","137.0","Windows","10.0","https://hz8g1ckzuq.cognition.run/","en-US,en;q=0.5","kn3o5p39gx78cmk","32","[""White""]","No","Female","1150267","18685","","","{""price_1"":""50"",""price_2"":""150"",""price_3"":""500""}","rating","wwb","catch","null","laptops","50","80","5","5","35","15","1","null","null","null","null","null","null","Processing speed","Memory (RAM)","",""
"","","","","","rating_trial_setup","html-keyboard-response","59","743398","0.0-3.0-0.28","171","1","2025-04-14 14:25:43","bb671e3ae32f654b8954ea4c4635f915","","Mozilla/5.0 (Windows NT 10.0; Win64; x64; rv:137.0) Gecko/20100101 Firefox/137.0","","Firefox","137.0","Windows","10.0","https://hz8g1ckzuq.cognition.run/","en-US,en;q=0.5","kn3o5p39gx78cmk","32","[""White""]","No","Female","1150267","null","","<p></p>","null","rating","ctd","attraction_2","1","microwave ovens","null","null","null","null","null","null","1","","","","","","","","","",""
"","","","","","rating_trial","survey-html-form","60","753703","0.0-3.0-1.28","171","1","2025-04-14 14:25:43","bb671e3ae32f654b8954ea4c4635f915","","Mozilla/5.0 (Windows NT 10.0; Win64; x64; rv:137.0) Gecko/20100101 Firefox/137.0","","Firefox","137.0","Windows","10.0","https://hz8g1ckzuq.cognition.run/","en-US,en;q=0.5","kn3o5p39gx78cmk","32","[""White""]","No","Female","1150267","10305","","","{""price_1"":""80"",""price_2"":""80"",""price_3"":""75""}","rating","ctd","attraction_2","1","microwave ovens","null","null","null","null","null","null","1","60","50","60","50","60","40","Warranty","Cooking power","",""
"","","","","","rating_trial_setup","html-keyboard-response","61","754011","0.0-3.0-0.29","171","1","2025-04-14 14:25:43","bb671e3ae32f654b8954ea4c4635f915","","Mozilla/5.0 (Windows NT 10.0; Win64; x64; rv:137.0) Gecko/20100101 Firefox/137.0","","Firefox","137.0","Windows","10.0","https://hz8g1ckzuq.cognition.run/","en-US,en;q=0.5","kn3o5p39gx78cmk","32","[""White""]","No","Female","1150267","null","","<p></p>","null","rating","cdt","repulsion_2","1","laptops","null","null","null","null","null","null","1","","","","","","","","","",""
"","","","","","rating_trial","survey-html-form","62","767497","0.0-3.0-1.29","171","1","2025-04-14 14:25:43","bb671e3ae32f654b8954ea4c4635f915","","Mozilla/5.0 (Windows NT 10.0; Win64; x64; rv:137.0) Gecko/20100101 Firefox/137.0","","Firefox","137.0","Windows","10.0","https://hz8g1ckzuq.cognition.run/","en-US,en;q=0.5","kn3o5p39gx78cmk","32","[""White""]","No","Female","1150267","13482","","","{""price_1"":""500"",""price_2"":""400"",""price_3"":""450""}","rating","cdt","repulsion_2","1","laptops","null","null","null","null","null","null","1","100","90","100","30","40","20","Processing speed","Memory (RAM)","",""
"","","","","","rating_trial_setup","html-keyboard-response","63","767812","0.0-3.0-0.30","171","1","2025-04-14 14:25:43","bb671e3ae32f654b8954ea4c4635f915","","Mozilla/5.0 (Windows NT 10.0; Win64; x64; rv:137.0) Gecko/20100101 Firefox/137.0","","Firefox","137.0","Windows","10.0","https://hz8g1ckzuq.cognition.run/","en-US,en;q=0.5","kn3o5p39gx78cmk","32","[""White""]","No","Female","1150267","null","","<p></p>","null","rating","dtc","repulsion_1","2","washing machines","null","null","null","null","null","null","1","","","","","","","","","",""
"","","","","","rating_trial","survey-html-form","64","783009","0.0-3.0-1.30","171","1","2025-04-14 14:25:43","bb671e3ae32f654b8954ea4c4635f915","","Mozilla/5.0 (Windows NT 10.0; Win64; x64; rv:137.0) Gecko/20100101 Firefox/137.0","","Firefox","137.0","Windows","10.0","https://hz8g1ckzuq.cognition.run/","en-US,en;q=0.5","kn3o5p39gx78cmk","32","[""White""]","No","Female","1150267","15194","","","{""price_1"":""600"",""price_2"":""650"",""price_3"":""650""}","rating","dtc","repulsion_1","2","washing machines","null","null","null","null","null","null","1","30","40","25","100","90","100","Average lifespan","Energy savings","",""
"","","","","","rating_trial_setup","html-keyboard-response","65","783339","0.0-3.0-0.31","171","1","2025-04-14 14:25:43","bb671e3ae32f654b8954ea4c4635f915","","Mozilla/5.0 (Windows NT 10.0; Win64; x64; rv:137.0) Gecko/20100101 Firefox/137.0","","Firefox","137.0","Windows","10.0","https://hz8g1ckzuq.cognition.run/","en-US,en;q=0.5","kn3o5p39gx78cmk","32","[""White""]","No","Female","1150267","null","","<p></p>","null","rating","dtc","repulsion_2","1","microwave ovens","null","null","null","null","null","null","1","","","","","","","","","",""
"","","","","","rating_trial","survey-html-form","66","798169","0.0-3.0-1.31","171","1","2025-04-14 14:25:43","bb671e3ae32f654b8954ea4c4635f915","","Mozilla/5.0 (Windows NT 10.0; Win64; x64; rv:137.0) Gecko/20100101 Firefox/137.0","","Firefox","137.0","Windows","10.0","https://hz8g1ckzuq.cognition.run/","en-US,en;q=0.5","kn3o5p39gx78cmk","32","[""White""]","No","Female","1150267","14825","","","{""price_1"":""75"",""price_2"":""80"",""price_3"":""85""}","rating","dtc","repulsion_2","1","microwave ovens","null","null","null","null","null","null","1","100","90","100","30","40","20","Warranty","Cooking power","",""
"","","","","","rating_trial_setup","html-keyboard-response","67","798473","0.0-3.0-0.32","171","1","2025-04-14 14:25:43","bb671e3ae32f654b8954ea4c4635f915","","Mozilla/5.0 (Windows NT 10.0; Win64; x64; rv:137.0) Gecko/20100101 Firefox/137.0","","Firefox","137.0","Windows","10.0","https://hz8g1ckzuq.cognition.run/","en-US,en;q=0.5","kn3o5p39gx78cmk","32","[""White""]","No","Female","1150267","null","","<p></p>","null","rating","dct","attraction_2","1","televisions","null","null","null","null","null","null","2","","","","","","","","","",""
"","","","","","rating_trial","survey-html-form","68","811139","0.0-3.0-1.32","171","1","2025-04-14 14:25:43","bb671e3ae32f654b8954ea4c4635f915","","Mozilla/5.0 (Windows NT 10.0; Win64; x64; rv:137.0) Gecko/20100101 Firefox/137.0","","Firefox","137.0","Windows","10.0","https://hz8g1ckzuq.cognition.run/","en-US,en;q=0.5","kn3o5p39gx78cmk","32","[""White""]","No","Female","1150267","12664","","","{""price_1"":""500"",""price_2"":""550"",""price_3"":""550""}","rating","dct","attraction_2","1","televisions","null","null","null","null","null","null","2","60","50","60","50","60","40","Screen size","Average lifespan","",""
"","","","","","rating_trial_setup","html-keyboard-response","69","811454","0.0-3.0-0.33","171","1","2025-04-14 14:25:43","bb671e3ae32f654b8954ea4c4635f915","","Mozilla/5.0 (Windows NT 10.0; Win64; x64; rv:137.0) Gecko/20100101 Firefox/137.0","","Firefox","137.0","Windows","10.0","https://hz8g1ckzuq.cognition.run/","en-US,en;q=0.5","kn3o5p39gx78cmk","32","[""White""]","No","Female","1150267","null","","<p></p>","null","rating","wbw","catch","null","washing machines","60","85","25","15","15","10","1","","","","","","","","","",""
"","","","","","rating_trial","survey-html-form","70","823874","0.0-3.0-1.33","171","1","2025-04-14 14:25:43","bb671e3ae32f654b8954ea4c4635f915","","Mozilla/5.0 (Windows NT 10.0; Win64; x64; rv:137.0) Gecko/20100101 Firefox/137.0","","Firefox","137.0","Windows","10.0","https://hz8g1ckzuq.cognition.run/","en-US,en;q=0.5","kn3o5p39gx78cmk","32","[""White""]","No","Female","1150267","12419","","","{""price_1"":""200"",""price_2"":""500"",""price_3"":""100""}","rating","wbw","catch","null","washing machines","60","85","25","15","15","10","1","null","null","null","null","null","null","Average lifespan","Energy savings","",""
"","","","","","rating_trial_setup","html-keyboard-response","71","824184","0.0-3.0-0.34","171","1","2025-04-14 14:25:43","bb671e3ae32f654b8954ea4c4635f915","","Mozilla/5.0 (Windows NT 10.0; Win64; x64; rv:137.0) Gecko/20100101 Firefox/137.0","","Firefox","137.0","Windows","10.0","https://hz8g1ckzuq.cognition.run/","en-US,en;q=0.5","kn3o5p39gx78cmk","32","[""White""]","No","Female","1150267","null","","<p></p>","null","rating","tcd","attraction_1","1","televisions","null","null","null","null","null","null","2","","","","","","","","","",""
"","","","","","rating_trial","survey-html-form","72","834687","0.0-3.0-1.34","171","1","2025-04-14 14:25:43","bb671e3ae32f654b8954ea4c4635f915","","Mozilla/5.0 (Windows NT 10.0; Win64; x64; rv:137.0) Gecko/20100101 Firefox/137.0","","Firefox","137.0","Windows","10.0","https://hz8g1ckzuq.cognition.run/","en-US,en;q=0.5","kn3o5p39gx78cmk","32","[""White""]","No","Female","1150267","10503","","","{""price_1"":""500"",""price_2"":""500"",""price_3"":""475""}","rating","tcd","attraction_1","1","televisions","null","null","null","null","null","null","2","60","50","60","50","60","45","Screen size","Average lifespan","",""
"","","","","","rating_trial_setup","html-keyboard-response","73","835000","0.0-3.0-0.35","171","1","2025-04-14 14:25:43","bb671e3ae32f654b8954ea4c4635f915","","Mozilla/5.0 (Windows NT 10.0; Win64; x64; rv:137.0) Gecko/20100101 Firefox/137.0","","Firefox","137.0","Windows","10.0","https://hz8g1ckzuq.cognition.run/","en-US,en;q=0.5","kn3o5p39gx78cmk","32","[""White""]","No","Female","1150267","null","","<p></p>","null","rating","tdc","repulsion_1","1","washing machines","null","null","null","null","null","null","2","","","","","","","","","",""
"","","","","","rating_trial","survey-html-form","74","848794","0.0-3.0-1.35","171","1","2025-04-14 14:25:43","bb671e3ae32f654b8954ea4c4635f915","","Mozilla/5.0 (Windows NT 10.0; Win64; x64; rv:137.0) Gecko/20100101 Firefox/137.0","","Firefox","137.0","Windows","10.0","https://hz8g1ckzuq.cognition.run/","en-US,en;q=0.5","kn3o5p39gx78cmk","32","[""White""]","No","Female","1150267","13794","","","{""price_1"":""500"",""price_2"":""450"",""price_3"":""500""}","rating","tdc","repulsion_1","1","washing machines","null","null","null","null","null","null","2","100","90","100","30","40","25","Average lifespan","Energy savings","",""
"","","","","","rating_trial_setup","html-keyboard-response","75","849099","0.0-3.0-0.36","171","1","2025-04-14 14:25:43","bb671e3ae32f654b8954ea4c4635f915","","Mozilla/5.0 (Windows NT 10.0; Win64; x64; rv:137.0) Gecko/20100101 Firefox/137.0","","Firefox","137.0","Windows","10.0","https://hz8g1ckzuq.cognition.run/","en-US,en;q=0.5","kn3o5p39gx78cmk","32","[""White""]","No","Female","1150267","null","","<p></p>","null","rating","ctd","attraction_1","2","microwave ovens","null","null","null","null","null","null","1","","","","","","","","","",""
"","","","","","rating_trial","survey-html-form","76","858782","0.0-3.0-1.36","171","1","2025-04-14 14:25:43","bb671e3ae32f654b8954ea4c4635f915","","Mozilla/5.0 (Windows NT 10.0; Win64; x64; rv:137.0) Gecko/20100101 Firefox/137.0","","Firefox","137.0","Windows","10.0","https://hz8g1ckzuq.cognition.run/","en-US,en;q=0.5","kn3o5p39gx78cmk","32","[""White""]","No","Female","1150267","9680","","","{""price_1"":""80"",""price_2"":""80"",""price_3"":""75""}","rating","ctd","attraction_1","2","microwave ovens","null","null","null","null","null","null","1","50","60","45","60","50","60","Warranty","Cooking power","",""
"","","","","","rating_trial_setup","html-keyboard-response","77","859088","0.0-3.0-0.37","171","1","2025-04-14 14:25:43","bb671e3ae32f654b8954ea4c4635f915","","Mozilla/5.0 (Windows NT 10.0; Win64; x64; rv:137.0) Gecko/20100101 Firefox/137.0","","Firefox","137.0","Windows","10.0","https://hz8g1ckzuq.cognition.run/","en-US,en;q=0.5","kn3o5p39gx78cmk","32","[""White""]","No","Female","1150267","null","","<p></p>","null","rating","wbw","catch","null","microwave ovens","85","50","15","30","5","20","1","","","","","","","","","",""
"","","","","","rating_trial","survey-html-form","78","872785","0.0-3.0-1.37","171","1","2025-04-14 14:25:43","bb671e3ae32f654b8954ea4c4635f915","","Mozilla/5.0 (Windows NT 10.0; Win64; x64; rv:137.0) Gecko/20100101 Firefox/137.0","","Firefox","137.0","Windows","10.0","https://hz8g1ckzuq.cognition.run/","en-US,en;q=0.5","kn3o5p39gx78cmk","32","[""White""]","No","Female","1150267","13695","","","{""price_1"":""40"",""price_2"":""85"",""price_3"":""25""}","rating","wbw","catch","null","microwave ovens","85","50","15","30","5","20","1","null","null","null","null","null","null","Warranty","Cooking power","",""
"","","","","","rating_trial_setup","html-keyboard-response","79","873096","0.0-3.0-0.38","171","1","2025-04-14 14:25:43","bb671e3ae32f654b8954ea4c4635f915","","Mozilla/5.0 (Windows NT 10.0; Win64; x64; rv:137.0) Gecko/20100101 Firefox/137.0","","Firefox","137.0","Windows","10.0","https://hz8g1ckzuq.cognition.run/","en-US,en;q=0.5","kn3o5p39gx78cmk","32","[""White""]","No","Female","1150267","null","","<p></p>","null","rating","cdt","attraction_2","2","washing machines","null","null","null","null","null","null","2","","","","","","","","","",""
"","","","","","rating_trial","survey-html-form","80","883155","0.0-3.0-1.38","171","1","2025-04-14 14:25:43","bb671e3ae32f654b8954ea4c4635f915","","Mozilla/5.0 (Windows NT 10.0; Win64; x64; rv:137.0) Gecko/20100101 Firefox/137.0","","Firefox","137.0","Windows","10.0","https://hz8g1ckzuq.cognition.run/","en-US,en;q=0.5","kn3o5p39gx78cmk","32","[""White""]","No","Female","1150267","10055","","","{""price_1"":""500"",""price_2"":""450"",""price_3"":""500""}","rating","cdt","attraction_2","2","washing machines","null","null","null","null","null","null","2","50","60","40","60","50","60","Average lifespan","Energy savings","",""
"","","","","","rating_trial_setup","html-keyboard-response","81","883467","0.0-3.0-0.39","171","1","2025-04-14 14:25:43","bb671e3ae32f654b8954ea4c4635f915","","Mozilla/5.0 (Windows NT 10.0; Win64; x64; rv:137.0) Gecko/20100101 Firefox/137.0","","Firefox","137.0","Windows","10.0","https://hz8g1ckzuq.cognition.run/","en-US,en;q=0.5","kn3o5p39gx78cmk","32","[""White""]","No","Female","1150267","null","","<p></p>","null","rating","tdc","repulsion_2","1","televisions","null","null","null","null","null","null","2","","","","","","","","","",""
"","","","","","rating_trial","survey-html-form","82","893688","0.0-3.0-1.39","171","1","2025-04-14 14:25:43","bb671e3ae32f654b8954ea4c4635f915","","Mozilla/5.0 (Windows NT 10.0; Win64; x64; rv:137.0) Gecko/20100101 Firefox/137.0","","Firefox","137.0","Windows","10.0","https://hz8g1ckzuq.cognition.run/","en-US,en;q=0.5","kn3o5p39gx78cmk","32","[""White""]","No","Female","1150267","10219","","","{""price_1"":""500"",""price_2"":""400"",""price_3"":""450""}","rating","tdc","repulsion_2","1","televisions","null","null","null","null","null","null","2","100","90","100","30","40","20","Screen size","Average lifespan","",""
"","","","","","","instructions","83","917913","0.0-4.0","171","1","2025-04-14 14:25:43","bb671e3ae32f654b8954ea4c4635f915","","Mozilla/5.0 (Windows NT 10.0; Win64; x64; rv:137.0) Gecko/20100101 Firefox/137.0","","Firefox","137.0","Windows","10.0","https://hz8g1ckzuq.cognition.run/","en-US,en;q=0.5","kn3o5p39gx78cmk","32","[""White""]","No","Female","1150267","24223","[{""page_index"":0,""viewing_time"":1354},{""page_index"":1,""viewing_time"":1364},{""page_index"":2,""viewing_time"":1824},{""page_index"":3,""viewing_time"":3020},{""page_index"":4,""viewing_time"":2565},{""page_index"":5,""viewing_time"":2143},{""page_index"":6,""viewing_time"":7017},{""page_index"":7,""viewing_time"":4936}]","","","","","","","","","","","","","","","","","","","","","","","",""
"","","","","","choice_trial_setup","html-keyboard-response","84","918235","0.0-5.0-0.0","171","1","2025-04-14 14:25:43","bb671e3ae32f654b8954ea4c4635f915","","Mozilla/5.0 (Windows NT 10.0; Win64; x64; rv:137.0) Gecko/20100101 Firefox/137.0","","Firefox","137.0","Windows","10.0","https://hz8g1ckzuq.cognition.run/","en-US,en;q=0.5","kn3o5p39gx78cmk","32","[""White""]","No","Female","1150267","null","","<p></p>","null","choice","dtc","attraction_2","1","laptops","null","null","null","null","null","null","2","","","","","","","","","",""
"","","","","","choice_trial","survey-html-form","85","926478","0.0-5.0-1.0","171","1","2025-04-14 14:25:43","bb671e3ae32f654b8954ea4c4635f915","","Mozilla/5.0 (Windows NT 10.0; Win64; x64; rv:137.0) Gecko/20100101 Firefox/137.0","","Firefox","137.0","Windows","10.0","https://hz8g1ckzuq.cognition.run/","en-US,en;q=0.5","kn3o5p39gx78cmk","32","[""White""]","No","Female","1150267","8241","","","{""product_choice"":""B""}","choice","dtc","attraction_2","1","laptops","null","null","null","null","null","null","2","60","50","60","50","60","40","Processing speed","Memory (RAM)","",""
"","","","","","choice_trial_setup","html-keyboard-response","86","926800","0.0-5.0-0.1","171","1","2025-04-14 14:25:43","bb671e3ae32f654b8954ea4c4635f915","","Mozilla/5.0 (Windows NT 10.0; Win64; x64; rv:137.0) Gecko/20100101 Firefox/137.0","","Firefox","137.0","Windows","10.0","https://hz8g1ckzuq.cognition.run/","en-US,en;q=0.5","kn3o5p39gx78cmk","32","[""White""]","No","Female","1150267","null","","<p></p>","null","choice","cdt","attraction_1","2","microwave ovens","null","null","null","null","null","null","2","","","","","","","","","",""
"","","","","","choice_trial","survey-html-form","87","930093","0.0-5.0-1.1","171","1","2025-04-14 14:25:43","bb671e3ae32f654b8954ea4c4635f915","","Mozilla/5.0 (Windows NT 10.0; Win64; x64; rv:137.0) Gecko/20100101 Firefox/137.0","","Firefox","137.0","Windows","10.0","https://hz8g1ckzuq.cognition.run/","en-US,en;q=0.5","kn3o5p39gx78cmk","32","[""White""]","No","Female","1150267","3291","","","{""product_choice"":""A""}","choice","cdt","attraction_1","2","microwave ovens","null","null","null","null","null","null","2","50","60","45","60","50","60","Warranty","Cooking power","",""
"","","","","","choice_trial_setup","html-keyboard-response","88","930423","0.0-5.0-0.2","171","1","2025-04-14 14:25:43","bb671e3ae32f654b8954ea4c4635f915","","Mozilla/5.0 (Windows NT 10.0; Win64; x64; rv:137.0) Gecko/20100101 Firefox/137.0","","Firefox","137.0","Windows","10.0","https://hz8g1ckzuq.cognition.run/","en-US,en;q=0.5","kn3o5p39gx78cmk","32","[""White""]","No","Female","1150267","null","","<p></p>","null","choice","dct","attraction_1","1","laptops","null","null","null","null","null","null","1","","","","","","","","","",""
"","","","","","choice_trial","survey-html-form","89","932875","0.0-5.0-1.2","171","1","2025-04-14 14:25:43","bb671e3ae32f654b8954ea4c4635f915","","Mozilla/5.0 (Windows NT 10.0; Win64; x64; rv:137.0) Gecko/20100101 Firefox/137.0","","Firefox","137.0","Windows","10.0","https://hz8g1ckzuq.cognition.run/","en-US,en;q=0.5","kn3o5p39gx78cmk","32","[""White""]","No","Female","1150267","2448","","","{""product_choice"":""B""}","choice","dct","attraction_1","1","laptops","null","null","null","null","null","null","1","60","50","60","50","60","45","Processing speed","Memory (RAM)","",""
"","","","","","choice_trial_setup","html-keyboard-response","90","933184","0.0-5.0-0.3","171","1","2025-04-14 14:25:43","bb671e3ae32f654b8954ea4c4635f915","","Mozilla/5.0 (Windows NT 10.0; Win64; x64; rv:137.0) Gecko/20100101 Firefox/137.0","","Firefox","137.0","Windows","10.0","https://hz8g1ckzuq.cognition.run/","en-US,en;q=0.5","kn3o5p39gx78cmk","32","[""White""]","No","Female","1150267","null","","<p></p>","null","choice","wwb","catch","null","washing machines","60","70","15","25","20","40","1","","","","","","","","","",""
"","","","","","choice_trial","survey-html-form","91","936376","0.0-5.0-1.3","171","1","2025-04-14 14:25:43","bb671e3ae32f654b8954ea4c4635f915","","Mozilla/5.0 (Windows NT 10.0; Win64; x64; rv:137.0) Gecko/20100101 Firefox/137.0","","Firefox","137.0","Windows","10.0","https://hz8g1ckzuq.cognition.run/","en-US,en;q=0.5","kn3o5p39gx78cmk","32","[""White""]","No","Female","1150267","3187","","","{""product_choice"":""C""}","choice","wwb","catch","null","washing machines","60","70","15","25","20","40","1","null","null","null","null","null","null","Average lifespan","Energy savings","",""
"","","","","","choice_trial_setup","html-keyboard-response","92","936683","0.0-5.0-0.4","171","1","2025-04-14 14:25:43","bb671e3ae32f654b8954ea4c4635f915","","Mozilla/5.0 (Windows NT 10.0; Win64; x64; rv:137.0) Gecko/20100101 Firefox/137.0","","Firefox","137.0","Windows","10.0","https://hz8g1ckzuq.cognition.run/","en-US,en;q=0.5","kn3o5p39gx78cmk","32","[""White""]","No","Female","1150267","null","","<p></p>","null","choice","cdt","repulsion_2","1","laptops","null","null","null","null","null","null","1","","","","","","","","","",""
"","","","","","choice_trial","survey-html-form","93","942899","0.0-5.0-1.4","171","1","2025-04-14 14:25:43","bb671e3ae32f654b8954ea4c4635f915","","Mozilla/5.0 (Windows NT 10.0; Win64; x64; rv:137.0) Gecko/20100101 Firefox/137.0","","Firefox","137.0","Windows","10.0","https://hz8g1ckzuq.cognition.run/","en-US,en;q=0.5","kn3o5p39gx78cmk","32","[""White""]","No","Female","1150267","6214","","","{""product_choice"":""C""}","choice","cdt","repulsion_2","1","laptops","null","null","null","null","null","null","1","100","90","100","30","40","20","Processing speed","Memory (RAM)","",""
"","","","","","choice_trial_setup","html-keyboard-response","94","943213","0.0-5.0-0.5","171","1","2025-04-14 14:25:43","bb671e3ae32f654b8954ea4c4635f915","","Mozilla/5.0 (Windows NT 10.0; Win64; x64; rv:137.0) Gecko/20100101 Firefox/137.0","","Firefox","137.0","Windows","10.0","https://hz8g1ckzuq.cognition.run/","en-US,en;q=0.5","kn3o5p39gx78cmk","32","[""White""]","No","Female","1150267","null","","<p></p>","null","choice","ctd","attraction_2","2","laptops","null","null","null","null","null","null","2","","","","","","","","","",""
"","","","","","choice_trial","survey-html-form","95","947608","0.0-5.0-1.5","171","1","2025-04-14 14:25:43","bb671e3ae32f654b8954ea4c4635f915","","Mozilla/5.0 (Windows NT 10.0; Win64; x64; rv:137.0) Gecko/20100101 Firefox/137.0","","Firefox","137.0","Windows","10.0","https://hz8g1ckzuq.cognition.run/","en-US,en;q=0.5","kn3o5p39gx78cmk","32","[""White""]","No","Female","1150267","4393","","","{""product_choice"":""B""}","choice","ctd","attraction_2","2","laptops","null","null","null","null","null","null","2","50","60","40","60","50","60","Processing speed","Memory (RAM)","",""
"","","","","","choice_trial_setup","html-keyboard-response","96","947924","0.0-5.0-0.6","171","1","2025-04-14 14:25:43","bb671e3ae32f654b8954ea4c4635f915","","Mozilla/5.0 (Windows NT 10.0; Win64; x64; rv:137.0) Gecko/20100101 Firefox/137.0","","Firefox","137.0","Windows","10.0","https://hz8g1ckzuq.cognition.run/","en-US,en;q=0.5","kn3o5p39gx78cmk","32","[""White""]","No","Female","1150267","null","","<p></p>","null","choice","bww","catch","null","laptops","60","50","40","15","15","5","1","","","","","","","","","",""
"","","","","","choice_trial","survey-html-form","97","950847","0.0-5.0-1.6","171","1","2025-04-14 14:25:43","bb671e3ae32f654b8954ea4c4635f915","","Mozilla/5.0 (Windows NT 10.0; Win64; x64; rv:137.0) Gecko/20100101 Firefox/137.0","","Firefox","137.0","Windows","10.0","https://hz8g1ckzuq.cognition.run/","en-US,en;q=0.5","kn3o5p39gx78cmk","32","[""White""]","No","Female","1150267","2920","","","{""product_choice"":""A""}","choice","bww","catch","null","laptops","60","50","40","15","15","5","1","null","null","null","null","null","null","Processing speed","Memory (RAM)","",""
"","","","","","choice_trial_setup","html-keyboard-response","98","951152","0.0-5.0-0.7","171","1","2025-04-14 14:25:43","bb671e3ae32f654b8954ea4c4635f915","","Mozilla/5.0 (Windows NT 10.0; Win64; x64; rv:137.0) Gecko/20100101 Firefox/137.0","","Firefox","137.0","Windows","10.0","https://hz8g1ckzuq.cognition.run/","en-US,en;q=0.5","kn3o5p39gx78cmk","32","[""White""]","No","Female","1150267","null","","<p></p>","null","choice","tdc","repulsion_2","1","televisions","null","null","null","null","null","null","1","","","","","","","","","",""
"","","","","","choice_trial","survey-html-form","99","953716","0.0-5.0-1.7","171","1","2025-04-14 14:25:43","bb671e3ae32f654b8954ea4c4635f915","","Mozilla/5.0 (Windows NT 10.0; Win64; x64; rv:137.0) Gecko/20100101 Firefox/137.0","","Firefox","137.0","Windows","10.0","https://hz8g1ckzuq.cognition.run/","en-US,en;q=0.5","kn3o5p39gx78cmk","32","[""White""]","No","Female","1150267","2563","","","{""product_choice"":""A""}","choice","tdc","repulsion_2","1","televisions","null","null","null","null","null","null","1","100","90","100","30","40","20","Screen size","Average lifespan","",""
"","","","","","choice_trial_setup","html-keyboard-response","100","954021","0.0-5.0-0.8","171","1","2025-04-14 14:25:43","bb671e3ae32f654b8954ea4c4635f915","","Mozilla/5.0 (Windows NT 10.0; Win64; x64; rv:137.0) Gecko/20100101 Firefox/137.0","","Firefox","137.0","Windows","10.0","https://hz8g1ckzuq.cognition.run/","en-US,en;q=0.5","kn3o5p39gx78cmk","32","[""White""]","No","Female","1150267","null","","<p></p>","null","choice","bww","catch","null","microwave ovens","85","50","5","45","10","20","2","","","","","","","","","",""
"","","","","","choice_trial","survey-html-form","101","956370","0.0-5.0-1.8","171","1","2025-04-14 14:25:43","bb671e3ae32f654b8954ea4c4635f915","","Mozilla/5.0 (Windows NT 10.0; Win64; x64; rv:137.0) Gecko/20100101 Firefox/137.0","","Firefox","137.0","Windows","10.0","https://hz8g1ckzuq.cognition.run/","en-US,en;q=0.5","kn3o5p39gx78cmk","32","[""White""]","No","Female","1150267","2347","","","{""product_choice"":""A""}","choice","bww","catch","null","microwave ovens","85","50","5","45","10","20","2","null","null","null","null","null","null","Warranty","Cooking power","",""
"","","","","","choice_trial_setup","html-keyboard-response","102","956674","0.0-5.0-0.9","171","1","2025-04-14 14:25:43","bb671e3ae32f654b8954ea4c4635f915","","Mozilla/5.0 (Windows NT 10.0; Win64; x64; rv:137.0) Gecko/20100101 Firefox/137.0","","Firefox","137.0","Windows","10.0","https://hz8g1ckzuq.cognition.run/","en-US,en;q=0.5","kn3o5p39gx78cmk","32","[""White""]","No","Female","1150267","null","","<p></p>","null","choice","tdc","attraction_1","1","microwave ovens","null","null","null","null","null","null","2","","","","","","","","","",""
"","","","","","choice_trial","survey-html-form","103","963516","0.0-5.0-1.9","171","1","2025-04-14 14:25:43","bb671e3ae32f654b8954ea4c4635f915","","Mozilla/5.0 (Windows NT 10.0; Win64; x64; rv:137.0) Gecko/20100101 Firefox/137.0","","Firefox","137.0","Windows","10.0","https://hz8g1ckzuq.cognition.run/","en-US,en;q=0.5","kn3o5p39gx78cmk","32","[""White""]","No","Female","1150267","6838","","","{""product_choice"":""C""}","choice","tdc","attraction_1","1","microwave ovens","null","null","null","null","null","null","2","60","50","60","50","60","45","Warranty","Cooking power","",""
"","","","","","choice_trial_setup","html-keyboard-response","104","963821","0.0-5.0-0.10","171","1","2025-04-14 14:25:43","bb671e3ae32f654b8954ea4c4635f915","","Mozilla/5.0 (Windows NT 10.0; Win64; x64; rv:137.0) Gecko/20100101 Firefox/137.0","","Firefox","137.0","Windows","10.0","https://hz8g1ckzuq.cognition.run/","en-US,en;q=0.5","kn3o5p39gx78cmk","32","[""White""]","No","Female","1150267","null","","<p></p>","null","choice","tdc","repulsion_1","1","microwave ovens","null","null","null","null","null","null","1","","","","","","","","","",""
"","","","","","choice_trial","survey-html-form","105","966274","0.0-5.0-1.10","171","1","2025-04-14 14:25:43","bb671e3ae32f654b8954ea4c4635f915","","Mozilla/5.0 (Windows NT 10.0; Win64; x64; rv:137.0) Gecko/20100101 Firefox/137.0","","Firefox","137.0","Windows","10.0","https://hz8g1ckzuq.cognition.run/","en-US,en;q=0.5","kn3o5p39gx78cmk","32","[""White""]","No","Female","1150267","2447","","","{""product_choice"":""A""}","choice","tdc","repulsion_1","1","microwave ovens","null","null","null","null","null","null","1","100","90","100","30","40","25","Warranty","Cooking power","",""
"","","","","","choice_trial_setup","html-keyboard-response","106","966615","0.0-5.0-0.11","171","1","2025-04-14 14:25:43","bb671e3ae32f654b8954ea4c4635f915","","Mozilla/5.0 (Windows NT 10.0; Win64; x64; rv:137.0) Gecko/20100101 Firefox/137.0","","Firefox","137.0","Windows","10.0","https://hz8g1ckzuq.cognition.run/","en-US,en;q=0.5","kn3o5p39gx78cmk","32","[""White""]","No","Female","1150267","null","","<p></p>","null","choice","dtc","attraction_2","2","microwave ovens","null","null","null","null","null","null","2","","","","","","","","","",""
"","","","","","choice_trial","survey-html-form","107","972053","0.0-5.0-1.11","171","1","2025-04-14 14:25:43","bb671e3ae32f654b8954ea4c4635f915","","Mozilla/5.0 (Windows NT 10.0; Win64; x64; rv:137.0) Gecko/20100101 Firefox/137.0","","Firefox","137.0","Windows","10.0","https://hz8g1ckzuq.cognition.run/","en-US,en;q=0.5","kn3o5p39gx78cmk","32","[""White""]","No","Female","1150267","5433","","","{""product_choice"":""B""}","choice","dtc","attraction_2","2","microwave ovens","null","null","null","null","null","null","2","50","60","40","60","50","60","Warranty","Cooking power","",""
"","","","","","choice_trial_setup","html-keyboard-response","108","972354","0.0-5.0-0.12","171","1","2025-04-14 14:25:43","bb671e3ae32f654b8954ea4c4635f915","","Mozilla/5.0 (Windows NT 10.0; Win64; x64; rv:137.0) Gecko/20100101 Firefox/137.0","","Firefox","137.0","Windows","10.0","https://hz8g1ckzuq.cognition.run/","en-US,en;q=0.5","kn3o5p39gx78cmk","32","[""White""]","No","Female","1150267","null","","<p></p>","null","choice","dtc","repulsion_2","1","washing machines","null","null","null","null","null","null","2","","","","","","","","","",""
"","","","","","choice_trial","survey-html-form","109","979685","0.0-5.0-1.12","171","1","2025-04-14 14:25:43","bb671e3ae32f654b8954ea4c4635f915","","Mozilla/5.0 (Windows NT 10.0; Win64; x64; rv:137.0) Gecko/20100101 Firefox/137.0","","Firefox","137.0","Windows","10.0","https://hz8g1ckzuq.cognition.run/","en-US,en;q=0.5","kn3o5p39gx78cmk","32","[""White""]","No","Female","1150267","7329","","","{""product_choice"":""C""}","choice","dtc","repulsion_2","1","washing machines","null","null","null","null","null","null","2","100","90","100","30","40","20","Average lifespan","Energy savings","",""
"","","","","","choice_trial_setup","html-keyboard-response","110","980001","0.0-5.0-0.13","171","1","2025-04-14 14:25:43","bb671e3ae32f654b8954ea4c4635f915","","Mozilla/5.0 (Windows NT 10.0; Win64; x64; rv:137.0) Gecko/20100101 Firefox/137.0","","Firefox","137.0","Windows","10.0","https://hz8g1ckzuq.cognition.run/","en-US,en;q=0.5","kn3o5p39gx78cmk","32","[""White""]","No","Female","1150267","null","","<p></p>","null","choice","wwb","catch","null","laptops","80","70","30","45","45","30","1","","","","","","","","","",""
"","","","","","choice_trial","survey-html-form","111","983720","0.0-5.0-1.13","171","1","2025-04-14 14:25:43","bb671e3ae32f654b8954ea4c4635f915","","Mozilla/5.0 (Windows NT 10.0; Win64; x64; rv:137.0) Gecko/20100101 Firefox/137.0","","Firefox","137.0","Windows","10.0","https://hz8g1ckzuq.cognition.run/","en-US,en;q=0.5","kn3o5p39gx78cmk","32","[""White""]","No","Female","1150267","3714","","","{""product_choice"":""C""}","choice","wwb","catch","null","laptops","80","70","30","45","45","30","1","null","null","null","null","null","null","Processing speed","Memory (RAM)","",""
"","","","","","choice_trial_setup","html-keyboard-response","112","984032","0.0-5.0-0.14","171","1","2025-04-14 14:25:43","bb671e3ae32f654b8954ea4c4635f915","","Mozilla/5.0 (Windows NT 10.0; Win64; x64; rv:137.0) Gecko/20100101 Firefox/137.0","","Firefox","137.0","Windows","10.0","https://hz8g1ckzuq.cognition.run/","en-US,en;q=0.5","kn3o5p39gx78cmk","32","[""White""]","No","Female","1150267","null","","<p></p>","null","choice","tdc","repulsion_2","2","laptops","null","null","null","null","null","null","2","","","","","","","","","",""
"","","","","","choice_trial","survey-html-form","113","989146","0.0-5.0-1.14","171","1","2025-04-14 14:25:43","bb671e3ae32f654b8954ea4c4635f915","","Mozilla/5.0 (Windows NT 10.0; Win64; x64; rv:137.0) Gecko/20100101 Firefox/137.0","","Firefox","137.0","Windows","10.0","https://hz8g1ckzuq.cognition.run/","en-US,en;q=0.5","kn3o5p39gx78cmk","32","[""White""]","No","Female","1150267","5112","","","{""product_choice"":""A""}","choice","tdc","repulsion_2","2","laptops","null","null","null","null","null","null","2","30","40","20","100","90","100","Processing speed","Memory (RAM)","",""
"","","","","","choice_trial_setup","html-keyboard-response","114","989459","0.0-5.0-0.15","171","1","2025-04-14 14:25:43","bb671e3ae32f654b8954ea4c4635f915","","Mozilla/5.0 (Windows NT 10.0; Win64; x64; rv:137.0) Gecko/20100101 Firefox/137.0","","Firefox","137.0","Windows","10.0","https://hz8g1ckzuq.cognition.run/","en-US,en;q=0.5","kn3o5p39gx78cmk","32","[""White""]","No","Female","1150267","null","","<p></p>","null","choice","ctd","attraction_2","2","washing machines","null","null","null","null","null","null","2","","","","","","","","","",""
"","","","","","choice_trial","survey-html-form","115","994913","0.0-5.0-1.15","171","1","2025-04-14 14:25:43","bb671e3ae32f654b8954ea4c4635f915","","Mozilla/5.0 (Windows NT 10.0; Win64; x64; rv:137.0) Gecko/20100101 Firefox/137.0","","Firefox","137.0","Windows","10.0","https://hz8g1ckzuq.cognition.run/","en-US,en;q=0.5","kn3o5p39gx78cmk","32","[""White""]","No","Female","1150267","5453","","","{""product_choice"":""B""}","choice","ctd","attraction_2","2","washing machines","null","null","null","null","null","null","2","50","60","40","60","50","60","Average lifespan","Energy savings","",""
"","","","","","choice_trial_setup","html-keyboard-response","116","995226","0.0-5.0-0.16","171","1","2025-04-14 14:25:43","bb671e3ae32f654b8954ea4c4635f915","","Mozilla/5.0 (Windows NT 10.0; Win64; x64; rv:137.0) Gecko/20100101 Firefox/137.0","","Firefox","137.0","Windows","10.0","https://hz8g1ckzuq.cognition.run/","en-US,en;q=0.5","kn3o5p39gx78cmk","32","[""White""]","No","Female","1150267","null","","<p></p>","null","choice","ctd","repulsion_2","2","microwave ovens","null","null","null","null","null","null","1","","","","","","","","","",""
"","","","","","choice_trial","survey-html-form","117","1000205","0.0-5.0-1.16","171","1","2025-04-14 14:25:43","bb671e3ae32f654b8954ea4c4635f915","","Mozilla/5.0 (Windows NT 10.0; Win64; x64; rv:137.0) Gecko/20100101 Firefox/137.0","","Firefox","137.0","Windows","10.0","https://hz8g1ckzuq.cognition.run/","en-US,en;q=0.5","kn3o5p39gx78cmk","32","[""White""]","No","Female","1150267","4977","","","{""product_choice"":""B""}","choice","ctd","repulsion_2","2","microwave ovens","null","null","null","null","null","null","1","30","40","20","100","90","100","Warranty","Cooking power","",""
"","","","","","choice_trial_setup","html-keyboard-response","118","1000519","0.0-5.0-0.17","171","1","2025-04-14 14:25:43","bb671e3ae32f654b8954ea4c4635f915","","Mozilla/5.0 (Windows NT 10.0; Win64; x64; rv:137.0) Gecko/20100101 Firefox/137.0","","Firefox","137.0","Windows","10.0","https://hz8g1ckzuq.cognition.run/","en-US,en;q=0.5","kn3o5p39gx78cmk","32","[""White""]","No","Female","1150267","null","","<p></p>","null","choice","tdc","attraction_1","1","washing machines","null","null","null","null","null","null","2","","","","","","","","","",""
"","","","","","choice_trial","survey-html-form","119","1004150","0.0-5.0-1.17","171","1","2025-04-14 14:25:43","bb671e3ae32f654b8954ea4c4635f915","","Mozilla/5.0 (Windows NT 10.0; Win64; x64; rv:137.0) Gecko/20100101 Firefox/137.0","","Firefox","137.0","Windows","10.0","https://hz8g1ckzuq.cognition.run/","en-US,en;q=0.5","kn3o5p39gx78cmk","32","[""White""]","No","Female","1150267","3628","","","{""product_choice"":""C""}","choice","tdc","attraction_1","1","washing machines","null","null","null","null","null","null","2","60","50","60","50","60","45","Average lifespan","Energy savings","",""
"","","","","","choice_trial_setup","html-keyboard-response","120","1004459","0.0-5.0-0.18","171","1","2025-04-14 14:25:43","bb671e3ae32f654b8954ea4c4635f915","","Mozilla/5.0 (Windows NT 10.0; Win64; x64; rv:137.0) Gecko/20100101 Firefox/137.0","","Firefox","137.0","Windows","10.0","https://hz8g1ckzuq.cognition.run/","en-US,en;q=0.5","kn3o5p39gx78cmk","32","[""White""]","No","Female","1150267","null","","<p></p>","null","choice","bww","catch","null","televisions","85","65","50","50","5","30","2","","","","","","","","","",""
"","","","","","choice_trial","survey-html-form","121","1010632","0.0-5.0-1.18","171","1","2025-04-14 14:25:43","bb671e3ae32f654b8954ea4c4635f915","","Mozilla/5.0 (Windows NT 10.0; Win64; x64; rv:137.0) Gecko/20100101 Firefox/137.0","","Firefox","137.0","Windows","10.0","https://hz8g1ckzuq.cognition.run/","en-US,en;q=0.5","kn3o5p39gx78cmk","32","[""White""]","No","Female","1150267","6168","","","{""product_choice"":""A""}","choice","bww","catch","null","televisions","85","65","50","50","5","30","2","null","null","null","null","null","null","Screen size","Average lifespan","",""
"","","","","","choice_trial_setup","html-keyboard-response","122","1010942","0.0-5.0-0.19","171","1","2025-04-14 14:25:43","bb671e3ae32f654b8954ea4c4635f915","","Mozilla/5.0 (Windows NT 10.0; Win64; x64; rv:137.0) Gecko/20100101 Firefox/137.0","","Firefox","137.0","Windows","10.0","https://hz8g1ckzuq.cognition.run/","en-US,en;q=0.5","kn3o5p39gx78cmk","32","[""White""]","No","Female","1150267","null","","<p></p>","null","choice","cdt","attraction_2","1","washing machines","null","null","null","null","null","null","2","","","","","","","","","",""
"","","","","","choice_trial","survey-html-form","123","1016759","0.0-5.0-1.19","171","1","2025-04-14 14:25:43","bb671e3ae32f654b8954ea4c4635f915","","Mozilla/5.0 (Windows NT 10.0; Win64; x64; rv:137.0) Gecko/20100101 Firefox/137.0","","Firefox","137.0","Windows","10.0","https://hz8g1ckzuq.cognition.run/","en-US,en;q=0.5","kn3o5p39gx78cmk","32","[""White""]","No","Female","1150267","5811","","","{""product_choice"":""A""}","choice","cdt","attraction_2","1","washing machines","null","null","null","null","null","null","2","60","50","60","50","60","40","Average lifespan","Energy savings","",""
"","","","","","choice_trial_setup","html-keyboard-response","124","1017070","0.0-5.0-0.20","171","1","2025-04-14 14:25:43","bb671e3ae32f654b8954ea4c4635f915","","Mozilla/5.0 (Windows NT 10.0; Win64; x64; rv:137.0) Gecko/20100101 Firefox/137.0","","Firefox","137.0","Windows","10.0","https://hz8g1ckzuq.cognition.run/","en-US,en;q=0.5","kn3o5p39gx78cmk","32","[""White""]","No","Female","1150267","null","","<p></p>","null","choice","dct","attraction_1","2","laptops","null","null","null","null","null","null","2","","","","","","","","","",""
"","","","","","choice_trial","survey-html-form","125","1020642","0.0-5.0-1.20","171","1","2025-04-14 14:25:43","bb671e3ae32f654b8954ea4c4635f915","","Mozilla/5.0 (Windows NT 10.0; Win64; x64; rv:137.0) Gecko/20100101 Firefox/137.0","","Firefox","137.0","Windows","10.0","https://hz8g1ckzuq.cognition.run/","en-US,en;q=0.5","kn3o5p39gx78cmk","32","[""White""]","No","Female","1150267","3566","","","{""product_choice"":""C""}","choice","dct","attraction_1","2","laptops","null","null","null","null","null","null","2","50","60","45","60","50","60","Processing speed","Memory (RAM)","",""
"","","","","","choice_trial_setup","html-keyboard-response","126","1020947","0.0-5.0-0.21","171","1","2025-04-14 14:25:43","bb671e3ae32f654b8954ea4c4635f915","","Mozilla/5.0 (Windows NT 10.0; Win64; x64; rv:137.0) Gecko/20100101 Firefox/137.0","","Firefox","137.0","Windows","10.0","https://hz8g1ckzuq.cognition.run/","en-US,en;q=0.5","kn3o5p39gx78cmk","32","[""White""]","No","Female","1150267","null","","<p></p>","null","choice","ctd","repulsion_2","1","microwave ovens","null","null","null","null","null","null","2","","","","","","","","","",""
"","","","","","choice_trial","survey-html-form","127","1023722","0.0-5.0-1.21","171","1","2025-04-14 14:25:43","bb671e3ae32f654b8954ea4c4635f915","","Mozilla/5.0 (Windows NT 10.0; Win64; x64; rv:137.0) Gecko/20100101 Firefox/137.0","","Firefox","137.0","Windows","10.0","https://hz8g1ckzuq.cognition.run/","en-US,en;q=0.5","kn3o5p39gx78cmk","32","[""White""]","No","Female","1150267","2772","","","{""product_choice"":""A""}","choice","ctd","repulsion_2","1","microwave ovens","null","null","null","null","null","null","2","100","90","100","30","40","20","Warranty","Cooking power","",""
"","","","","","choice_trial_setup","html-keyboard-response","128","1024029","0.0-5.0-0.22","171","1","2025-04-14 14:25:43","bb671e3ae32f654b8954ea4c4635f915","","Mozilla/5.0 (Windows NT 10.0; Win64; x64; rv:137.0) Gecko/20100101 Firefox/137.0","","Firefox","137.0","Windows","10.0","https://hz8g1ckzuq.cognition.run/","en-US,en;q=0.5","kn3o5p39gx78cmk","32","[""White""]","No","Female","1150267","null","","<p></p>","null","choice","dct","repulsion_1","2","laptops","null","null","null","null","null","null","2","","","","","","","","","",""
"","","","","","choice_trial","survey-html-form","129","1026204","0.0-5.0-1.22","171","1","2025-04-14 14:25:43","bb671e3ae32f654b8954ea4c4635f915","","Mozilla/5.0 (Windows NT 10.0; Win64; x64; rv:137.0) Gecko/20100101 Firefox/137.0","","Firefox","137.0","Windows","10.0","https://hz8g1ckzuq.cognition.run/","en-US,en;q=0.5","kn3o5p39gx78cmk","32","[""White""]","No","Female","1150267","2172","","","{""product_choice"":""C""}","choice","dct","repulsion_1","2","laptops","null","null","null","null","null","null","2","30","40","25","100","90","100","Processing speed","Memory (RAM)","",""
"","","","","","choice_trial_setup","html-keyboard-response","130","1026511","0.0-5.0-0.23","171","1","2025-04-14 14:25:43","bb671e3ae32f654b8954ea4c4635f915","","Mozilla/5.0 (Windows NT 10.0; Win64; x64; rv:137.0) Gecko/20100101 Firefox/137.0","","Firefox","137.0","Windows","10.0","https://hz8g1ckzuq.cognition.run/","en-US,en;q=0.5","kn3o5p39gx78cmk","32","[""White""]","No","Female","1150267","null","","<p></p>","null","choice","dct","repulsion_2","2","televisions","null","null","null","null","null","null","2","","","","","","","","","",""
"","","","","","choice_trial","survey-html-form","131","1030794","0.0-5.0-1.23","171","1","2025-04-14 14:25:43","bb671e3ae32f654b8954ea4c4635f915","","Mozilla/5.0 (Windows NT 10.0; Win64; x64; rv:137.0) Gecko/20100101 Firefox/137.0","","Firefox","137.0","Windows","10.0","https://hz8g1ckzuq.cognition.run/","en-US,en;q=0.5","kn3o5p39gx78cmk","32","[""White""]","No","Female","1150267","4280","","","{""product_choice"":""B""}","choice","dct","repulsion_2","2","televisions","null","null","null","null","null","null","2","30","40","20","100","90","100","Screen size","Average lifespan","",""
"","","","","","choice_trial_setup","html-keyboard-response","132","1031101","0.0-5.0-0.24","171","1","2025-04-14 14:25:43","bb671e3ae32f654b8954ea4c4635f915","","Mozilla/5.0 (Windows NT 10.0; Win64; x64; rv:137.0) Gecko/20100101 Firefox/137.0","","Firefox","137.0","Windows","10.0","https://hz8g1ckzuq.cognition.run/","en-US,en;q=0.5","kn3o5p39gx78cmk","32","[""White""]","No","Female","1150267","null","","<p></p>","null","choice","ctd","repulsion_1","1","televisions","null","null","null","null","null","null","1","","","","","","","","","",""
"","","","","","choice_trial","survey-html-form","133","1036512","0.0-5.0-1.24","171","1","2025-04-14 14:25:43","bb671e3ae32f654b8954ea4c4635f915","","Mozilla/5.0 (Windows NT 10.0; Win64; x64; rv:137.0) Gecko/20100101 Firefox/137.0","","Firefox","137.0","Windows","10.0","https://hz8g1ckzuq.cognition.run/","en-US,en;q=0.5","kn3o5p39gx78cmk","32","[""White""]","No","Female","1150267","5409","","","{""product_choice"":""B""}","choice","ctd","repulsion_1","1","televisions","null","null","null","null","null","null","1","100","90","100","30","40","25","Screen size","Average lifespan","",""
"","","","","","choice_trial_setup","html-keyboard-response","134","1036818","0.0-5.0-0.25","171","1","2025-04-14 14:25:43","bb671e3ae32f654b8954ea4c4635f915","","Mozilla/5.0 (Windows NT 10.0; Win64; x64; rv:137.0) Gecko/20100101 Firefox/137.0","","Firefox","137.0","Windows","10.0","https://hz8g1ckzuq.cognition.run/","en-US,en;q=0.5","kn3o5p39gx78cmk","32","[""White""]","No","Female","1150267","null","","<p></p>","null","choice","dct","attraction_1","2","washing machines","null","null","null","null","null","null","2","","","","","","","","","",""
"","","","","","choice_trial","survey-html-form","135","1042922","0.0-5.0-1.25","171","1","2025-04-14 14:25:43","bb671e3ae32f654b8954ea4c4635f915","","Mozilla/5.0 (Windows NT 10.0; Win64; x64; rv:137.0) Gecko/20100101 Firefox/137.0","","Firefox","137.0","Windows","10.0","https://hz8g1ckzuq.cognition.run/","en-US,en;q=0.5","kn3o5p39gx78cmk","32","[""White""]","No","Female","1150267","6102","","","{""product_choice"":""C""}","choice","dct","attraction_1","2","washing machines","null","null","null","null","null","null","2","50","60","45","60","50","60","Average lifespan","Energy savings","",""
"","","","","","choice_trial_setup","html-keyboard-response","136","1043227","0.0-5.0-0.26","171","1","2025-04-14 14:25:43","bb671e3ae32f654b8954ea4c4635f915","","Mozilla/5.0 (Windows NT 10.0; Win64; x64; rv:137.0) Gecko/20100101 Firefox/137.0","","Firefox","137.0","Windows","10.0","https://hz8g1ckzuq.cognition.run/","en-US,en;q=0.5","kn3o5p39gx78cmk","32","[""White""]","No","Female","1150267","null","","<p></p>","null","choice","tcd","repulsion_1","2","microwave ovens","null","null","null","null","null","null","1","","","","","","","","","",""
"","","","","","choice_trial","survey-html-form","137","1051357","0.0-5.0-1.26","171","1","2025-04-14 14:25:43","bb671e3ae32f654b8954ea4c4635f915","","Mozilla/5.0 (Windows NT 10.0; Win64; x64; rv:137.0) Gecko/20100101 Firefox/137.0","","Firefox","137.0","Windows","10.0","https://hz8g1ckzuq.cognition.run/","en-US,en;q=0.5","kn3o5p39gx78cmk","32","[""White""]","No","Female","1150267","8128","","","{""product_choice"":""A""}","choice","tcd","repulsion_1","2","microwave ovens","null","null","null","null","null","null","1","30","40","25","100","90","100","Warranty","Cooking power","",""
"","","","","","choice_trial_setup","html-keyboard-response","138","1051667","0.0-5.0-0.27","171","1","2025-04-14 14:25:43","bb671e3ae32f654b8954ea4c4635f915","","Mozilla/5.0 (Windows NT 10.0; Win64; x64; rv:137.0) Gecko/20100101 Firefox/137.0","","Firefox","137.0","Windows","10.0","https://hz8g1ckzuq.cognition.run/","en-US,en;q=0.5","kn3o5p39gx78cmk","32","[""White""]","No","Female","1150267","null","","<p></p>","null","choice","cdt","repulsion_1","1","laptops","null","null","null","null","null","null","1","","","","","","","","","",""
"","","","","","choice_trial","survey-html-form","139","1055494","0.0-5.0-1.27","171","1","2025-04-14 14:25:43","bb671e3ae32f654b8954ea4c4635f915","","Mozilla/5.0 (Windows NT 10.0; Win64; x64; rv:137.0) Gecko/20100101 Firefox/137.0","","Firefox","137.0","Windows","10.0","https://hz8g1ckzuq.cognition.run/","en-US,en;q=0.5","kn3o5p39gx78cmk","32","[""White""]","No","Female","1150267","3824","","","{""product_choice"":""C""}","choice","cdt","repulsion_1","1","laptops","null","null","null","null","null","null","1","100","90","100","30","40","25","Processing speed","Memory (RAM)","",""
"","","","","","choice_trial_setup","html-keyboard-response","140","1055805","0.0-5.0-0.28","171","1","2025-04-14 14:25:43","bb671e3ae32f654b8954ea4c4635f915","","Mozilla/5.0 (Windows NT 10.0; Win64; x64; rv:137.0) Gecko/20100101 Firefox/137.0","","Firefox","137.0","Windows","10.0","https://hz8g1ckzuq.cognition.run/","en-US,en;q=0.5","kn3o5p39gx78cmk","32","[""White""]","No","Female","1150267","null","","<p></p>","null","choice","tdc","attraction_1","1","televisions","null","null","null","null","null","null","2","","","","","","","","","",""
"","","","","","choice_trial","survey-html-form","141","1059417","0.0-5.0-1.28","171","1","2025-04-14 14:25:43","bb671e3ae32f654b8954ea4c4635f915","","Mozilla/5.0 (Windows NT 10.0; Win64; x64; rv:137.0) Gecko/20100101 Firefox/137.0","","Firefox","137.0","Windows","10.0","https://hz8g1ckzuq.cognition.run/","en-US,en;q=0.5","kn3o5p39gx78cmk","32","[""White""]","No","Female","1150267","3610","","","{""product_choice"":""A""}","choice","tdc","attraction_1","1","televisions","null","null","null","null","null","null","2","60","50","60","50","60","45","Screen size","Average lifespan","",""
"","","","","","choice_trial_setup","html-keyboard-response","142","1059721","0.0-5.0-0.29","171","1","2025-04-14 14:25:43","bb671e3ae32f654b8954ea4c4635f915","","Mozilla/5.0 (Windows NT 10.0; Win64; x64; rv:137.0) Gecko/20100101 Firefox/137.0","","Firefox","137.0","Windows","10.0","https://hz8g1ckzuq.cognition.run/","en-US,en;q=0.5","kn3o5p39gx78cmk","32","[""White""]","No","Female","1150267","null","","<p></p>","null","choice","wbw","catch","null","washing machines","75","70","25","20","25","50","1","","","","","","","","","",""
"","","","","","choice_trial","survey-html-form","143","1062731","0.0-5.0-1.29","171","1","2025-04-14 14:25:43","bb671e3ae32f654b8954ea4c4635f915","","Mozilla/5.0 (Windows NT 10.0; Win64; x64; rv:137.0) Gecko/20100101 Firefox/137.0","","Firefox","137.0","Windows","10.0","https://hz8g1ckzuq.cognition.run/","en-US,en;q=0.5","kn3o5p39gx78cmk","32","[""White""]","No","Female","1150267","3004","","","{""product_choice"":""B""}","choice","wbw","catch","null","washing machines","75","70","25","20","25","50","1","null","null","null","null","null","null","Average lifespan","Energy savings","",""
"","","","","","choice_trial_setup","html-keyboard-response","144","1063036","0.0-5.0-0.30","171","1","2025-04-14 14:25:43","bb671e3ae32f654b8954ea4c4635f915","","Mozilla/5.0 (Windows NT 10.0; Win64; x64; rv:137.0) Gecko/20100101 Firefox/137.0","","Firefox","137.0","Windows","10.0","https://hz8g1ckzuq.cognition.run/","en-US,en;q=0.5","kn3o5p39gx78cmk","32","[""White""]","No","Female","1150267","null","","<p></p>","null","choice","tdc","repulsion_1","1","washing machines","null","null","null","null","null","null","2","","","","","","","","","",""
"","","","","","choice_trial","survey-html-form","145","1067296","0.0-5.0-1.30","171","1","2025-04-14 14:25:43","bb671e3ae32f654b8954ea4c4635f915","","Mozilla/5.0 (Windows NT 10.0; Win64; x64; rv:137.0) Gecko/20100101 Firefox/137.0","","Firefox","137.0","Windows","10.0","https://hz8g1ckzuq.cognition.run/","en-US,en;q=0.5","kn3o5p39gx78cmk","32","[""White""]","No","Female","1150267","4255","","","{""product_choice"":""C""}","choice","tdc","repulsion_1","1","washing machines","null","null","null","null","null","null","2","100","90","100","30","40","25","Average lifespan","Energy savings","",""
"","","","","","choice_trial_setup","html-keyboard-response","146","1067606","0.0-5.0-0.31","171","1","2025-04-14 14:25:43","bb671e3ae32f654b8954ea4c4635f915","","Mozilla/5.0 (Windows NT 10.0; Win64; x64; rv:137.0) Gecko/20100101 Firefox/137.0","","Firefox","137.0","Windows","10.0","https://hz8g1ckzuq.cognition.run/","en-US,en;q=0.5","kn3o5p39gx78cmk","32","[""White""]","No","Female","1150267","null","","<p></p>","null","choice","wwb","catch","null","microwave ovens","85","80","10","50","35","35","1","","","","","","","","","",""
"","","","","","choice_trial","survey-html-form","147","1072709","0.0-5.0-1.31","171","1","2025-04-14 14:25:43","bb671e3ae32f654b8954ea4c4635f915","","Mozilla/5.0 (Windows NT 10.0; Win64; x64; rv:137.0) Gecko/20100101 Firefox/137.0","","Firefox","137.0","Windows","10.0","https://hz8g1ckzuq.cognition.run/","en-US,en;q=0.5","kn3o5p39gx78cmk","32","[""White""]","No","Female","1150267","5102","","","{""product_choice"":""C""}","choice","wwb","catch","null","microwave ovens","85","80","10","50","35","35","1","null","null","null","null","null","null","Warranty","Cooking power","",""
"","","","","","choice_trial_setup","html-keyboard-response","148","1073019","0.0-5.0-0.32","171","1","2025-04-14 14:25:43","bb671e3ae32f654b8954ea4c4635f915","","Mozilla/5.0 (Windows NT 10.0; Win64; x64; rv:137.0) Gecko/20100101 Firefox/137.0","","Firefox","137.0","Windows","10.0","https://hz8g1ckzuq.cognition.run/","en-US,en;q=0.5","kn3o5p39gx78cmk","32","[""White""]","No","Female","1150267","null","","<p></p>","null","choice","dtc","repulsion_1","2","washing machines","null","null","null","null","null","null","2","","","","","","","","","",""
"","","","","","choice_trial","survey-html-form","149","1080078","0.0-5.0-1.32","171","1","2025-04-14 14:25:43","bb671e3ae32f654b8954ea4c4635f915","","Mozilla/5.0 (Windows NT 10.0; Win64; x64; rv:137.0) Gecko/20100101 Firefox/137.0","","Firefox","137.0","Windows","10.0","https://hz8g1ckzuq.cognition.run/","en-US,en;q=0.5","kn3o5p39gx78cmk","32","[""White""]","No","Female","1150267","7056","","","{""product_choice"":""B""}","choice","dtc","repulsion_1","2","washing machines","null","null","null","null","null","null","2","30","40","25","100","90","100","Average lifespan","Energy savings","",""
"","","","","","choice_trial_setup","html-keyboard-response","150","1080385","0.0-5.0-0.33","171","1","2025-04-14 14:25:43","bb671e3ae32f654b8954ea4c4635f915","","Mozilla/5.0 (Windows NT 10.0; Win64; x64; rv:137.0) Gecko/20100101 Firefox/137.0","","Firefox","137.0","Windows","10.0","https://hz8g1ckzuq.cognition.run/","en-US,en;q=0.5","kn3o5p39gx78cmk","32","[""White""]","No","Female","1150267","null","","<p></p>","null","choice","dtc","repulsion_1","2","televisions","null","null","null","null","null","null","1","","","","","","","","","",""
"","","","","","choice_trial","survey-html-form","151","1086069","0.0-5.0-1.33","171","1","2025-04-14 14:25:43","bb671e3ae32f654b8954ea4c4635f915","","Mozilla/5.0 (Windows NT 10.0; Win64; x64; rv:137.0) Gecko/20100101 Firefox/137.0","","Firefox","137.0","Windows","10.0","https://hz8g1ckzuq.cognition.run/","en-US,en;q=0.5","kn3o5p39gx78cmk","32","[""White""]","No","Female","1150267","5682","","","{""product_choice"":""B""}","choice","dtc","repulsion_1","2","televisions","null","null","null","null","null","null","1","30","40","25","100","90","100","Screen size","Average lifespan","",""
"","","","","","choice_trial_setup","html-keyboard-response","152","1086376","0.0-5.0-0.34","171","1","2025-04-14 14:25:43","bb671e3ae32f654b8954ea4c4635f915","","Mozilla/5.0 (Windows NT 10.0; Win64; x64; rv:137.0) Gecko/20100101 Firefox/137.0","","Firefox","137.0","Windows","10.0","https://hz8g1ckzuq.cognition.run/","en-US,en;q=0.5","kn3o5p39gx78cmk","32","[""White""]","No","Female","1150267","null","","<p></p>","null","choice","dtc","repulsion_2","2","washing machines","null","null","null","null","null","null","2","","","","","","","","","",""
"","","","","","choice_trial","survey-html-form","153","1092163","0.0-5.0-1.34","171","1","2025-04-14 14:25:43","bb671e3ae32f654b8954ea4c4635f915","","Mozilla/5.0 (Windows NT 10.0; Win64; x64; rv:137.0) Gecko/20100101 Firefox/137.0","","Firefox","137.0","Windows","10.0","https://hz8g1ckzuq.cognition.run/","en-US,en;q=0.5","kn3o5p39gx78cmk","32","[""White""]","No","Female","1150267","5785","","","{""product_choice"":""B""}","choice","dtc","repulsion_2","2","washing machines","null","null","null","null","null","null","2","30","40","20","100","90","100","Average lifespan","Energy savings","",""
"","","","","","choice_trial_setup","html-keyboard-response","154","1092479","0.0-5.0-0.35","171","1","2025-04-14 14:25:43","bb671e3ae32f654b8954ea4c4635f915","","Mozilla/5.0 (Windows NT 10.0; Win64; x64; rv:137.0) Gecko/20100101 Firefox/137.0","","Firefox","137.0","Windows","10.0","https://hz8g1ckzuq.cognition.run/","en-US,en;q=0.5","kn3o5p39gx78cmk","32","[""White""]","No","Female","1150267","null","","<p></p>","null","choice","ctd","attraction_1","2","televisions","null","null","null","null","null","null","1","","","","","","","","","",""
"","","","","","choice_trial","survey-html-form","155","1095290","0.0-5.0-1.35","171","1","2025-04-14 14:25:43","bb671e3ae32f654b8954ea4c4635f915","","Mozilla/5.0 (Windows NT 10.0; Win64; x64; rv:137.0) Gecko/20100101 Firefox/137.0","","Firefox","137.0","Windows","10.0","https://hz8g1ckzuq.cognition.run/","en-US,en;q=0.5","kn3o5p39gx78cmk","32","[""White""]","No","Female","1150267","2810","","","{""product_choice"":""A""}","choice","ctd","attraction_1","2","televisions","null","null","null","null","null","null","1","50","60","45","60","50","60","Screen size","Average lifespan","",""
"","","","","","choice_trial_setup","html-keyboard-response","156","1095605","0.0-5.0-0.36","171","1","2025-04-14 14:25:43","bb671e3ae32f654b8954ea4c4635f915","","Mozilla/5.0 (Windows NT 10.0; Win64; x64; rv:137.0) Gecko/20100101 Firefox/137.0","","Firefox","137.0","Windows","10.0","https://hz8g1ckzuq.cognition.run/","en-US,en;q=0.5","kn3o5p39gx78cmk","32","[""White""]","No","Female","1150267","null","","<p></p>","null","choice","tdc","attraction_2","2","televisions","null","null","null","null","null","null","1","","","","","","","","","",""
"","","","","","choice_trial","survey-html-form","157","1100104","0.0-5.0-1.36","171","1","2025-04-14 14:25:43","bb671e3ae32f654b8954ea4c4635f915","","Mozilla/5.0 (Windows NT 10.0; Win64; x64; rv:137.0) Gecko/20100101 Firefox/137.0","","Firefox","137.0","Windows","10.0","https://hz8g1ckzuq.cognition.run/","en-US,en;q=0.5","kn3o5p39gx78cmk","32","[""White""]","No","Female","1150267","4495","","","{""product_choice"":""C""}","choice","tdc","attraction_2","2","televisions","null","null","null","null","null","null","1","50","60","40","60","50","60","Screen size","Average lifespan","",""
"","","","","","choice_trial_setup","html-keyboard-response","158","1100423","0.0-5.0-0.37","171","1","2025-04-14 14:25:43","bb671e3ae32f654b8954ea4c4635f915","","Mozilla/5.0 (Windows NT 10.0; Win64; x64; rv:137.0) Gecko/20100101 Firefox/137.0","","Firefox","137.0","Windows","10.0","https://hz8g1ckzuq.cognition.run/","en-US,en;q=0.5","kn3o5p39gx78cmk","32","[""White""]","No","Female","1150267","null","","<p></p>","null","choice","wbw","catch","null","televisions","95","70","30","40","5","40","2","","","","","","","","","",""
"","","","","","choice_trial","survey-html-form","159","1103672","0.0-5.0-1.37","171","1","2025-04-14 14:25:43","bb671e3ae32f654b8954ea4c4635f915","","Mozilla/5.0 (Windows NT 10.0; Win64; x64; rv:137.0) Gecko/20100101 Firefox/137.0","","Firefox","137.0","Windows","10.0","https://hz8g1ckzuq.cognition.run/","en-US,en;q=0.5","kn3o5p39gx78cmk","32","[""White""]","No","Female","1150267","3245","","","{""product_choice"":""B""}","choice","wbw","catch","null","televisions","95","70","30","40","5","40","2","null","null","null","null","null","null","Screen size","Average lifespan","",""
"","","","","","choice_trial_setup","html-keyboard-response","160","1103975","0.0-5.0-0.38","171","1","2025-04-14 14:25:43","bb671e3ae32f654b8954ea4c4635f915","","Mozilla/5.0 (Windows NT 10.0; Win64; x64; rv:137.0) Gecko/20100101 Firefox/137.0","","Firefox","137.0","Windows","10.0","https://hz8g1ckzuq.cognition.run/","en-US,en;q=0.5","kn3o5p39gx78cmk","32","[""White""]","No","Female","1150267","null","","<p></p>","null","choice","dtc","attraction_2","1","microwave ovens","null","null","null","null","null","null","1","","","","","","","","","",""
"","","","","","choice_trial","survey-html-form","161","1110253","0.0-5.0-1.38","171","1","2025-04-14 14:25:43","bb671e3ae32f654b8954ea4c4635f915","","Mozilla/5.0 (Windows NT 10.0; Win64; x64; rv:137.0) Gecko/20100101 Firefox/137.0","","Firefox","137.0","Windows","10.0","https://hz8g1ckzuq.cognition.run/","en-US,en;q=0.5","kn3o5p39gx78cmk","32","[""White""]","No","Female","1150267","6271","","","{""product_choice"":""C""}","choice","dtc","attraction_2","1","microwave ovens","null","null","null","null","null","null","1","60","50","60","50","60","40","Warranty","Cooking power","",""
"","","","","","choice_trial_setup","html-keyboard-response","162","1110588","0.0-5.0-0.39","171","1","2025-04-14 14:25:43","bb671e3ae32f654b8954ea4c4635f915","","Mozilla/5.0 (Windows NT 10.0; Win64; x64; rv:137.0) Gecko/20100101 Firefox/137.0","","Firefox","137.0","Windows","10.0","https://hz8g1ckzuq.cognition.run/","en-US,en;q=0.5","kn3o5p39gx78cmk","32","[""White""]","No","Female","1150267","null","","<p></p>","null","choice","tdc","attraction_2","1","televisions","null","null","null","null","null","null","1","","","","","","","","","",""
"","","","","","choice_trial","survey-html-form","163","1114349","0.0-5.0-1.39","171","1","2025-04-14 14:25:43","bb671e3ae32f654b8954ea4c4635f915","","Mozilla/5.0 (Windows NT 10.0; Win64; x64; rv:137.0) Gecko/20100101 Firefox/137.0","","Firefox","137.0","Windows","10.0","https://hz8g1ckzuq.cognition.run/","en-US,en;q=0.5","kn3o5p39gx78cmk","32","[""White""]","No","Female","1150267","3753","","","{""product_choice"":""A""}","choice","tdc","attraction_2","1","televisions","null","null","null","null","null","null","1","60","50","60","50","60","40","Screen size","Average lifespan","",""
"","","","","","","html-button-response","164","1116312","0.0-6.0","171","1","2025-04-14 14:25:43","bb671e3ae32f654b8954ea4c4635f915","","Mozilla/5.0 (Windows NT 10.0; Win64; x64; rv:137.0) Gecko/20100101 Firefox/137.0","","Firefox","137.0","Windows","10.0","https://hz8g1ckzuq.cognition.run/","en-US,en;q=0.5","kn3o5p39gx78cmk","32","[""White""]","No","Female","1150267","1959","","<p> <b>Thank you for your patience!</b></p><p>  The study will be done after completing a brief form. </p>","0","","","","","","","","","","","","","","","","","","","","","",""
"","","","","","","survey-text","165","1141431","0.0-7.0","171","1","2025-04-14 14:25:43","bb671e3ae32f654b8954ea4c4635f915","","Mozilla/5.0 (Windows NT 10.0; Win64; x64; rv:137.0) Gecko/20100101 Firefox/137.0","","Firefox","137.0","Windows","10.0","https://hz8g1ckzuq.cognition.run/","en-US,en;q=0.5","kn3o5p39gx78cmk","32","[""White""]","No","Female","1150267","25110","","","{""Q0"":""I based everything off a ration of what the warranty/lifespan was to performance to make my assessment. ""}","","","","","","","","","","","","","","","","","","","","","I based everything off a ration of what the warranty/lifespan was to performance to make my assessment. ",""
"","","","","","","survey-text","166","1144682","0.0-8.0","171","1","2025-04-14 14:25:43","bb671e3ae32f654b8954ea4c4635f915","","Mozilla/5.0 (Windows NT 10.0; Win64; x64; rv:137.0) Gecko/20100101 Firefox/137.0","","Firefox","137.0","Windows","10.0","https://hz8g1ckzuq.cognition.run/","en-US,en;q=0.5","kn3o5p39gx78cmk","32","[""White""]","No","Female","1150267","3244","","","{""Q0"":""32""}","","","","","","","","","","","","","","","","","","","","","",""
"","","","","","","survey-multi-select","167","1146944","0.0-9.0","171","1","2025-04-14 14:25:43","bb671e3ae32f654b8954ea4c4635f915","","Mozilla/5.0 (Windows NT 10.0; Win64; x64; rv:137.0) Gecko/20100101 Firefox/137.0","","Firefox","137.0","Windows","10.0","https://hz8g1ckzuq.cognition.run/","en-US,en;q=0.5","kn3o5p39gx78cmk","32","[""White""]","No","Female","1150267","2258","","","{""Q0"":[""White""]}","","","","","","","","","","","","","","","","","","","","","","[0]"
"","","","","","","survey-multi-choice","168","1150266","0.0-10.0","171","1","2025-04-14 14:25:43","bb671e3ae32f654b8954ea4c4635f915","","Mozilla/5.0 (Windows NT 10.0; Win64; x64; rv:137.0) Gecko/20100101 Firefox/137.0","","Firefox","137.0","Windows","10.0","https://hz8g1ckzuq.cognition.run/","en-US,en;q=0.5","kn3o5p39gx78cmk","32","[""White""]","No","Female","1150267","3319","","","{""Q0"":""No"",""Q1"":""Female""}","","","","","","","","","","","","","","","","","","","","","","[0,1]"
"","","","","","","html-keyboard-response","169","1157150","0.0-11.0","171","1","2025-04-14 14:25:43","bb671e3ae32f654b8954ea4c4635f915","","Mozilla/5.0 (Windows NT 10.0; Win64; x64; rv:137.0) Gecko/20100101 Firefox/137.0","","Firefox","137.0","Windows","10.0","https://hz8g1ckzuq.cognition.run/","en-US,en;q=0.5","kn3o5p39gx78cmk","32","[""White""]","No","Female","1150267","6879","","","q","","","","","","","","","","","","","","","","","","","","","",""