"success","timeout","failed_images","failed_audio","failed_video","screen_id","trial_type","trial_index","time_elapsed","internal_node_id","run_id","condition","recorded_at","source_code_version","ip","user_agent","device","browser","browser_version","platform","platform_version","referer","accept_language","ppt_id","rt","view_history","stimulus","response","phase","order","effect","t_high","category","d1_best","d2_best","d1_worst1","d2_worst1","d1_worst2","d2_worst2","first_dim","d1_t","d1_c","d1_d","d2_t","d2_c","d2_d","d1_name","d2_name"
"true","false","[]","[]","[]","img preload","preload","0","3934","0.0-0.0","172","1","2025-04-14 14:25:48","bb671e3ae32f654b8954ea4c4635f915","","Mozilla/5.0 (Windows NT 10.0; Win64; x64) AppleWebKit/537.36 (KHTML, like Gecko) Chrome/134.0.0.0 Safari/537.36","WebKit","Chrome","134.0.0.0","Windows","10.0","https://hz8g1ckzuq.cognition.run/","en-US,en;q=0.9","jd4h8dk8tzsuf1f","","","","","","","","","","","","","","","","","","","","","","","",""
"true","","","","","","fullscreen","1","7893","0.0-1.0","172","1","2025-04-14 14:25:48","bb671e3ae32f654b8954ea4c4635f915","","Mozilla/5.0 (Windows NT 10.0; Win64; x64) AppleWebKit/537.36 (KHTML, like Gecko) Chrome/134.0.0.0 Safari/537.36","WebKit","Chrome","134.0.0.0","Windows","10.0","https://hz8g1ckzuq.cognition.run/","en-US,en;q=0.9","jd4h8dk8tzsuf1f","2955","","","","","","","","","","","","","","","","","","","","","","",""
"","","","","","","instructions","2","119296","0.0-2.0","172","1","2025-04-14 14:25:48","bb671e3ae32f654b8954ea4c4635f915","","Mozilla/5.0 (Windows NT 10.0; Win64; x64) AppleWebKit/537.36 (KHTML, like Gecko) Chrome/134.0.0.0 Safari/537.36","WebKit","Chrome","134.0.0.0","Windows","10.0","https://hz8g1ckzuq.cognition.run/","en-US,en;q=0.9","jd4h8dk8tzsuf1f","111401","[{""page_index"":0,""viewing_time"":1309},{""page_index"":1,""viewing_time"":3171},{""page_index"":2,""viewing_time"":7076},{""page_index"":3,""viewing_time"":4960},{""page_index"":4,""viewing_time"":55590},{""page_index"":5,""viewing_time"":6017},{""page_index"":6,""viewing_time"":5926},{""page_index"":7,""viewing_time"":15580},{""page_index"":8,""viewing_time"":7270},{""page_index"":9,""viewing_time"":4503}]","","","","","","","","","","","","","","","","","","","","","",""
"","","","","","rating_trial_setup","html-keyboard-response","3","119602","0.0-3.0-0.0","172","1","2025-04-14 14:25:48","bb671e3ae32f654b8954ea4c4635f915","","Mozilla/5.0 (Windows NT 10.0; Win64; x64) AppleWebKit/537.36 (KHTML, like Gecko) Chrome/134.0.0.0 Safari/537.36","WebKit","Chrome","134.0.0.0","Windows","10.0","https://hz8g1ckzuq.cognition.run/","en-US,en;q=0.9","jd4h8dk8tzsuf1f","null","","<p></p>","null","rating","dct","attraction_1","1","microwave ovens","null","null","null","null","null","null","1","","","","","","","",""
"","","","","","rating_trial","survey-html-form","4","395153","0.0-3.0-1.0","172","1","2025-04-14 14:25:48","bb671e3ae32f654b8954ea4c4635f915","","Mozilla/5.0 (Windows NT 10.0; Win64; x64) AppleWebKit/537.36 (KHTML, like Gecko) Chrome/134.0.0.0 Safari/537.36","WebKit","Chrome","134.0.0.0","Windows","10.0","https://hz8g1ckzuq.cognition.run/","en-US,en;q=0.9","jd4h8dk8tzsuf1f","275546","","","{""price_1"":""100"",""price_2"":""90"",""price_3"":""105""}","rating","dct","attraction_1","1","microwave ovens","null","null","null","null","null","null","1","60","50","60","50","60","45","Warranty","Cooking power"
"","","","","","rating_trial_setup","html-keyboard-response","5","395458","0.0-3.0-0.1","172","1","2025-04-14 14:25:48","bb671e3ae32f654b8954ea4c4635f915","","Mozilla/5.0 (Windows NT 10.0; Win64; x64) AppleWebKit/537.36 (KHTML, like Gecko) Chrome/134.0.0.0 Safari/537.36","WebKit","Chrome","134.0.0.0","Windows","10.0","https://hz8g1ckzuq.cognition.run/","en-US,en;q=0.9","jd4h8dk8tzsuf1f","null","","<p></p>","null","rating","wwb","catch","null","microwave ovens","90","80","40","20","50","30","2","","","","","","","",""
"","","","","","rating_trial","survey-html-form","6","457820","0.0-3.0-1.1","172","1","2025-04-14 14:25:48","bb671e3ae32f654b8954ea4c4635f915","","Mozilla/5.0 (Windows NT 10.0; Win64; x64) AppleWebKit/537.36 (KHTML, like Gecko) Chrome/134.0.0.0 Safari/537.36","WebKit","Chrome","134.0.0.0","Windows","10.0","https://hz8g1ckzuq.cognition.run/","en-US,en;q=0.9","jd4h8dk8tzsuf1f","62359","","","{""price_1"":""60"",""price_2"":""80"",""price_3"":""150""}","rating","wwb","catch","null","microwave ovens","90","80","40","20","50","30","2","null","null","null","null","null","null","Warranty","Cooking power"
"","","","","","rating_trial_setup","html-keyboard-response","7","458124","0.0-3.0-0.2","172","1","2025-04-14 14:25:48","bb671e3ae32f654b8954ea4c4635f915","","Mozilla/5.0 (Windows NT 10.0; Win64; x64) AppleWebKit/537.36 (KHTML, like Gecko) Chrome/134.0.0.0 Safari/537.36","WebKit","Chrome","134.0.0.0","Windows","10.0","https://hz8g1ckzuq.cognition.run/","en-US,en;q=0.9","jd4h8dk8tzsuf1f","null","","<p></p>","null","rating","tcd","attraction_1","1","laptops","null","null","null","null","null","null","1","","","","","","","",""
"","","","","","rating_trial","survey-html-form","8","509178","0.0-3.0-1.2","172","1","2025-04-14 14:25:48","bb671e3ae32f654b8954ea4c4635f915","","Mozilla/5.0 (Windows NT 10.0; Win64; x64) AppleWebKit/537.36 (KHTML, like Gecko) Chrome/134.0.0.0 Safari/537.36","WebKit","Chrome","134.0.0.0","Windows","10.0","https://hz8g1ckzuq.cognition.run/","en-US,en;q=0.9","jd4h8dk8tzsuf1f","51050","","","{""price_1"":""600"",""price_2"":""550"",""price_3"":""500""}","rating","tcd","attraction_1","1","laptops","null","null","null","null","null","null","1","60","50","60","50","60","45","Processing speed","Memory (RAM)"
"","","","","","rating_trial_setup","html-keyboard-response","9","509483","0.0-3.0-0.3","172","1","2025-04-14 14:25:48","bb671e3ae32f654b8954ea4c4635f915","","Mozilla/5.0 (Windows NT 10.0; Win64; x64) AppleWebKit/537.36 (KHTML, like Gecko) Chrome/134.0.0.0 Safari/537.36","WebKit","Chrome","134.0.0.0","Windows","10.0","https://hz8g1ckzuq.cognition.run/","en-US,en;q=0.9","jd4h8dk8tzsuf1f","null","","<p></p>","null","rating","dct","attraction_2","1","televisions","null","null","null","null","null","null","1","","","","","","","",""
"","","","","","rating_trial","survey-html-form","10","557428","0.0-3.0-1.3","172","1","2025-04-14 14:25:48","bb671e3ae32f654b8954ea4c4635f915","","Mozilla/5.0 (Windows NT 10.0; Win64; x64) AppleWebKit/537.36 (KHTML, like Gecko) Chrome/134.0.0.0 Safari/537.36","WebKit","Chrome","134.0.0.0","Windows","10.0","https://hz8g1ckzuq.cognition.run/","en-US,en;q=0.9","jd4h8dk8tzsuf1f","47941","","","{""price_1"":""180"",""price_2"":""220"",""price_3"":""200""}","rating","dct","attraction_2","1","televisions","null","null","null","null","null","null","1","60","50","60","50","60","40","Screen size","Average lifespan"
"","","","","","rating_trial_setup","html-keyboard-response","11","557732","0.0-3.0-0.4","172","1","2025-04-14 14:25:48","bb671e3ae32f654b8954ea4c4635f915","","Mozilla/5.0 (Windows NT 10.0; Win64; x64) AppleWebKit/537.36 (KHTML, like Gecko) Chrome/134.0.0.0 Safari/537.36","WebKit","Chrome","134.0.0.0","Windows","10.0","https://hz8g1ckzuq.cognition.run/","en-US,en;q=0.9","jd4h8dk8tzsuf1f","null","","<p></p>","null","rating","tdc","attraction_2","2","washing machines","null","null","null","null","null","null","2","","","","","","","",""
"","","","","","rating_trial","survey-html-form","12","607716","0.0-3.0-1.4","172","1","2025-04-14 14:25:48","bb671e3ae32f654b8954ea4c4635f915","","Mozilla/5.0 (Windows NT 10.0; Win64; x64) AppleWebKit/537.36 (KHTML, like Gecko) Chrome/134.0.0.0 Safari/537.36","WebKit","Chrome","134.0.0.0","Windows","10.0","https://hz8g1ckzuq.cognition.run/","en-US,en;q=0.9","jd4h8dk8tzsuf1f","49981","","","{""price_1"":""1100"",""price_2"":""1000"",""price_3"":""1200""}","rating","tdc","attraction_2","2","washing machines","null","null","null","null","null","null","2","50","60","40","60","50","60","Average lifespan","Energy savings"
"","","","","","rating_trial_setup","html-keyboard-response","13","608021","0.0-3.0-0.5","172","1","2025-04-14 14:25:48","bb671e3ae32f654b8954ea4c4635f915","","Mozilla/5.0 (Windows NT 10.0; Win64; x64) AppleWebKit/537.36 (KHTML, like Gecko) Chrome/134.0.0.0 Safari/537.36","WebKit","Chrome","134.0.0.0","Windows","10.0","https://hz8g1ckzuq.cognition.run/","en-US,en;q=0.9","jd4h8dk8tzsuf1f","null","","<p></p>","null","rating","tdc","attraction_2","1","washing machines","null","null","null","null","null","null","1","","","","","","","",""
"","","","","","rating_trial","survey-html-form","14","693634","0.0-3.0-1.5","172","1","2025-04-14 14:25:48","bb671e3ae32f654b8954ea4c4635f915","","Mozilla/5.0 (Windows NT 10.0; Win64; x64) AppleWebKit/537.36 (KHTML, like Gecko) Chrome/134.0.0.0 Safari/537.36","WebKit","Chrome","134.0.0.0","Windows","10.0","https://hz8g1ckzuq.cognition.run/","en-US,en;q=0.9","jd4h8dk8tzsuf1f","85610","","","{""price_1"":""700"",""price_2"":""650"",""price_3"":""750""}","rating","tdc","attraction_2","1","washing machines","null","null","null","null","null","null","1","60","50","60","50","60","40","Average lifespan","Energy savings"
"","","","","","rating_trial_setup","html-keyboard-response","15","693939","0.0-3.0-0.6","172","1","2025-04-14 14:25:48","bb671e3ae32f654b8954ea4c4635f915","","Mozilla/5.0 (Windows NT 10.0; Win64; x64) AppleWebKit/537.36 (KHTML, like Gecko) Chrome/134.0.0.0 Safari/537.36","WebKit","Chrome","134.0.0.0","Windows","10.0","https://hz8g1ckzuq.cognition.run/","en-US,en;q=0.9","jd4h8dk8tzsuf1f","null","","<p></p>","null","rating","tdc","attraction_1","2","laptops","null","null","null","null","null","null","2","","","","","","","",""
"","","","","","rating_trial","survey-html-form","16","755304","0.0-3.0-1.6","172","1","2025-04-14 14:25:48","bb671e3ae32f654b8954ea4c4635f915","","Mozilla/5.0 (Windows NT 10.0; Win64; x64) AppleWebKit/537.36 (KHTML, like Gecko) Chrome/134.0.0.0 Safari/537.36","WebKit","Chrome","134.0.0.0","Windows","10.0","https://hz8g1ckzuq.cognition.run/","en-US,en;q=0.9","jd4h8dk8tzsuf1f","61361","","","{""price_1"":""750"",""price_2"":""700"",""price_3"":""800""}","rating","tdc","attraction_1","2","laptops","null","null","null","null","null","null","2","50","60","45","60","50","60","Processing speed","Memory (RAM)"
"","","","","","rating_trial_setup","html-keyboard-response","17","755609","0.0-3.0-0.7","172","1","2025-04-14 14:25:48","bb671e3ae32f654b8954ea4c4635f915","","Mozilla/5.0 (Windows NT 10.0; Win64; x64) AppleWebKit/537.36 (KHTML, like Gecko) Chrome/134.0.0.0 Safari/537.36","WebKit","Chrome","134.0.0.0","Windows","10.0","https://hz8g1ckzuq.cognition.run/","en-US,en;q=0.9","jd4h8dk8tzsuf1f","null","","<p></p>","null","rating","dct","repulsion_2","1","washing machines","null","null","null","null","null","null","1","","","","","","","",""
"","","","","","rating_trial","survey-html-form","18","803904","0.0-3.0-1.7","172","1","2025-04-14 14:25:48","bb671e3ae32f654b8954ea4c4635f915","","Mozilla/5.0 (Windows NT 10.0; Win64; x64) AppleWebKit/537.36 (KHTML, like Gecko) Chrome/134.0.0.0 Safari/537.36","WebKit","Chrome","134.0.0.0","Windows","10.0","https://hz8g1ckzuq.cognition.run/","en-US,en;q=0.9","jd4h8dk8tzsuf1f","48291","","","{""price_1"":""800"",""price_2"":""700"",""price_3"":""900""}","rating","dct","repulsion_2","1","washing machines","null","null","null","null","null","null","1","100","90","100","30","40","20","Average lifespan","Energy savings"
"","","","","","rating_trial_setup","html-keyboard-response","19","804209","0.0-3.0-0.8","172","1","2025-04-14 14:25:48","bb671e3ae32f654b8954ea4c4635f915","","Mozilla/5.0 (Windows NT 10.0; Win64; x64) AppleWebKit/537.36 (KHTML, like Gecko) Chrome/134.0.0.0 Safari/537.36","WebKit","Chrome","134.0.0.0","Windows","10.0","https://hz8g1ckzuq.cognition.run/","en-US,en;q=0.9","jd4h8dk8tzsuf1f","null","","<p></p>","null","rating","bww","catch","null","washing machines","85","70","40","45","35","25","1","","","","","","","",""
"","","","","","rating_trial","survey-html-form","20","851250","0.0-3.0-1.8","172","1","2025-04-14 14:25:48","bb671e3ae32f654b8954ea4c4635f915","","Mozilla/5.0 (Windows NT 10.0; Win64; x64) AppleWebKit/537.36 (KHTML, like Gecko) Chrome/134.0.0.0 Safari/537.36","WebKit","Chrome","134.0.0.0","Windows","10.0","https://hz8g1ckzuq.cognition.run/","en-US,en;q=0.9","jd4h8dk8tzsuf1f","47036","","","{""price_1"":""950"",""price_2"":""500"",""price_3"":""400""}","rating","bww","catch","null","washing machines","85","70","40","45","35","25","1","null","null","null","null","null","null","Average lifespan","Energy savings"
"","","","","","rating_trial_setup","html-keyboard-response","21","851556","0.0-3.0-0.9","172","1","2025-04-14 14:25:48","bb671e3ae32f654b8954ea4c4635f915","","Mozilla/5.0 (Windows NT 10.0; Win64; x64) AppleWebKit/537.36 (KHTML, like Gecko) Chrome/134.0.0.0 Safari/537.36","WebKit","Chrome","134.0.0.0","Windows","10.0","https://hz8g1ckzuq.cognition.run/","en-US,en;q=0.9","jd4h8dk8tzsuf1f","null","","<p></p>","null","rating","dtc","attraction_1","2","washing machines","null","null","null","null","null","null","1","","","","","","","",""
"","","","","","rating_trial","survey-html-form","22","906938","0.0-3.0-1.9","172","1","2025-04-14 14:25:48","bb671e3ae32f654b8954ea4c4635f915","","Mozilla/5.0 (Windows NT 10.0; Win64; x64) AppleWebKit/537.36 (KHTML, like Gecko) Chrome/134.0.0.0 Safari/537.36","WebKit","Chrome","134.0.0.0","Windows","10.0","https://hz8g1ckzuq.cognition.run/","en-US,en;q=0.9","jd4h8dk8tzsuf1f","55377","","","{""price_1"":""550"",""price_2"":""600"",""price_3"":""700""}","rating","dtc","attraction_1","2","washing machines","null","null","null","null","null","null","1","50","60","45","60","50","60","Average lifespan","Energy savings"
"","","","","","rating_trial_setup","html-keyboard-response","23","907244","0.0-3.0-0.10","172","1","2025-04-14 14:25:48","bb671e3ae32f654b8954ea4c4635f915","","Mozilla/5.0 (Windows NT 10.0; Win64; x64) AppleWebKit/537.36 (KHTML, like Gecko) Chrome/134.0.0.0 Safari/537.36","WebKit","Chrome","134.0.0.0","Windows","10.0","https://hz8g1ckzuq.cognition.run/","en-US,en;q=0.9","jd4h8dk8tzsuf1f","null","","<p></p>","null","rating","dtc","repulsion_2","2","televisions","null","null","null","null","null","null","2","","","","","","","",""
"","","","","","rating_trial","survey-html-form","24","948344","0.0-3.0-1.10","172","1","2025-04-14 14:25:48","bb671e3ae32f654b8954ea4c4635f915","","Mozilla/5.0 (Windows NT 10.0; Win64; x64) AppleWebKit/537.36 (KHTML, like Gecko) Chrome/134.0.0.0 Safari/537.36","WebKit","Chrome","134.0.0.0","Windows","10.0","https://hz8g1ckzuq.cognition.run/","en-US,en;q=0.9","jd4h8dk8tzsuf1f","41096","","","{""price_1"":""700"",""price_2"":""800"",""price_3"":""900""}","rating","dtc","repulsion_2","2","televisions","null","null","null","null","null","null","2","30","40","20","100","90","100","Screen size","Average lifespan"
"","","","","","rating_trial_setup","html-keyboard-response","25","948650","0.0-3.0-0.11","172","1","2025-04-14 14:25:48","bb671e3ae32f654b8954ea4c4635f915","","Mozilla/5.0 (Windows NT 10.0; Win64; x64) AppleWebKit/537.36 (KHTML, like Gecko) Chrome/134.0.0.0 Safari/537.36","WebKit","Chrome","134.0.0.0","Windows","10.0","https://hz8g1ckzuq.cognition.run/","en-US,en;q=0.9","jd4h8dk8tzsuf1f","null","","<p></p>","null","rating","dct","repulsion_1","1","laptops","null","null","null","null","null","null","1","","","","","","","",""
"","","","","","rating_trial","survey-html-form","26","994917","0.0-3.0-1.11","172","1","2025-04-14 14:25:48","bb671e3ae32f654b8954ea4c4635f915","","Mozilla/5.0 (Windows NT 10.0; Win64; x64) AppleWebKit/537.36 (KHTML, like Gecko) Chrome/134.0.0.0 Safari/537.36","WebKit","Chrome","134.0.0.0","Windows","10.0","https://hz8g1ckzuq.cognition.run/","en-US,en;q=0.9","jd4h8dk8tzsuf1f","46263","","","{""price_1"":""1200"",""price_2"":""1000"",""price_3"":""1300""}","rating","dct","repulsion_1","1","laptops","null","null","null","null","null","null","1","100","90","100","30","40","25","Processing speed","Memory (RAM)"
"","","","","","rating_trial_setup","html-keyboard-response","27","995220","0.0-3.0-0.12","172","1","2025-04-14 14:25:48","bb671e3ae32f654b8954ea4c4635f915","","Mozilla/5.0 (Windows NT 10.0; Win64; x64) AppleWebKit/537.36 (KHTML, like Gecko) Chrome/134.0.0.0 Safari/537.36","WebKit","Chrome","134.0.0.0","Windows","10.0","https://hz8g1ckzuq.cognition.run/","en-US,en;q=0.9","jd4h8dk8tzsuf1f","null","","<p></p>","null","rating","ctd","repulsion_2","1","microwave ovens","null","null","null","null","null","null","1","","","","","","","",""
"","","","","","rating_trial","survey-html-form","28","1045257","0.0-3.0-1.12","172","1","2025-04-14 14:25:48","bb671e3ae32f654b8954ea4c4635f915","","Mozilla/5.0 (Windows NT 10.0; Win64; x64) AppleWebKit/537.36 (KHTML, like Gecko) Chrome/134.0.0.0 Safari/537.36","WebKit","Chrome","134.0.0.0","Windows","10.0","https://hz8g1ckzuq.cognition.run/","en-US,en;q=0.9","jd4h8dk8tzsuf1f","50032","","","{""price_1"":""150"",""price_2"":""130"",""price_3"":""120""}","rating","ctd","repulsion_2","1","microwave ovens","null","null","null","null","null","null","1","100","90","100","30","40","20","Warranty","Cooking power"
"","","","","","rating_trial_setup","html-keyboard-response","29","1045561","0.0-3.0-0.13","172","1","2025-04-14 14:25:48","bb671e3ae32f654b8954ea4c4635f915","","Mozilla/5.0 (Windows NT 10.0; Win64; x64) AppleWebKit/537.36 (KHTML, like Gecko) Chrome/134.0.0.0 Safari/537.36","WebKit","Chrome","134.0.0.0","Windows","10.0","https://hz8g1ckzuq.cognition.run/","en-US,en;q=0.9","jd4h8dk8tzsuf1f","null","","<p></p>","null","rating","tdc","repulsion_2","2","laptops","null","null","null","null","null","null","1","","","","","","","",""
"","","","","","rating_trial","survey-html-form","30","1086449","0.0-3.0-1.13","172","1","2025-04-14 14:25:48","bb671e3ae32f654b8954ea4c4635f915","","Mozilla/5.0 (Windows NT 10.0; Win64; x64) AppleWebKit/537.36 (KHTML, like Gecko) Chrome/134.0.0.0 Safari/537.36","WebKit","Chrome","134.0.0.0","Windows","10.0","https://hz8g1ckzuq.cognition.run/","en-US,en;q=0.9","jd4h8dk8tzsuf1f","40882","","","{""price_1"":""900"",""price_2"":""850"",""price_3"":""800""}","rating","tdc","repulsion_2","2","laptops","null","null","null","null","null","null","1","30","40","20","100","90","100","Processing speed","Memory (RAM)"
"","","","","","rating_trial_setup","html-keyboard-response","31","1086753","0.0-3.0-0.14","172","1","2025-04-14 14:25:48","bb671e3ae32f654b8954ea4c4635f915","","Mozilla/5.0 (Windows NT 10.0; Win64; x64) AppleWebKit/537.36 (KHTML, like Gecko) Chrome/134.0.0.0 Safari/537.36","WebKit","Chrome","134.0.0.0","Windows","10.0","https://hz8g1ckzuq.cognition.run/","en-US,en;q=0.9","jd4h8dk8tzsuf1f","null","","<p></p>","null","rating","cdt","attraction_1","1","televisions","null","null","null","null","null","null","1","","","","","","","",""
"","","","","","rating_trial","survey-html-form","32","1149257","0.0-3.0-1.14","172","1","2025-04-14 14:25:48","bb671e3ae32f654b8954ea4c4635f915","","Mozilla/5.0 (Windows NT 10.0; Win64; x64) AppleWebKit/537.36 (KHTML, like Gecko) Chrome/134.0.0.0 Safari/537.36","WebKit","Chrome","134.0.0.0","Windows","10.0","https://hz8g1ckzuq.cognition.run/","en-US,en;q=0.9","jd4h8dk8tzsuf1f","62500","","","{""price_1"":""600"",""price_2"":""550"",""price_3"":""650""}","rating","cdt","attraction_1","1","televisions","null","null","null","null","null","null","1","60","50","60","50","60","45","Screen size","Average lifespan"
"","","","","","rating_trial_setup","html-keyboard-response","33","1149562","0.0-3.0-0.15","172","1","2025-04-14 14:25:48","bb671e3ae32f654b8954ea4c4635f915","","Mozilla/5.0 (Windows NT 10.0; Win64; x64) AppleWebKit/537.36 (KHTML, like Gecko) Chrome/134.0.0.0 Safari/537.36","WebKit","Chrome","134.0.0.0","Windows","10.0","https://hz8g1ckzuq.cognition.run/","en-US,en;q=0.9","jd4h8dk8tzsuf1f","null","","<p></p>","null","rating","tcd","attraction_2","1","laptops","null","null","null","null","null","null","1","","","","","","","",""
"","","","","","rating_trial","survey-html-form","34","1191339","0.0-3.0-1.15","172","1","2025-04-14 14:25:48","bb671e3ae32f654b8954ea4c4635f915","","Mozilla/5.0 (Windows NT 10.0; Win64; x64) AppleWebKit/537.36 (KHTML, like Gecko) Chrome/134.0.0.0 Safari/537.36","WebKit","Chrome","134.0.0.0","Windows","10.0","https://hz8g1ckzuq.cognition.run/","en-US,en;q=0.9","jd4h8dk8tzsuf1f","41772","","","{""price_1"":""700"",""price_2"":""650"",""price_3"":""600""}","rating","tcd","attraction_2","1","laptops","null","null","null","null","null","null","1","60","50","60","50","60","40","Processing speed","Memory (RAM)"
"","","","","","rating_trial_setup","html-keyboard-response","35","1191651","0.0-3.0-0.16","172","1","2025-04-14 14:25:48","bb671e3ae32f654b8954ea4c4635f915","","Mozilla/5.0 (Windows NT 10.0; Win64; x64) AppleWebKit/537.36 (KHTML, like Gecko) Chrome/134.0.0.0 Safari/537.36","WebKit","Chrome","134.0.0.0","Windows","10.0","https://hz8g1ckzuq.cognition.run/","en-US,en;q=0.9","jd4h8dk8tzsuf1f","null","","<p></p>","null","rating","tcd","repulsion_2","1","laptops","null","null","null","null","null","null","2","","","","","","","",""
"","","","","","rating_trial","survey-html-form","36","1235763","0.0-3.0-1.16","172","1","2025-04-14 14:25:48","bb671e3ae32f654b8954ea4c4635f915","","Mozilla/5.0 (Windows NT 10.0; Win64; x64) AppleWebKit/537.36 (KHTML, like Gecko) Chrome/134.0.0.0 Safari/537.36","WebKit","Chrome","134.0.0.0","Windows","10.0","https://hz8g1ckzuq.cognition.run/","en-US,en;q=0.9","jd4h8dk8tzsuf1f","44105","","","{""price_1"":""1100"",""price_2"":""950"",""price_3"":""1000""}","rating","tcd","repulsion_2","1","laptops","null","null","null","null","null","null","2","100","90","100","30","40","20","Processing speed","Memory (RAM)"
"","","","","","rating_trial_setup","html-keyboard-response","37","1236069","0.0-3.0-0.17","172","1","2025-04-14 14:25:48","bb671e3ae32f654b8954ea4c4635f915","","Mozilla/5.0 (Windows NT 10.0; Win64; x64) AppleWebKit/537.36 (KHTML, like Gecko) Chrome/134.0.0.0 Safari/537.36","WebKit","Chrome","134.0.0.0","Windows","10.0","https://hz8g1ckzuq.cognition.run/","en-US,en;q=0.9","jd4h8dk8tzsuf1f","null","","<p></p>","null","rating","wbw","catch","null","laptops","55","55","15","35","40","20","1","","","","","","","",""
"","","","","","rating_trial","survey-html-form","38","1284130","0.0-3.0-1.17","172","1","2025-04-14 14:25:48","bb671e3ae32f654b8954ea4c4635f915","","Mozilla/5.0 (Windows NT 10.0; Win64; x64) AppleWebKit/537.36 (KHTML, like Gecko) Chrome/134.0.0.0 Safari/537.36","WebKit","Chrome","134.0.0.0","Windows","10.0","https://hz8g1ckzuq.cognition.run/","en-US,en;q=0.9","jd4h8dk8tzsuf1f","48056","","","{""price_1"":""350"",""price_2"":""650"",""price_3"":""450""}","rating","wbw","catch","null","laptops","55","55","15","35","40","20","1","null","null","null","null","null","null","Processing speed","Memory (RAM)"
"","","","","","rating_trial_setup","html-keyboard-response","39","1284436","0.0-3.0-0.18","172","1","2025-04-14 14:25:48","bb671e3ae32f654b8954ea4c4635f915","","Mozilla/5.0 (Windows NT 10.0; Win64; x64) AppleWebKit/537.36 (KHTML, like Gecko) Chrome/134.0.0.0 Safari/537.36","WebKit","Chrome","134.0.0.0","Windows","10.0","https://hz8g1ckzuq.cognition.run/","en-US,en;q=0.9","jd4h8dk8tzsuf1f","null","","<p></p>","null","rating","tdc","repulsion_1","2","washing machines","null","null","null","null","null","null","1","","","","","","","",""
"","","","","","rating_trial","survey-html-form","40","1331919","0.0-3.0-1.18","172","1","2025-04-14 14:25:48","bb671e3ae32f654b8954ea4c4635f915","","Mozilla/5.0 (Windows NT 10.0; Win64; x64) AppleWebKit/537.36 (KHTML, like Gecko) Chrome/134.0.0.0 Safari/537.36","WebKit","Chrome","134.0.0.0","Windows","10.0","https://hz8g1ckzuq.cognition.run/","en-US,en;q=0.9","jd4h8dk8tzsuf1f","47478","","","{""price_1"":""700"",""price_2"":""650"",""price_3"":""750""}","rating","tdc","repulsion_1","2","washing machines","null","null","null","null","null","null","1","30","40","25","100","90","100","Average lifespan","Energy savings"
"","","","","","rating_trial_setup","html-keyboard-response","41","1332224","0.0-3.0-0.19","172","1","2025-04-14 14:25:48","bb671e3ae32f654b8954ea4c4635f915","","Mozilla/5.0 (Windows NT 10.0; Win64; x64) AppleWebKit/537.36 (KHTML, like Gecko) Chrome/134.0.0.0 Safari/537.36","WebKit","Chrome","134.0.0.0","Windows","10.0","https://hz8g1ckzuq.cognition.run/","en-US,en;q=0.9","jd4h8dk8tzsuf1f","null","","<p></p>","null","rating","tdc","repulsion_1","1","microwave ovens","null","null","null","null","null","null","1","","","","","","","",""
"","","","","","rating_trial","survey-html-form","42","1413107","0.0-3.0-1.19","172","1","2025-04-14 14:25:48","bb671e3ae32f654b8954ea4c4635f915","","Mozilla/5.0 (Windows NT 10.0; Win64; x64) AppleWebKit/537.36 (KHTML, like Gecko) Chrome/134.0.0.0 Safari/537.36","WebKit","Chrome","134.0.0.0","Windows","10.0","https://hz8g1ckzuq.cognition.run/","en-US,en;q=0.9","jd4h8dk8tzsuf1f","80877","","","{""price_1"":""180"",""price_2"":""170"",""price_3"":""200""}","rating","tdc","repulsion_1","1","microwave ovens","null","null","null","null","null","null","1","100","90","100","30","40","25","Warranty","Cooking power"
"","","","","","rating_trial_setup","html-keyboard-response","43","1413412","0.0-3.0-0.20","172","1","2025-04-14 14:25:48","bb671e3ae32f654b8954ea4c4635f915","","Mozilla/5.0 (Windows NT 10.0; Win64; x64) AppleWebKit/537.36 (KHTML, like Gecko) Chrome/134.0.0.0 Safari/537.36","WebKit","Chrome","134.0.0.0","Windows","10.0","https://hz8g1ckzuq.cognition.run/","en-US,en;q=0.9","jd4h8dk8tzsuf1f","null","","<p></p>","null","rating","wbw","catch","null","washing machines","95","75","50","45","35","25","1","","","","","","","",""
"","","","","","rating_trial","survey-html-form","44","1516218","0.0-3.0-1.20","172","1","2025-04-14 14:25:48","bb671e3ae32f654b8954ea4c4635f915","","Mozilla/5.0 (Windows NT 10.0; Win64; x64) AppleWebKit/537.36 (KHTML, like Gecko) Chrome/134.0.0.0 Safari/537.36","WebKit","Chrome","134.0.0.0","Windows","10.0","https://hz8g1ckzuq.cognition.run/","en-US,en;q=0.9","jd4h8dk8tzsuf1f","102801","","","{""price_1"":""600"",""price_2"":""1000"",""price_3"":""400""}","rating","wbw","catch","null","washing machines","95","75","50","45","35","25","1","null","null","null","null","null","null","Average lifespan","Energy savings"
"","","","","","rating_trial_setup","html-keyboard-response","45","1516525","0.0-3.0-0.21","172","1","2025-04-14 14:25:48","bb671e3ae32f654b8954ea4c4635f915","","Mozilla/5.0 (Windows NT 10.0; Win64; x64) AppleWebKit/537.36 (KHTML, like Gecko) Chrome/134.0.0.0 Safari/537.36","WebKit","Chrome","134.0.0.0","Windows","10.0","https://hz8g1ckzuq.cognition.run/","en-US,en;q=0.9","jd4h8dk8tzsuf1f","null","","<p></p>","null","rating","tcd","attraction_2","2","televisions","null","null","null","null","null","null","1","","","","","","","",""
"","","","","","rating_trial","survey-html-form","46","1731006","0.0-3.0-1.21","172","1","2025-04-14 14:25:48","bb671e3ae32f654b8954ea4c4635f915","","Mozilla/5.0 (Windows NT 10.0; Win64; x64) AppleWebKit/537.36 (KHTML, like Gecko) Chrome/134.0.0.0 Safari/537.36","WebKit","Chrome","134.0.0.0","Windows","10.0","https://hz8g1ckzuq.cognition.run/","en-US,en;q=0.9","jd4h8dk8tzsuf1f","214477","","","{""price_1"":""600"",""price_2"":""400"",""price_3"":""500""}","rating","tcd","attraction_2","2","televisions","null","null","null","null","null","null","1","50","60","40","60","50","60","Screen size","Average lifespan"
"","","","","","rating_trial_setup","html-keyboard-response","47","1731313","0.0-3.0-0.22","172","1","2025-04-14 14:25:48","bb671e3ae32f654b8954ea4c4635f915","","Mozilla/5.0 (Windows NT 10.0; Win64; x64) AppleWebKit/537.36 (KHTML, like Gecko) Chrome/134.0.0.0 Safari/537.36","WebKit","Chrome","134.0.0.0","Windows","10.0","https://hz8g1ckzuq.cognition.run/","en-US,en;q=0.9","jd4h8dk8tzsuf1f","null","","<p></p>","null","rating","wbw","catch","null","televisions","90","60","10","50","50","40","2","","","","","","","",""
"","","","","","rating_trial","survey-html-form","48","1764312","0.0-3.0-1.22","172","1","2025-04-14 14:25:48","bb671e3ae32f654b8954ea4c4635f915","","Mozilla/5.0 (Windows NT 10.0; Win64; x64) AppleWebKit/537.36 (KHTML, like Gecko) Chrome/134.0.0.0 Safari/537.36","WebKit","Chrome","134.0.0.0","Windows","10.0","https://hz8g1ckzuq.cognition.run/","en-US,en;q=0.9","jd4h8dk8tzsuf1f","32994","","","{""price_1"":""400"",""price_2"":""800"",""price_3"":""550""}","rating","wbw","catch","null","televisions","90","60","10","50","50","40","2","null","null","null","null","null","null","Screen size","Average lifespan"
"","","","","","rating_trial_setup","html-keyboard-response","49","1764618","0.0-3.0-0.23","172","1","2025-04-14 14:25:48","bb671e3ae32f654b8954ea4c4635f915","","Mozilla/5.0 (Windows NT 10.0; Win64; x64) AppleWebKit/537.36 (KHTML, like Gecko) Chrome/134.0.0.0 Safari/537.36","WebKit","Chrome","134.0.0.0","Windows","10.0","https://hz8g1ckzuq.cognition.run/","en-US,en;q=0.9","jd4h8dk8tzsuf1f","null","","<p></p>","null","rating","wwb","catch","null","laptops","60","60","20","5","10","15","2","","","","","","","",""
"","","","","","rating_trial","survey-html-form","50","1793326","0.0-3.0-1.23","172","1","2025-04-14 14:25:48","bb671e3ae32f654b8954ea4c4635f915","","Mozilla/5.0 (Windows NT 10.0; Win64; x64) AppleWebKit/537.36 (KHTML, like Gecko) Chrome/134.0.0.0 Safari/537.36","WebKit","Chrome","134.0.0.0","Windows","10.0","https://hz8g1ckzuq.cognition.run/","en-US,en;q=0.9","jd4h8dk8tzsuf1f","28702","","","{""price_1"":""450"",""price_2"":""400"",""price_3"":""1000""}","rating","wwb","catch","null","laptops","60","60","20","5","10","15","2","null","null","null","null","null","null","Processing speed","Memory (RAM)"
"","","","","","rating_trial_setup","html-keyboard-response","51","1793633","0.0-3.0-0.24","172","1","2025-04-14 14:25:48","bb671e3ae32f654b8954ea4c4635f915","","Mozilla/5.0 (Windows NT 10.0; Win64; x64) AppleWebKit/537.36 (KHTML, like Gecko) Chrome/134.0.0.0 Safari/537.36","WebKit","Chrome","134.0.0.0","Windows","10.0","https://hz8g1ckzuq.cognition.run/","en-US,en;q=0.9","jd4h8dk8tzsuf1f","null","","<p></p>","null","rating","dtc","attraction_2","2","microwave ovens","null","null","null","null","null","null","2","","","","","","","",""
"","","","","","rating_trial","survey-html-form","52","1820013","0.0-3.0-1.24","172","1","2025-04-14 14:25:48","bb671e3ae32f654b8954ea4c4635f915","","Mozilla/5.0 (Windows NT 10.0; Win64; x64) AppleWebKit/537.36 (KHTML, like Gecko) Chrome/134.0.0.0 Safari/537.36","WebKit","Chrome","134.0.0.0","Windows","10.0","https://hz8g1ckzuq.cognition.run/","en-US,en;q=0.9","jd4h8dk8tzsuf1f","26372","","","{""price_1"":""200"",""price_2"":""250"",""price_3"":""150""}","rating","dtc","attraction_2","2","microwave ovens","null","null","null","null","null","null","2","50","60","40","60","50","60","Warranty","Cooking power"
"","","","","","rating_trial_setup","html-keyboard-response","53","1820318","0.0-3.0-0.25","172","1","2025-04-14 14:25:48","bb671e3ae32f654b8954ea4c4635f915","","Mozilla/5.0 (Windows NT 10.0; Win64; x64) AppleWebKit/537.36 (KHTML, like Gecko) Chrome/134.0.0.0 Safari/537.36","WebKit","Chrome","134.0.0.0","Windows","10.0","https://hz8g1ckzuq.cognition.run/","en-US,en;q=0.9","jd4h8dk8tzsuf1f","null","","<p></p>","null","rating","ctd","repulsion_1","1","washing machines","null","null","null","null","null","null","1","","","","","","","",""
"","","","","","rating_trial","survey-html-form","54","1864332","0.0-3.0-1.25","172","1","2025-04-14 14:25:48","bb671e3ae32f654b8954ea4c4635f915","","Mozilla/5.0 (Windows NT 10.0; Win64; x64) AppleWebKit/537.36 (KHTML, like Gecko) Chrome/134.0.0.0 Safari/537.36","WebKit","Chrome","134.0.0.0","Windows","10.0","https://hz8g1ckzuq.cognition.run/","en-US,en;q=0.9","jd4h8dk8tzsuf1f","44008","","","{""price_1"":""950"",""price_2"":""1100"",""price_3"":""1000""}","rating","ctd","repulsion_1","1","washing machines","null","null","null","null","null","null","1","100","90","100","30","40","25","Average lifespan","Energy savings"
"","","","","","rating_trial_setup","html-keyboard-response","55","1864638","0.0-3.0-0.26","172","1","2025-04-14 14:25:48","bb671e3ae32f654b8954ea4c4635f915","","Mozilla/5.0 (Windows NT 10.0; Win64; x64) AppleWebKit/537.36 (KHTML, like Gecko) Chrome/134.0.0.0 Safari/537.36","WebKit","Chrome","134.0.0.0","Windows","10.0","https://hz8g1ckzuq.cognition.run/","en-US,en;q=0.9","jd4h8dk8tzsuf1f","null","","<p></p>","null","rating","dtc","repulsion_1","2","televisions","null","null","null","null","null","null","2","","","","","","","",""
"","","","","","rating_trial","survey-html-form","56","1891408","0.0-3.0-1.26","172","1","2025-04-14 14:25:48","bb671e3ae32f654b8954ea4c4635f915","","Mozilla/5.0 (Windows NT 10.0; Win64; x64) AppleWebKit/537.36 (KHTML, like Gecko) Chrome/134.0.0.0 Safari/537.36","WebKit","Chrome","134.0.0.0","Windows","10.0","https://hz8g1ckzuq.cognition.run/","en-US,en;q=0.9","jd4h8dk8tzsuf1f","26765","","","{""price_1"":""500"",""price_2"":""600"",""price_3"":""550""}","rating","dtc","repulsion_1","2","televisions","null","null","null","null","null","null","2","30","40","25","100","90","100","Screen size","Average lifespan"
"","","","","","rating_trial_setup","html-keyboard-response","57","1891714","0.0-3.0-0.27","172","1","2025-04-14 14:25:48","bb671e3ae32f654b8954ea4c4635f915","","Mozilla/5.0 (Windows NT 10.0; Win64; x64) AppleWebKit/537.36 (KHTML, like Gecko) Chrome/134.0.0.0 Safari/537.36","WebKit","Chrome","134.0.0.0","Windows","10.0","https://hz8g1ckzuq.cognition.run/","en-US,en;q=0.9","jd4h8dk8tzsuf1f","null","","<p></p>","null","rating","dtc","attraction_1","1","washing machines","null","null","null","null","null","null","2","","","","","","","",""
"","","","","","rating_trial","survey-html-form","58","1912322","0.0-3.0-1.27","172","1","2025-04-14 14:25:48","bb671e3ae32f654b8954ea4c4635f915","","Mozilla/5.0 (Windows NT 10.0; Win64; x64) AppleWebKit/537.36 (KHTML, like Gecko) Chrome/134.0.0.0 Safari/537.36","WebKit","Chrome","134.0.0.0","Windows","10.0","https://hz8g1ckzuq.cognition.run/","en-US,en;q=0.9","jd4h8dk8tzsuf1f","20602","","","{""price_1"":""700"",""price_2"":""650"",""price_3"":""500""}","rating","dtc","attraction_1","1","washing machines","null","null","null","null","null","null","2","60","50","60","50","60","45","Average lifespan","Energy savings"
"","","","","","rating_trial_setup","html-keyboard-response","59","1912629","0.0-3.0-0.28","172","1","2025-04-14 14:25:48","bb671e3ae32f654b8954ea4c4635f915","","Mozilla/5.0 (Windows NT 10.0; Win64; x64) AppleWebKit/537.36 (KHTML, like Gecko) Chrome/134.0.0.0 Safari/537.36","WebKit","Chrome","134.0.0.0","Windows","10.0","https://hz8g1ckzuq.cognition.run/","en-US,en;q=0.9","jd4h8dk8tzsuf1f","null","","<p></p>","null","rating","wwb","catch","null","microwave ovens","60","80","40","5","45","50","2","","","","","","","",""
"","","","","","rating_trial","survey-html-form","60","1935285","0.0-3.0-1.28","172","1","2025-04-14 14:25:48","bb671e3ae32f654b8954ea4c4635f915","","Mozilla/5.0 (Windows NT 10.0; Win64; x64) AppleWebKit/537.36 (KHTML, like Gecko) Chrome/134.0.0.0 Safari/537.36","WebKit","Chrome","134.0.0.0","Windows","10.0","https://hz8g1ckzuq.cognition.run/","en-US,en;q=0.9","jd4h8dk8tzsuf1f","22647","","","{""price_1"":""100"",""price_2"":""150"",""price_3"":""300""}","rating","wwb","catch","null","microwave ovens","60","80","40","5","45","50","2","null","null","null","null","null","null","Warranty","Cooking power"
"","","","","","rating_trial_setup","html-keyboard-response","61","1935591","0.0-3.0-0.29","172","1","2025-04-14 14:25:48","bb671e3ae32f654b8954ea4c4635f915","","Mozilla/5.0 (Windows NT 10.0; Win64; x64) AppleWebKit/537.36 (KHTML, like Gecko) Chrome/134.0.0.0 Safari/537.36","WebKit","Chrome","134.0.0.0","Windows","10.0","https://hz8g1ckzuq.cognition.run/","en-US,en;q=0.9","jd4h8dk8tzsuf1f","null","","<p></p>","null","rating","dtc","repulsion_2","1","televisions","null","null","null","null","null","null","1","","","","","","","",""
"","","","","","rating_trial","survey-html-form","62","1955409","0.0-3.0-1.29","172","1","2025-04-14 14:25:48","bb671e3ae32f654b8954ea4c4635f915","","Mozilla/5.0 (Windows NT 10.0; Win64; x64) AppleWebKit/537.36 (KHTML, like Gecko) Chrome/134.0.0.0 Safari/537.36","WebKit","Chrome","134.0.0.0","Windows","10.0","https://hz8g1ckzuq.cognition.run/","en-US,en;q=0.9","jd4h8dk8tzsuf1f","19812","","","{""price_1"":""350"",""price_2"":""400"",""price_3"":""500""}","rating","dtc","repulsion_2","1","televisions","null","null","null","null","null","null","1","100","90","100","30","40","20","Screen size","Average lifespan"
"","","","","","rating_trial_setup","html-keyboard-response","63","1955714","0.0-3.0-0.30","172","1","2025-04-14 14:25:48","bb671e3ae32f654b8954ea4c4635f915","","Mozilla/5.0 (Windows NT 10.0; Win64; x64) AppleWebKit/537.36 (KHTML, like Gecko) Chrome/134.0.0.0 Safari/537.36","WebKit","Chrome","134.0.0.0","Windows","10.0","https://hz8g1ckzuq.cognition.run/","en-US,en;q=0.9","jd4h8dk8tzsuf1f","null","","<p></p>","null","rating","ctd","repulsion_1","1","televisions","null","null","null","null","null","null","1","","","","","","","",""
"","","","","","rating_trial","survey-html-form","64","2014418","0.0-3.0-1.30","172","1","2025-04-14 14:25:48","bb671e3ae32f654b8954ea4c4635f915","","Mozilla/5.0 (Windows NT 10.0; Win64; x64) AppleWebKit/537.36 (KHTML, like Gecko) Chrome/134.0.0.0 Safari/537.36","WebKit","Chrome","134.0.0.0","Windows","10.0","https://hz8g1ckzuq.cognition.run/","en-US,en;q=0.9","jd4h8dk8tzsuf1f","58698","","","{""price_1"":""350"",""price_2"":""250"",""price_3"":""200""}","rating","ctd","repulsion_1","1","televisions","null","null","null","null","null","null","1","100","90","100","30","40","25","Screen size","Average lifespan"
"","","","","","rating_trial_setup","html-keyboard-response","65","2014731","0.0-3.0-0.31","172","1","2025-04-14 14:25:48","bb671e3ae32f654b8954ea4c4635f915","","Mozilla/5.0 (Windows NT 10.0; Win64; x64) AppleWebKit/537.36 (KHTML, like Gecko) Chrome/134.0.0.0 Safari/537.36","WebKit","Chrome","134.0.0.0","Windows","10.0","https://hz8g1ckzuq.cognition.run/","en-US,en;q=0.9","jd4h8dk8tzsuf1f","null","","<p></p>","null","rating","dtc","repulsion_2","2","washing machines","null","null","null","null","null","null","1","","","","","","","",""
"","","","","","rating_trial","survey-html-form","66","2124288","0.0-3.0-1.31","172","1","2025-04-14 14:25:48","bb671e3ae32f654b8954ea4c4635f915","","Mozilla/5.0 (Windows NT 10.0; Win64; x64) AppleWebKit/537.36 (KHTML, like Gecko) Chrome/134.0.0.0 Safari/537.36","WebKit","Chrome","134.0.0.0","Windows","10.0","https://hz8g1ckzuq.cognition.run/","en-US,en;q=0.9","jd4h8dk8tzsuf1f","109550","","","{""price_1"":""800"",""price_2"":""900"",""price_3"":""750""}","rating","dtc","repulsion_2","2","washing machines","null","null","null","null","null","null","1","30","40","20","100","90","100","Average lifespan","Energy savings"
"","","","","","rating_trial_setup","html-keyboard-response","67","2124595","0.0-3.0-0.32","172","1","2025-04-14 14:25:48","bb671e3ae32f654b8954ea4c4635f915","","Mozilla/5.0 (Windows NT 10.0; Win64; x64) AppleWebKit/537.36 (KHTML, like Gecko) Chrome/134.0.0.0 Safari/537.36","WebKit","Chrome","134.0.0.0","Windows","10.0","https://hz8g1ckzuq.cognition.run/","en-US,en;q=0.9","jd4h8dk8tzsuf1f","null","","<p></p>","null","rating","cdt","attraction_1","2","microwave ovens","null","null","null","null","null","null","2","","","","","","","",""
"","","","","","rating_trial","survey-html-form","68","2149246","0.0-3.0-1.32","172","1","2025-04-14 14:25:48","bb671e3ae32f654b8954ea4c4635f915","","Mozilla/5.0 (Windows NT 10.0; Win64; x64) AppleWebKit/537.36 (KHTML, like Gecko) Chrome/134.0.0.0 Safari/537.36","WebKit","Chrome","134.0.0.0","Windows","10.0","https://hz8g1ckzuq.cognition.run/","en-US,en;q=0.9","jd4h8dk8tzsuf1f","24645","","","{""price_1"":""300"",""price_2"":""200"",""price_3"":""250""}","rating","cdt","attraction_1","2","microwave ovens","null","null","null","null","null","null","2","50","60","45","60","50","60","Warranty","Cooking power"
"","","","","","rating_trial_setup","html-keyboard-response","69","2149554","0.0-3.0-0.33","172","1","2025-04-14 14:25:48","bb671e3ae32f654b8954ea4c4635f915","","Mozilla/5.0 (Windows NT 10.0; Win64; x64) AppleWebKit/537.36 (KHTML, like Gecko) Chrome/134.0.0.0 Safari/537.36","WebKit","Chrome","134.0.0.0","Windows","10.0","https://hz8g1ckzuq.cognition.run/","en-US,en;q=0.9","jd4h8dk8tzsuf1f","null","","<p></p>","null","rating","tcd","repulsion_2","2","microwave ovens","null","null","null","null","null","null","2","","","","","","","",""
"","","","","","rating_trial","survey-html-form","70","2221952","0.0-3.0-1.33","172","1","2025-04-14 14:25:48","bb671e3ae32f654b8954ea4c4635f915","","Mozilla/5.0 (Windows NT 10.0; Win64; x64) AppleWebKit/537.36 (KHTML, like Gecko) Chrome/134.0.0.0 Safari/537.36","WebKit","Chrome","134.0.0.0","Windows","10.0","https://hz8g1ckzuq.cognition.run/","en-US,en;q=0.9","jd4h8dk8tzsuf1f","72393","","","{""price_1"":""250"",""price_2"":""150"",""price_3"":""200""}","rating","tcd","repulsion_2","2","microwave ovens","null","null","null","null","null","null","2","30","40","20","100","90","100","Warranty","Cooking power"
"","","","","","rating_trial_setup","html-keyboard-response","71","2222260","0.0-3.0-0.34","172","1","2025-04-14 14:25:48","bb671e3ae32f654b8954ea4c4635f915","","Mozilla/5.0 (Windows NT 10.0; Win64; x64) AppleWebKit/537.36 (KHTML, like Gecko) Chrome/134.0.0.0 Safari/537.36","WebKit","Chrome","134.0.0.0","Windows","10.0","https://hz8g1ckzuq.cognition.run/","en-US,en;q=0.9","jd4h8dk8tzsuf1f","null","","<p></p>","null","rating","dct","attraction_1","2","televisions","null","null","null","null","null","null","2","","","","","","","",""
"","","","","","rating_trial","survey-html-form","72","2250765","0.0-3.0-1.34","172","1","2025-04-14 14:25:48","bb671e3ae32f654b8954ea4c4635f915","","Mozilla/5.0 (Windows NT 10.0; Win64; x64) AppleWebKit/537.36 (KHTML, like Gecko) Chrome/134.0.0.0 Safari/537.36","WebKit","Chrome","134.0.0.0","Windows","10.0","https://hz8g1ckzuq.cognition.run/","en-US,en;q=0.9","jd4h8dk8tzsuf1f","28497","","","{""price_1"":""250"",""price_2"":""350"",""price_3"":""200""}","rating","dct","attraction_1","2","televisions","null","null","null","null","null","null","2","50","60","45","60","50","60","Screen size","Average lifespan"
"","","","","","rating_trial_setup","html-keyboard-response","73","2251073","0.0-3.0-0.35","172","1","2025-04-14 14:25:48","bb671e3ae32f654b8954ea4c4635f915","","Mozilla/5.0 (Windows NT 10.0; Win64; x64) AppleWebKit/537.36 (KHTML, like Gecko) Chrome/134.0.0.0 Safari/537.36","WebKit","Chrome","134.0.0.0","Windows","10.0","https://hz8g1ckzuq.cognition.run/","en-US,en;q=0.9","jd4h8dk8tzsuf1f","null","","<p></p>","null","rating","tcd","repulsion_1","2","microwave ovens","null","null","null","null","null","null","2","","","","","","","",""
"","","","","","rating_trial","survey-html-form","74","2277247","0.0-3.0-1.35","172","1","2025-04-14 14:25:48","bb671e3ae32f654b8954ea4c4635f915","","Mozilla/5.0 (Windows NT 10.0; Win64; x64) AppleWebKit/537.36 (KHTML, like Gecko) Chrome/134.0.0.0 Safari/537.36","WebKit","Chrome","134.0.0.0","Windows","10.0","https://hz8g1ckzuq.cognition.run/","en-US,en;q=0.9","jd4h8dk8tzsuf1f","26168","","","{""price_1"":""300"",""price_2"":""250"",""price_3"":""150""}","rating","tcd","repulsion_1","2","microwave ovens","null","null","null","null","null","null","2","30","40","25","100","90","100","Warranty","Cooking power"
"","","","","","rating_trial_setup","html-keyboard-response","75","2277556","0.0-3.0-0.36","172","1","2025-04-14 14:25:48","bb671e3ae32f654b8954ea4c4635f915","","Mozilla/5.0 (Windows NT 10.0; Win64; x64) AppleWebKit/537.36 (KHTML, like Gecko) Chrome/134.0.0.0 Safari/537.36","WebKit","Chrome","134.0.0.0","Windows","10.0","https://hz8g1ckzuq.cognition.run/","en-US,en;q=0.9","jd4h8dk8tzsuf1f","null","","<p></p>","null","rating","ctd","attraction_2","2","laptops","null","null","null","null","null","null","1","","","","","","","",""
"","","","","","rating_trial","survey-html-form","76","2295687","0.0-3.0-1.36","172","1","2025-04-14 14:25:48","bb671e3ae32f654b8954ea4c4635f915","","Mozilla/5.0 (Windows NT 10.0; Win64; x64) AppleWebKit/537.36 (KHTML, like Gecko) Chrome/134.0.0.0 Safari/537.36","WebKit","Chrome","134.0.0.0","Windows","10.0","https://hz8g1ckzuq.cognition.run/","en-US,en;q=0.9","jd4h8dk8tzsuf1f","18125","","","{""price_1"":""1000"",""price_2"":""900"",""price_3"":""850""}","rating","ctd","attraction_2","2","laptops","null","null","null","null","null","null","1","50","60","40","60","50","60","Processing speed","Memory (RAM)"
"","","","","","rating_trial_setup","html-keyboard-response","77","2295995","0.0-3.0-0.37","172","1","2025-04-14 14:25:48","bb671e3ae32f654b8954ea4c4635f915","","Mozilla/5.0 (Windows NT 10.0; Win64; x64) AppleWebKit/537.36 (KHTML, like Gecko) Chrome/134.0.0.0 Safari/537.36","WebKit","Chrome","134.0.0.0","Windows","10.0","https://hz8g1ckzuq.cognition.run/","en-US,en;q=0.9","jd4h8dk8tzsuf1f","null","","<p></p>","null","rating","cdt","attraction_2","1","microwave ovens","null","null","null","null","null","null","1","","","","","","","",""
"","","","","","rating_trial","survey-html-form","78","2312828","0.0-3.0-1.37","172","1","2025-04-14 14:25:48","bb671e3ae32f654b8954ea4c4635f915","","Mozilla/5.0 (Windows NT 10.0; Win64; x64) AppleWebKit/537.36 (KHTML, like Gecko) Chrome/134.0.0.0 Safari/537.36","WebKit","Chrome","134.0.0.0","Windows","10.0","https://hz8g1ckzuq.cognition.run/","en-US,en;q=0.9","jd4h8dk8tzsuf1f","16827","","","{""price_1"":""250"",""price_2"":""200"",""price_3"":""300""}","rating","cdt","attraction_2","1","microwave ovens","null","null","null","null","null","null","1","60","50","60","50","60","40","Warranty","Cooking power"
"","","","","","rating_trial_setup","html-keyboard-response","79","2313136","0.0-3.0-0.38","172","1","2025-04-14 14:25:48","bb671e3ae32f654b8954ea4c4635f915","","Mozilla/5.0 (Windows NT 10.0; Win64; x64) AppleWebKit/537.36 (KHTML, like Gecko) Chrome/134.0.0.0 Safari/537.36","WebKit","Chrome","134.0.0.0","Windows","10.0","https://hz8g1ckzuq.cognition.run/","en-US,en;q=0.9","jd4h8dk8tzsuf1f","null","","<p></p>","null","rating","tdc","repulsion_1","2","laptops","null","null","null","null","null","null","2","","","","","","","",""
"","","","","","rating_trial","survey-html-form","80","2380520","0.0-3.0-1.38","172","1","2025-04-14 14:25:48","bb671e3ae32f654b8954ea4c4635f915","","Mozilla/5.0 (Windows NT 10.0; Win64; x64) AppleWebKit/537.36 (KHTML, like Gecko) Chrome/134.0.0.0 Safari/537.36","WebKit","Chrome","134.0.0.0","Windows","10.0","https://hz8g1ckzuq.cognition.run/","en-US,en;q=0.9","jd4h8dk8tzsuf1f","67378","","","{""price_1"":""800"",""price_2"":""750"",""price_3"":""900""}","rating","tdc","repulsion_1","2","laptops","null","null","null","null","null","null","2","30","40","25","100","90","100","Processing speed","Memory (RAM)"
"","","","","","rating_trial_setup","html-keyboard-response","81","2380830","0.0-3.0-0.39","172","1","2025-04-14 14:25:48","bb671e3ae32f654b8954ea4c4635f915","","Mozilla/5.0 (Windows NT 10.0; Win64; x64) AppleWebKit/537.36 (KHTML, like Gecko) Chrome/134.0.0.0 Safari/537.36","WebKit","Chrome","134.0.0.0","Windows","10.0","https://hz8g1ckzuq.cognition.run/","en-US,en;q=0.9","jd4h8dk8tzsuf1f","null","","<p></p>","null","rating","wbw","catch","null","televisions","50","90","5","20","30","40","2","","","","","","","",""
"","","","","","rating_trial","survey-html-form","82","2403040","0.0-3.0-1.39","172","1","2025-04-14 14:25:48","bb671e3ae32f654b8954ea4c4635f915","","Mozilla/5.0 (Windows NT 10.0; Win64; x64) AppleWebKit/537.36 (KHTML, like Gecko) Chrome/134.0.0.0 Safari/537.36","WebKit","Chrome","134.0.0.0","Windows","10.0","https://hz8g1ckzuq.cognition.run/","en-US,en;q=0.9","jd4h8dk8tzsuf1f","22201","","","{""price_1"":""200"",""price_2"":""500"",""price_3"":""300""}","rating","wbw","catch","null","televisions","50","90","5","20","30","40","2","null","null","null","null","null","null","Screen size","Average lifespan"
"","","","","","","instructions","83","2503973","0.0-4.0","172","1","2025-04-14 14:25:48","bb671e3ae32f654b8954ea4c4635f915","","Mozilla/5.0 (Windows NT 10.0; Win64; x64) AppleWebKit/537.36 (KHTML, like Gecko) Chrome/134.0.0.0 Safari/537.36","WebKit","Chrome","134.0.0.0","Windows","10.0","https://hz8g1ckzuq.cognition.run/","en-US,en;q=0.9","jd4h8dk8tzsuf1f","100926","[{""page_index"":0,""viewing_time"":1744},{""page_index"":1,""viewing_time"":1310},{""page_index"":2,""viewing_time"":5039},{""page_index"":3,""viewing_time"":73053},{""page_index"":4,""viewing_time"":6080},{""page_index"":5,""viewing_time"":3620},{""page_index"":6,""viewing_time"":5577},{""page_index"":7,""viewing_time"":4502}]","","","","","","","","","","","","","","","","","","","","","",""
"","","","","","choice_trial_setup","html-keyboard-response","84","2504282","0.0-5.0-0.0","172","1","2025-04-14 14:25:48","bb671e3ae32f654b8954ea4c4635f915","","Mozilla/5.0 (Windows NT 10.0; Win64; x64) AppleWebKit/537.36 (KHTML, like Gecko) Chrome/134.0.0.0 Safari/537.36","WebKit","Chrome","134.0.0.0","Windows","10.0","https://hz8g1ckzuq.cognition.run/","en-US,en;q=0.9","jd4h8dk8tzsuf1f","null","","<p></p>","null","choice","bww","catch","null","microwave ovens","95","55","20","15","40","25","1","","","","","","","",""
"","","","","","choice_trial","survey-html-form","85","2516070","0.0-5.0-1.0","172","1","2025-04-14 14:25:48","bb671e3ae32f654b8954ea4c4635f915","","Mozilla/5.0 (Windows NT 10.0; Win64; x64) AppleWebKit/537.36 (KHTML, like Gecko) Chrome/134.0.0.0 Safari/537.36","WebKit","Chrome","134.0.0.0","Windows","10.0","https://hz8g1ckzuq.cognition.run/","en-US,en;q=0.9","jd4h8dk8tzsuf1f","11778","","","{""product_choice"":""A""}","choice","bww","catch","null","microwave ovens","95","55","20","15","40","25","1","null","null","null","null","null","null","Warranty","Cooking power"
"","","","","","choice_trial_setup","html-keyboard-response","86","2516378","0.0-5.0-0.1","172","1","2025-04-14 14:25:48","bb671e3ae32f654b8954ea4c4635f915","","Mozilla/5.0 (Windows NT 10.0; Win64; x64) AppleWebKit/537.36 (KHTML, like Gecko) Chrome/134.0.0.0 Safari/537.36","WebKit","Chrome","134.0.0.0","Windows","10.0","https://hz8g1ckzuq.cognition.run/","en-US,en;q=0.9","jd4h8dk8tzsuf1f","null","","<p></p>","null","choice","wbw","catch","null","microwave ovens","90","95","10","45","45","35","1","","","","","","","",""
"","","","","","choice_trial","survey-html-form","87","2521100","0.0-5.0-1.1","172","1","2025-04-14 14:25:48","bb671e3ae32f654b8954ea4c4635f915","","Mozilla/5.0 (Windows NT 10.0; Win64; x64) AppleWebKit/537.36 (KHTML, like Gecko) Chrome/134.0.0.0 Safari/537.36","WebKit","Chrome","134.0.0.0","Windows","10.0","https://hz8g1ckzuq.cognition.run/","en-US,en;q=0.9","jd4h8dk8tzsuf1f","4716","","","{""product_choice"":""B""}","choice","wbw","catch","null","microwave ovens","90","95","10","45","45","35","1","null","null","null","null","null","null","Warranty","Cooking power"
"","","","","","choice_trial_setup","html-keyboard-response","88","2521420","0.0-5.0-0.2","172","1","2025-04-14 14:25:48","bb671e3ae32f654b8954ea4c4635f915","","Mozilla/5.0 (Windows NT 10.0; Win64; x64) AppleWebKit/537.36 (KHTML, like Gecko) Chrome/134.0.0.0 Safari/537.36","WebKit","Chrome","134.0.0.0","Windows","10.0","https://hz8g1ckzuq.cognition.run/","en-US,en;q=0.9","jd4h8dk8tzsuf1f","null","","<p></p>","null","choice","tdc","attraction_2","1","laptops","null","null","null","null","null","null","2","","","","","","","",""
"","","","","","choice_trial","survey-html-form","89","2529240","0.0-5.0-1.2","172","1","2025-04-14 14:25:48","bb671e3ae32f654b8954ea4c4635f915","","Mozilla/5.0 (Windows NT 10.0; Win64; x64) AppleWebKit/537.36 (KHTML, like Gecko) Chrome/134.0.0.0 Safari/537.36","WebKit","Chrome","134.0.0.0","Windows","10.0","https://hz8g1ckzuq.cognition.run/","en-US,en;q=0.9","jd4h8dk8tzsuf1f","7813","","","{""product_choice"":""C""}","choice","tdc","attraction_2","1","laptops","null","null","null","null","null","null","2","60","50","60","50","60","40","Processing speed","Memory (RAM)"
"","","","","","choice_trial_setup","html-keyboard-response","90","2529548","0.0-5.0-0.3","172","1","2025-04-14 14:25:48","bb671e3ae32f654b8954ea4c4635f915","","Mozilla/5.0 (Windows NT 10.0; Win64; x64) AppleWebKit/537.36 (KHTML, like Gecko) Chrome/134.0.0.0 Safari/537.36","WebKit","Chrome","134.0.0.0","Windows","10.0","https://hz8g1ckzuq.cognition.run/","en-US,en;q=0.9","jd4h8dk8tzsuf1f","null","","<p></p>","null","choice","tcd","attraction_1","2","laptops","null","null","null","null","null","null","1","","","","","","","",""
"","","","","","choice_trial","survey-html-form","91","2537463","0.0-5.0-1.3","172","1","2025-04-14 14:25:48","bb671e3ae32f654b8954ea4c4635f915","","Mozilla/5.0 (Windows NT 10.0; Win64; x64) AppleWebKit/537.36 (KHTML, like Gecko) Chrome/134.0.0.0 Safari/537.36","WebKit","Chrome","134.0.0.0","Windows","10.0","https://hz8g1ckzuq.cognition.run/","en-US,en;q=0.9","jd4h8dk8tzsuf1f","7907","","","{""product_choice"":""A""}","choice","tcd","attraction_1","2","laptops","null","null","null","null","null","null","1","50","60","45","60","50","60","Processing speed","Memory (RAM)"
"","","","","","choice_trial_setup","html-keyboard-response","92","2537769","0.0-5.0-0.4","172","1","2025-04-14 14:25:48","bb671e3ae32f654b8954ea4c4635f915","","Mozilla/5.0 (Windows NT 10.0; Win64; x64) AppleWebKit/537.36 (KHTML, like Gecko) Chrome/134.0.0.0 Safari/537.36","WebKit","Chrome","134.0.0.0","Windows","10.0","https://hz8g1ckzuq.cognition.run/","en-US,en;q=0.9","jd4h8dk8tzsuf1f","null","","<p></p>","null","choice","dtc","repulsion_1","2","microwave ovens","null","null","null","null","null","null","2","","","","","","","",""
"","","","","","choice_trial","survey-html-form","93","2544269","0.0-5.0-1.4","172","1","2025-04-14 14:25:48","bb671e3ae32f654b8954ea4c4635f915","","Mozilla/5.0 (Windows NT 10.0; Win64; x64) AppleWebKit/537.36 (KHTML, like Gecko) Chrome/134.0.0.0 Safari/537.36","WebKit","Chrome","134.0.0.0","Windows","10.0","https://hz8g1ckzuq.cognition.run/","en-US,en;q=0.9","jd4h8dk8tzsuf1f","6490","","","{""product_choice"":""C""}","choice","dtc","repulsion_1","2","microwave ovens","null","null","null","null","null","null","2","30","40","25","100","90","100","Warranty","Cooking power"
"","","","","","choice_trial_setup","html-keyboard-response","94","2544591","0.0-5.0-0.5","172","1","2025-04-14 14:25:48","bb671e3ae32f654b8954ea4c4635f915","","Mozilla/5.0 (Windows NT 10.0; Win64; x64) AppleWebKit/537.36 (KHTML, like Gecko) Chrome/134.0.0.0 Safari/537.36","WebKit","Chrome","134.0.0.0","Windows","10.0","https://hz8g1ckzuq.cognition.run/","en-US,en;q=0.9","jd4h8dk8tzsuf1f","null","","<p></p>","null","choice","tdc","attraction_1","2","washing machines","null","null","null","null","null","null","2","","","","","","","",""
"","","","","","choice_trial","survey-html-form","95","2550553","0.0-5.0-1.5","172","1","2025-04-14 14:25:48","bb671e3ae32f654b8954ea4c4635f915","","Mozilla/5.0 (Windows NT 10.0; Win64; x64) AppleWebKit/537.36 (KHTML, like Gecko) Chrome/134.0.0.0 Safari/537.36","WebKit","Chrome","134.0.0.0","Windows","10.0","https://hz8g1ckzuq.cognition.run/","en-US,en;q=0.9","jd4h8dk8tzsuf1f","5955","","","{""product_choice"":""C""}","choice","tdc","attraction_1","2","washing machines","null","null","null","null","null","null","2","50","60","45","60","50","60","Average lifespan","Energy savings"
"","","","","","choice_trial_setup","html-keyboard-response","96","2550862","0.0-5.0-0.6","172","1","2025-04-14 14:25:48","bb671e3ae32f654b8954ea4c4635f915","","Mozilla/5.0 (Windows NT 10.0; Win64; x64) AppleWebKit/537.36 (KHTML, like Gecko) Chrome/134.0.0.0 Safari/537.36","WebKit","Chrome","134.0.0.0","Windows","10.0","https://hz8g1ckzuq.cognition.run/","en-US,en;q=0.9","jd4h8dk8tzsuf1f","null","","<p></p>","null","choice","ctd","repulsion_1","1","microwave ovens","null","null","null","null","null","null","2","","","","","","","",""
"","","","","","choice_trial","survey-html-form","97","2559788","0.0-5.0-1.6","172","1","2025-04-14 14:25:48","bb671e3ae32f654b8954ea4c4635f915","","Mozilla/5.0 (Windows NT 10.0; Win64; x64) AppleWebKit/537.36 (KHTML, like Gecko) Chrome/134.0.0.0 Safari/537.36","WebKit","Chrome","134.0.0.0","Windows","10.0","https://hz8g1ckzuq.cognition.run/","en-US,en;q=0.9","jd4h8dk8tzsuf1f","8920","","","{""product_choice"":""A""}","choice","ctd","repulsion_1","1","microwave ovens","null","null","null","null","null","null","2","100","90","100","30","40","25","Warranty","Cooking power"
"","","","","","choice_trial_setup","html-keyboard-response","98","2560095","0.0-5.0-0.7","172","1","2025-04-14 14:25:48","bb671e3ae32f654b8954ea4c4635f915","","Mozilla/5.0 (Windows NT 10.0; Win64; x64) AppleWebKit/537.36 (KHTML, like Gecko) Chrome/134.0.0.0 Safari/537.36","WebKit","Chrome","134.0.0.0","Windows","10.0","https://hz8g1ckzuq.cognition.run/","en-US,en;q=0.9","jd4h8dk8tzsuf1f","null","","<p></p>","null","choice","tcd","repulsion_1","1","televisions","null","null","null","null","null","null","2","","","","","","","",""
"","","","","","choice_trial","survey-html-form","99","2567298","0.0-5.0-1.7","172","1","2025-04-14 14:25:48","bb671e3ae32f654b8954ea4c4635f915","","Mozilla/5.0 (Windows NT 10.0; Win64; x64) AppleWebKit/537.36 (KHTML, like Gecko) Chrome/134.0.0.0 Safari/537.36","WebKit","Chrome","134.0.0.0","Windows","10.0","https://hz8g1ckzuq.cognition.run/","en-US,en;q=0.9","jd4h8dk8tzsuf1f","7194","","","{""product_choice"":""B""}","choice","tcd","repulsion_1","1","televisions","null","null","null","null","null","null","2","100","90","100","30","40","25","Screen size","Average lifespan"
"","","","","","choice_trial_setup","html-keyboard-response","100","2567605","0.0-5.0-0.8","172","1","2025-04-14 14:25:48","bb671e3ae32f654b8954ea4c4635f915","","Mozilla/5.0 (Windows NT 10.0; Win64; x64) AppleWebKit/537.36 (KHTML, like Gecko) Chrome/134.0.0.0 Safari/537.36","WebKit","Chrome","134.0.0.0","Windows","10.0","https://hz8g1ckzuq.cognition.run/","en-US,en;q=0.9","jd4h8dk8tzsuf1f","null","","<p></p>","null","choice","bww","catch","null","laptops","60","60","15","30","40","30","1","","","","","","","",""
"","","","","","choice_trial","survey-html-form","101","2576328","0.0-5.0-1.8","172","1","2025-04-14 14:25:48","bb671e3ae32f654b8954ea4c4635f915","","Mozilla/5.0 (Windows NT 10.0; Win64; x64) AppleWebKit/537.36 (KHTML, like Gecko) Chrome/134.0.0.0 Safari/537.36","WebKit","Chrome","134.0.0.0","Windows","10.0","https://hz8g1ckzuq.cognition.run/","en-US,en;q=0.9","jd4h8dk8tzsuf1f","8714","","","{""product_choice"":""A""}","choice","bww","catch","null","laptops","60","60","15","30","40","30","1","null","null","null","null","null","null","Processing speed","Memory (RAM)"
"","","","","","choice_trial_setup","html-keyboard-response","102","2576643","0.0-5.0-0.9","172","1","2025-04-14 14:25:48","bb671e3ae32f654b8954ea4c4635f915","","Mozilla/5.0 (Windows NT 10.0; Win64; x64) AppleWebKit/537.36 (KHTML, like Gecko) Chrome/134.0.0.0 Safari/537.36","WebKit","Chrome","134.0.0.0","Windows","10.0","https://hz8g1ckzuq.cognition.run/","en-US,en;q=0.9","jd4h8dk8tzsuf1f","null","","<p></p>","null","choice","tcd","repulsion_2","2","washing machines","null","null","null","null","null","null","1","","","","","","","",""
"","","","","","choice_trial","survey-html-form","103","2581614","0.0-5.0-1.9","172","1","2025-04-14 14:25:48","bb671e3ae32f654b8954ea4c4635f915","","Mozilla/5.0 (Windows NT 10.0; Win64; x64) AppleWebKit/537.36 (KHTML, like Gecko) Chrome/134.0.0.0 Safari/537.36","WebKit","Chrome","134.0.0.0","Windows","10.0","https://hz8g1ckzuq.cognition.run/","en-US,en;q=0.9","jd4h8dk8tzsuf1f","4962","","","{""product_choice"":""B""}","choice","tcd","repulsion_2","2","washing machines","null","null","null","null","null","null","1","30","40","20","100","90","100","Average lifespan","Energy savings"
"","","","","","choice_trial_setup","html-keyboard-response","104","2581923","0.0-5.0-0.10","172","1","2025-04-14 14:25:48","bb671e3ae32f654b8954ea4c4635f915","","Mozilla/5.0 (Windows NT 10.0; Win64; x64) AppleWebKit/537.36 (KHTML, like Gecko) Chrome/134.0.0.0 Safari/537.36","WebKit","Chrome","134.0.0.0","Windows","10.0","https://hz8g1ckzuq.cognition.run/","en-US,en;q=0.9","jd4h8dk8tzsuf1f","null","","<p></p>","null","choice","dtc","repulsion_1","2","televisions","null","null","null","null","null","null","1","","","","","","","",""
"","","","","","choice_trial","survey-html-form","105","2588381","0.0-5.0-1.10","172","1","2025-04-14 14:25:48","bb671e3ae32f654b8954ea4c4635f915","","Mozilla/5.0 (Windows NT 10.0; Win64; x64) AppleWebKit/537.36 (KHTML, like Gecko) Chrome/134.0.0.0 Safari/537.36","WebKit","Chrome","134.0.0.0","Windows","10.0","https://hz8g1ckzuq.cognition.run/","en-US,en;q=0.9","jd4h8dk8tzsuf1f","6451","","","{""product_choice"":""C""}","choice","dtc","repulsion_1","2","televisions","null","null","null","null","null","null","1","30","40","25","100","90","100","Screen size","Average lifespan"
"","","","","","choice_trial_setup","html-keyboard-response","106","2588689","0.0-5.0-0.11","172","1","2025-04-14 14:25:48","bb671e3ae32f654b8954ea4c4635f915","","Mozilla/5.0 (Windows NT 10.0; Win64; x64) AppleWebKit/537.36 (KHTML, like Gecko) Chrome/134.0.0.0 Safari/537.36","WebKit","Chrome","134.0.0.0","Windows","10.0","https://hz8g1ckzuq.cognition.run/","en-US,en;q=0.9","jd4h8dk8tzsuf1f","null","","<p></p>","null","choice","tcd","repulsion_2","2","televisions","null","null","null","null","null","null","1","","","","","","","",""
"","","","","","choice_trial","survey-html-form","107","2623514","0.0-5.0-1.11","172","1","2025-04-14 14:25:48","bb671e3ae32f654b8954ea4c4635f915","","Mozilla/5.0 (Windows NT 10.0; Win64; x64) AppleWebKit/537.36 (KHTML, like Gecko) Chrome/134.0.0.0 Safari/537.36","WebKit","Chrome","134.0.0.0","Windows","10.0","https://hz8g1ckzuq.cognition.run/","en-US,en;q=0.9","jd4h8dk8tzsuf1f","34817","","","{""product_choice"":""B""}","choice","tcd","repulsion_2","2","televisions","null","null","null","null","null","null","1","30","40","20","100","90","100","Screen size","Average lifespan"
"","","","","","choice_trial_setup","html-keyboard-response","108","2623823","0.0-5.0-0.12","172","1","2025-04-14 14:25:48","bb671e3ae32f654b8954ea4c4635f915","","Mozilla/5.0 (Windows NT 10.0; Win64; x64) AppleWebKit/537.36 (KHTML, like Gecko) Chrome/134.0.0.0 Safari/537.36","WebKit","Chrome","134.0.0.0","Windows","10.0","https://hz8g1ckzuq.cognition.run/","en-US,en;q=0.9","jd4h8dk8tzsuf1f","null","","<p></p>","null","choice","tdc","repulsion_2","2","microwave ovens","null","null","null","null","null","null","2","","","","","","","",""
"","","","","","choice_trial","survey-html-form","109","2632644","0.0-5.0-1.12","172","1","2025-04-14 14:25:48","bb671e3ae32f654b8954ea4c4635f915","","Mozilla/5.0 (Windows NT 10.0; Win64; x64) AppleWebKit/537.36 (KHTML, like Gecko) Chrome/134.0.0.0 Safari/537.36","WebKit","Chrome","134.0.0.0","Windows","10.0","https://hz8g1ckzuq.cognition.run/","en-US,en;q=0.9","jd4h8dk8tzsuf1f","8816","","","{""product_choice"":""C""}","choice","tdc","repulsion_2","2","microwave ovens","null","null","null","null","null","null","2","30","40","20","100","90","100","Warranty","Cooking power"
"","","","","","choice_trial_setup","html-keyboard-response","110","2632949","0.0-5.0-0.13","172","1","2025-04-14 14:25:48","bb671e3ae32f654b8954ea4c4635f915","","Mozilla/5.0 (Windows NT 10.0; Win64; x64) AppleWebKit/537.36 (KHTML, like Gecko) Chrome/134.0.0.0 Safari/537.36","WebKit","Chrome","134.0.0.0","Windows","10.0","https://hz8g1ckzuq.cognition.run/","en-US,en;q=0.9","jd4h8dk8tzsuf1f","null","","<p></p>","null","choice","cdt","attraction_2","2","microwave ovens","null","null","null","null","null","null","2","","","","","","","",""
"","","","","","choice_trial","survey-html-form","111","2640137","0.0-5.0-1.13","172","1","2025-04-14 14:25:48","bb671e3ae32f654b8954ea4c4635f915","","Mozilla/5.0 (Windows NT 10.0; Win64; x64) AppleWebKit/537.36 (KHTML, like Gecko) Chrome/134.0.0.0 Safari/537.36","WebKit","Chrome","134.0.0.0","Windows","10.0","https://hz8g1ckzuq.cognition.run/","en-US,en;q=0.9","jd4h8dk8tzsuf1f","7184","","","{""product_choice"":""C""}","choice","cdt","attraction_2","2","microwave ovens","null","null","null","null","null","null","2","50","60","40","60","50","60","Warranty","Cooking power"
"","","","","","choice_trial_setup","html-keyboard-response","112","2640445","0.0-5.0-0.14","172","1","2025-04-14 14:25:48","bb671e3ae32f654b8954ea4c4635f915","","Mozilla/5.0 (Windows NT 10.0; Win64; x64) AppleWebKit/537.36 (KHTML, like Gecko) Chrome/134.0.0.0 Safari/537.36","WebKit","Chrome","134.0.0.0","Windows","10.0","https://hz8g1ckzuq.cognition.run/","en-US,en;q=0.9","jd4h8dk8tzsuf1f","null","","<p></p>","null","choice","tcd","repulsion_2","1","microwave ovens","null","null","null","null","null","null","2","","","","","","","",""
"","","","","","choice_trial","survey-html-form","113","2646667","0.0-5.0-1.14","172","1","2025-04-14 14:25:48","bb671e3ae32f654b8954ea4c4635f915","","Mozilla/5.0 (Windows NT 10.0; Win64; x64) AppleWebKit/537.36 (KHTML, like Gecko) Chrome/134.0.0.0 Safari/537.36","WebKit","Chrome","134.0.0.0","Windows","10.0","https://hz8g1ckzuq.cognition.run/","en-US,en;q=0.9","jd4h8dk8tzsuf1f","6215","","","{""product_choice"":""B""}","choice","tcd","repulsion_2","1","microwave ovens","null","null","null","null","null","null","2","100","90","100","30","40","20","Warranty","Cooking power"
"","","","","","choice_trial_setup","html-keyboard-response","114","2646974","0.0-5.0-0.15","172","1","2025-04-14 14:25:48","bb671e3ae32f654b8954ea4c4635f915","","Mozilla/5.0 (Windows NT 10.0; Win64; x64) AppleWebKit/537.36 (KHTML, like Gecko) Chrome/134.0.0.0 Safari/537.36","WebKit","Chrome","134.0.0.0","Windows","10.0","https://hz8g1ckzuq.cognition.run/","en-US,en;q=0.9","jd4h8dk8tzsuf1f","null","","<p></p>","null","choice","wbw","catch","null","laptops","65","75","35","25","20","20","2","","","","","","","",""
"","","","","","choice_trial","survey-html-form","115","2664676","0.0-5.0-1.15","172","1","2025-04-14 14:25:48","bb671e3ae32f654b8954ea4c4635f915","","Mozilla/5.0 (Windows NT 10.0; Win64; x64) AppleWebKit/537.36 (KHTML, like Gecko) Chrome/134.0.0.0 Safari/537.36","WebKit","Chrome","134.0.0.0","Windows","10.0","https://hz8g1ckzuq.cognition.run/","en-US,en;q=0.9","jd4h8dk8tzsuf1f","17692","","","{""product_choice"":""B""}","choice","wbw","catch","null","laptops","65","75","35","25","20","20","2","null","null","null","null","null","null","Processing speed","Memory (RAM)"
"","","","","","choice_trial_setup","html-keyboard-response","116","2664986","0.0-5.0-0.16","172","1","2025-04-14 14:25:48","bb671e3ae32f654b8954ea4c4635f915","","Mozilla/5.0 (Windows NT 10.0; Win64; x64) AppleWebKit/537.36 (KHTML, like Gecko) Chrome/134.0.0.0 Safari/537.36","WebKit","Chrome","134.0.0.0","Windows","10.0","https://hz8g1ckzuq.cognition.run/","en-US,en;q=0.9","jd4h8dk8tzsuf1f","null","","<p></p>","null","choice","dct","repulsion_2","1","washing machines","null","null","null","null","null","null","1","","","","","","","",""
"","","","","","choice_trial","survey-html-form","117","2701993","0.0-5.0-1.16","172","1","2025-04-14 14:25:48","bb671e3ae32f654b8954ea4c4635f915","","Mozilla/5.0 (Windows NT 10.0; Win64; x64) AppleWebKit/537.36 (KHTML, like Gecko) Chrome/134.0.0.0 Safari/537.36","WebKit","Chrome","134.0.0.0","Windows","10.0","https://hz8g1ckzuq.cognition.run/","en-US,en;q=0.9","jd4h8dk8tzsuf1f","37000","","","{""product_choice"":""B""}","choice","dct","repulsion_2","1","washing machines","null","null","null","null","null","null","1","100","90","100","30","40","20","Average lifespan","Energy savings"
"","","","","","choice_trial_setup","html-keyboard-response","118","2702301","0.0-5.0-0.17","172","1","2025-04-14 14:25:48","bb671e3ae32f654b8954ea4c4635f915","","Mozilla/5.0 (Windows NT 10.0; Win64; x64) AppleWebKit/537.36 (KHTML, like Gecko) Chrome/134.0.0.0 Safari/537.36","WebKit","Chrome","134.0.0.0","Windows","10.0","https://hz8g1ckzuq.cognition.run/","en-US,en;q=0.9","jd4h8dk8tzsuf1f","null","","<p></p>","null","choice","tdc","attraction_2","1","washing machines","null","null","null","null","null","null","1","","","","","","","",""
"","","","","","choice_trial","survey-html-form","119","2713384","0.0-5.0-1.17","172","1","2025-04-14 14:25:48","bb671e3ae32f654b8954ea4c4635f915","","Mozilla/5.0 (Windows NT 10.0; Win64; x64) AppleWebKit/537.36 (KHTML, like Gecko) Chrome/134.0.0.0 Safari/537.36","WebKit","Chrome","134.0.0.0","Windows","10.0","https://hz8g1ckzuq.cognition.run/","en-US,en;q=0.9","jd4h8dk8tzsuf1f","11075","","","{""product_choice"":""C""}","choice","tdc","attraction_2","1","washing machines","null","null","null","null","null","null","1","60","50","60","50","60","40","Average lifespan","Energy savings"
"","","","","","choice_trial_setup","html-keyboard-response","120","2713693","0.0-5.0-0.18","172","1","2025-04-14 14:25:48","bb671e3ae32f654b8954ea4c4635f915","","Mozilla/5.0 (Windows NT 10.0; Win64; x64) AppleWebKit/537.36 (KHTML, like Gecko) Chrome/134.0.0.0 Safari/537.36","WebKit","Chrome","134.0.0.0","Windows","10.0","https://hz8g1ckzuq.cognition.run/","en-US,en;q=0.9","jd4h8dk8tzsuf1f","null","","<p></p>","null","choice","ctd","repulsion_1","1","laptops","null","null","null","null","null","null","1","","","","","","","",""
"","","","","","choice_trial","survey-html-form","121","2719597","0.0-5.0-1.18","172","1","2025-04-14 14:25:48","bb671e3ae32f654b8954ea4c4635f915","","Mozilla/5.0 (Windows NT 10.0; Win64; x64) AppleWebKit/537.36 (KHTML, like Gecko) Chrome/134.0.0.0 Safari/537.36","WebKit","Chrome","134.0.0.0","Windows","10.0","https://hz8g1ckzuq.cognition.run/","en-US,en;q=0.9","jd4h8dk8tzsuf1f","5895","","","{""product_choice"":""A""}","choice","ctd","repulsion_1","1","laptops","null","null","null","null","null","null","1","100","90","100","30","40","25","Processing speed","Memory (RAM)"
"","","","","","choice_trial_setup","html-keyboard-response","122","2719906","0.0-5.0-0.19","172","1","2025-04-14 14:25:48","bb671e3ae32f654b8954ea4c4635f915","","Mozilla/5.0 (Windows NT 10.0; Win64; x64) AppleWebKit/537.36 (KHTML, like Gecko) Chrome/134.0.0.0 Safari/537.36","WebKit","Chrome","134.0.0.0","Windows","10.0","https://hz8g1ckzuq.cognition.run/","en-US,en;q=0.9","jd4h8dk8tzsuf1f","null","","<p></p>","null","choice","wbw","catch","null","televisions","55","85","15","40","30","5","2","","","","","","","",""
"","","","","","choice_trial","survey-html-form","123","2725707","0.0-5.0-1.19","172","1","2025-04-14 14:25:48","bb671e3ae32f654b8954ea4c4635f915","","Mozilla/5.0 (Windows NT 10.0; Win64; x64) AppleWebKit/537.36 (KHTML, like Gecko) Chrome/134.0.0.0 Safari/537.36","WebKit","Chrome","134.0.0.0","Windows","10.0","https://hz8g1ckzuq.cognition.run/","en-US,en;q=0.9","jd4h8dk8tzsuf1f","5790","","","{""product_choice"":""B""}","choice","wbw","catch","null","televisions","55","85","15","40","30","5","2","null","null","null","null","null","null","Screen size","Average lifespan"
"","","","","","choice_trial_setup","html-keyboard-response","124","2726015","0.0-5.0-0.20","172","1","2025-04-14 14:25:48","bb671e3ae32f654b8954ea4c4635f915","","Mozilla/5.0 (Windows NT 10.0; Win64; x64) AppleWebKit/537.36 (KHTML, like Gecko) Chrome/134.0.0.0 Safari/537.36","WebKit","Chrome","134.0.0.0","Windows","10.0","https://hz8g1ckzuq.cognition.run/","en-US,en;q=0.9","jd4h8dk8tzsuf1f","null","","<p></p>","null","choice","dtc","attraction_1","2","microwave ovens","null","null","null","null","null","null","2","","","","","","","",""
"","","","","","choice_trial","survey-html-form","125","2747657","0.0-5.0-1.20","172","1","2025-04-14 14:25:48","bb671e3ae32f654b8954ea4c4635f915","","Mozilla/5.0 (Windows NT 10.0; Win64; x64) AppleWebKit/537.36 (KHTML, like Gecko) Chrome/134.0.0.0 Safari/537.36","WebKit","Chrome","134.0.0.0","Windows","10.0","https://hz8g1ckzuq.cognition.run/","en-US,en;q=0.9","jd4h8dk8tzsuf1f","21636","","","{""product_choice"":""B""}","choice","dtc","attraction_1","2","microwave ovens","null","null","null","null","null","null","2","50","60","45","60","50","60","Warranty","Cooking power"
"","","","","","choice_trial_setup","html-keyboard-response","126","2747965","0.0-5.0-0.21","172","1","2025-04-14 14:25:48","bb671e3ae32f654b8954ea4c4635f915","","Mozilla/5.0 (Windows NT 10.0; Win64; x64) AppleWebKit/537.36 (KHTML, like Gecko) Chrome/134.0.0.0 Safari/537.36","WebKit","Chrome","134.0.0.0","Windows","10.0","https://hz8g1ckzuq.cognition.run/","en-US,en;q=0.9","jd4h8dk8tzsuf1f","null","","<p></p>","null","choice","tdc","attraction_1","1","washing machines","null","null","null","null","null","null","1","","","","","","","",""
"","","","","","choice_trial","survey-html-form","127","2757559","0.0-5.0-1.21","172","1","2025-04-14 14:25:48","bb671e3ae32f654b8954ea4c4635f915","","Mozilla/5.0 (Windows NT 10.0; Win64; x64) AppleWebKit/537.36 (KHTML, like Gecko) Chrome/134.0.0.0 Safari/537.36","WebKit","Chrome","134.0.0.0","Windows","10.0","https://hz8g1ckzuq.cognition.run/","en-US,en;q=0.9","jd4h8dk8tzsuf1f","9586","","","{""product_choice"":""A""}","choice","tdc","attraction_1","1","washing machines","null","null","null","null","null","null","1","60","50","60","50","60","45","Average lifespan","Energy savings"
"","","","","","choice_trial_setup","html-keyboard-response","128","2757867","0.0-5.0-0.22","172","1","2025-04-14 14:25:48","bb671e3ae32f654b8954ea4c4635f915","","Mozilla/5.0 (Windows NT 10.0; Win64; x64) AppleWebKit/537.36 (KHTML, like Gecko) Chrome/134.0.0.0 Safari/537.36","WebKit","Chrome","134.0.0.0","Windows","10.0","https://hz8g1ckzuq.cognition.run/","en-US,en;q=0.9","jd4h8dk8tzsuf1f","null","","<p></p>","null","choice","tdc","repulsion_2","2","laptops","null","null","null","null","null","null","2","","","","","","","",""
"","","","","","choice_trial","survey-html-form","129","2777830","0.0-5.0-1.22","172","1","2025-04-14 14:25:48","bb671e3ae32f654b8954ea4c4635f915","","Mozilla/5.0 (Windows NT 10.0; Win64; x64) AppleWebKit/537.36 (KHTML, like Gecko) Chrome/134.0.0.0 Safari/537.36","WebKit","Chrome","134.0.0.0","Windows","10.0","https://hz8g1ckzuq.cognition.run/","en-US,en;q=0.9","jd4h8dk8tzsuf1f","19953","","","{""product_choice"":""C""}","choice","tdc","repulsion_2","2","laptops","null","null","null","null","null","null","2","30","40","20","100","90","100","Processing speed","Memory (RAM)"
"","","","","","choice_trial_setup","html-keyboard-response","130","2778143","0.0-5.0-0.23","172","1","2025-04-14 14:25:48","bb671e3ae32f654b8954ea4c4635f915","","Mozilla/5.0 (Windows NT 10.0; Win64; x64) AppleWebKit/537.36 (KHTML, like Gecko) Chrome/134.0.0.0 Safari/537.36","WebKit","Chrome","134.0.0.0","Windows","10.0","https://hz8g1ckzuq.cognition.run/","en-US,en;q=0.9","jd4h8dk8tzsuf1f","null","","<p></p>","null","choice","wwb","catch","null","washing machines","65","80","40","25","50","20","1","","","","","","","",""
"","","","","","choice_trial","survey-html-form","131","2796554","0.0-5.0-1.23","172","1","2025-04-14 14:25:48","bb671e3ae32f654b8954ea4c4635f915","","Mozilla/5.0 (Windows NT 10.0; Win64; x64) AppleWebKit/537.36 (KHTML, like Gecko) Chrome/134.0.0.0 Safari/537.36","WebKit","Chrome","134.0.0.0","Windows","10.0","https://hz8g1ckzuq.cognition.run/","en-US,en;q=0.9","jd4h8dk8tzsuf1f","18403","","","{""product_choice"":""C""}","choice","wwb","catch","null","washing machines","65","80","40","25","50","20","1","null","null","null","null","null","null","Average lifespan","Energy savings"
"","","","","","choice_trial_setup","html-keyboard-response","132","2796861","0.0-5.0-0.24","172","1","2025-04-14 14:25:48","bb671e3ae32f654b8954ea4c4635f915","","Mozilla/5.0 (Windows NT 10.0; Win64; x64) AppleWebKit/537.36 (KHTML, like Gecko) Chrome/134.0.0.0 Safari/537.36","WebKit","Chrome","134.0.0.0","Windows","10.0","https://hz8g1ckzuq.cognition.run/","en-US,en;q=0.9","jd4h8dk8tzsuf1f","null","","<p></p>","null","choice","bww","catch","null","washing machines","55","80","25","20","10","20","1","","","","","","","",""
"","","","","","choice_trial","survey-html-form","133","2804152","0.0-5.0-1.24","172","1","2025-04-14 14:25:48","bb671e3ae32f654b8954ea4c4635f915","","Mozilla/5.0 (Windows NT 10.0; Win64; x64) AppleWebKit/537.36 (KHTML, like Gecko) Chrome/134.0.0.0 Safari/537.36","WebKit","Chrome","134.0.0.0","Windows","10.0","https://hz8g1ckzuq.cognition.run/","en-US,en;q=0.9","jd4h8dk8tzsuf1f","7282","","","{""product_choice"":""A""}","choice","bww","catch","null","washing machines","55","80","25","20","10","20","1","null","null","null","null","null","null","Average lifespan","Energy savings"
"","","","","","choice_trial_setup","html-keyboard-response","134","2804462","0.0-5.0-0.25","172","1","2025-04-14 14:25:48","bb671e3ae32f654b8954ea4c4635f915","","Mozilla/5.0 (Windows NT 10.0; Win64; x64) AppleWebKit/537.36 (KHTML, like Gecko) Chrome/134.0.0.0 Safari/537.36","WebKit","Chrome","134.0.0.0","Windows","10.0","https://hz8g1ckzuq.cognition.run/","en-US,en;q=0.9","jd4h8dk8tzsuf1f","null","","<p></p>","null","choice","dct","repulsion_2","1","televisions","null","null","null","null","null","null","2","","","","","","","",""
"","","","","","choice_trial","survey-html-form","135","2824106","0.0-5.0-1.25","172","1","2025-04-14 14:25:48","bb671e3ae32f654b8954ea4c4635f915","","Mozilla/5.0 (Windows NT 10.0; Win64; x64) AppleWebKit/537.36 (KHTML, like Gecko) Chrome/134.0.0.0 Safari/537.36","WebKit","Chrome","134.0.0.0","Windows","10.0","https://hz8g1ckzuq.cognition.run/","en-US,en;q=0.9","jd4h8dk8tzsuf1f","19634","","","{""product_choice"":""B""}","choice","dct","repulsion_2","1","televisions","null","null","null","null","null","null","2","100","90","100","30","40","20","Screen size","Average lifespan"
"","","","","","choice_trial_setup","html-keyboard-response","136","2824418","0.0-5.0-0.26","172","1","2025-04-14 14:25:48","bb671e3ae32f654b8954ea4c4635f915","","Mozilla/5.0 (Windows NT 10.0; Win64; x64) AppleWebKit/537.36 (KHTML, like Gecko) Chrome/134.0.0.0 Safari/537.36","WebKit","Chrome","134.0.0.0","Windows","10.0","https://hz8g1ckzuq.cognition.run/","en-US,en;q=0.9","jd4h8dk8tzsuf1f","null","","<p></p>","null","choice","wbw","catch","null","televisions","80","80","25","30","40","15","2","","","","","","","",""
"","","","","","choice_trial","survey-html-form","137","2833270","0.0-5.0-1.26","172","1","2025-04-14 14:25:48","bb671e3ae32f654b8954ea4c4635f915","","Mozilla/5.0 (Windows NT 10.0; Win64; x64) AppleWebKit/537.36 (KHTML, like Gecko) Chrome/134.0.0.0 Safari/537.36","WebKit","Chrome","134.0.0.0","Windows","10.0","https://hz8g1ckzuq.cognition.run/","en-US,en;q=0.9","jd4h8dk8tzsuf1f","8843","","","{""product_choice"":""B""}","choice","wbw","catch","null","televisions","80","80","25","30","40","15","2","null","null","null","null","null","null","Screen size","Average lifespan"
"","","","","","choice_trial_setup","html-keyboard-response","138","2833579","0.0-5.0-0.27","172","1","2025-04-14 14:25:48","bb671e3ae32f654b8954ea4c4635f915","","Mozilla/5.0 (Windows NT 10.0; Win64; x64) AppleWebKit/537.36 (KHTML, like Gecko) Chrome/134.0.0.0 Safari/537.36","WebKit","Chrome","134.0.0.0","Windows","10.0","https://hz8g1ckzuq.cognition.run/","en-US,en;q=0.9","jd4h8dk8tzsuf1f","null","","<p></p>","null","choice","dct","attraction_2","2","televisions","null","null","null","null","null","null","1","","","","","","","",""
"","","","","","choice_trial","survey-html-form","139","2862315","0.0-5.0-1.27","172","1","2025-04-14 14:25:48","bb671e3ae32f654b8954ea4c4635f915","","Mozilla/5.0 (Windows NT 10.0; Win64; x64) AppleWebKit/537.36 (KHTML, like Gecko) Chrome/134.0.0.0 Safari/537.36","WebKit","Chrome","134.0.0.0","Windows","10.0","https://hz8g1ckzuq.cognition.run/","en-US,en;q=0.9","jd4h8dk8tzsuf1f","28727","","","{""product_choice"":""B""}","choice","dct","attraction_2","2","televisions","null","null","null","null","null","null","1","50","60","40","60","50","60","Screen size","Average lifespan"
"","","","","","choice_trial_setup","html-keyboard-response","140","2862627","0.0-5.0-0.28","172","1","2025-04-14 14:25:48","bb671e3ae32f654b8954ea4c4635f915","","Mozilla/5.0 (Windows NT 10.0; Win64; x64) AppleWebKit/537.36 (KHTML, like Gecko) Chrome/134.0.0.0 Safari/537.36","WebKit","Chrome","134.0.0.0","Windows","10.0","https://hz8g1ckzuq.cognition.run/","en-US,en;q=0.9","jd4h8dk8tzsuf1f","null","","<p></p>","null","choice","ctd","repulsion_1","1","washing machines","null","null","null","null","null","null","2","","","","","","","",""
"","","","","","choice_trial","survey-html-form","141","2875722","0.0-5.0-1.28","172","1","2025-04-14 14:25:48","bb671e3ae32f654b8954ea4c4635f915","","Mozilla/5.0 (Windows NT 10.0; Win64; x64) AppleWebKit/537.36 (KHTML, like Gecko) Chrome/134.0.0.0 Safari/537.36","WebKit","Chrome","134.0.0.0","Windows","10.0","https://hz8g1ckzuq.cognition.run/","en-US,en;q=0.9","jd4h8dk8tzsuf1f","13088","","","{""product_choice"":""A""}","choice","ctd","repulsion_1","1","washing machines","null","null","null","null","null","null","2","100","90","100","30","40","25","Average lifespan","Energy savings"
"","","","","","choice_trial_setup","html-keyboard-response","142","2876033","0.0-5.0-0.29","172","1","2025-04-14 14:25:48","bb671e3ae32f654b8954ea4c4635f915","","Mozilla/5.0 (Windows NT 10.0; Win64; x64) AppleWebKit/537.36 (KHTML, like Gecko) Chrome/134.0.0.0 Safari/537.36","WebKit","Chrome","134.0.0.0","Windows","10.0","https://hz8g1ckzuq.cognition.run/","en-US,en;q=0.9","jd4h8dk8tzsuf1f","null","","<p></p>","null","choice","cdt","attraction_1","1","laptops","null","null","null","null","null","null","1","","","","","","","",""
"","","","","","choice_trial","survey-html-form","143","2885041","0.0-5.0-1.29","172","1","2025-04-14 14:25:48","bb671e3ae32f654b8954ea4c4635f915","","Mozilla/5.0 (Windows NT 10.0; Win64; x64) AppleWebKit/537.36 (KHTML, like Gecko) Chrome/134.0.0.0 Safari/537.36","WebKit","Chrome","134.0.0.0","Windows","10.0","https://hz8g1ckzuq.cognition.run/","en-US,en;q=0.9","jd4h8dk8tzsuf1f","8995","","","{""product_choice"":""C""}","choice","cdt","attraction_1","1","laptops","null","null","null","null","null","null","1","60","50","60","50","60","45","Processing speed","Memory (RAM)"
"","","","","","choice_trial_setup","html-keyboard-response","144","2885353","0.0-5.0-0.30","172","1","2025-04-14 14:25:48","bb671e3ae32f654b8954ea4c4635f915","","Mozilla/5.0 (Windows NT 10.0; Win64; x64) AppleWebKit/537.36 (KHTML, like Gecko) Chrome/134.0.0.0 Safari/537.36","WebKit","Chrome","134.0.0.0","Windows","10.0","https://hz8g1ckzuq.cognition.run/","en-US,en;q=0.9","jd4h8dk8tzsuf1f","null","","<p></p>","null","choice","tcd","attraction_2","1","microwave ovens","null","null","null","null","null","null","2","","","","","","","",""
"","","","","","choice_trial","survey-html-form","145","2889001","0.0-5.0-1.30","172","1","2025-04-14 14:25:48","bb671e3ae32f654b8954ea4c4635f915","","Mozilla/5.0 (Windows NT 10.0; Win64; x64) AppleWebKit/537.36 (KHTML, like Gecko) Chrome/134.0.0.0 Safari/537.36","WebKit","Chrome","134.0.0.0","Windows","10.0","https://hz8g1ckzuq.cognition.run/","en-US,en;q=0.9","jd4h8dk8tzsuf1f","3638","","","{""product_choice"":""B""}","choice","tcd","attraction_2","1","microwave ovens","null","null","null","null","null","null","2","60","50","60","50","60","40","Warranty","Cooking power"
"","","","","","choice_trial_setup","html-keyboard-response","146","2889310","0.0-5.0-0.31","172","1","2025-04-14 14:25:48","bb671e3ae32f654b8954ea4c4635f915","","Mozilla/5.0 (Windows NT 10.0; Win64; x64) AppleWebKit/537.36 (KHTML, like Gecko) Chrome/134.0.0.0 Safari/537.36","WebKit","Chrome","134.0.0.0","Windows","10.0","https://hz8g1ckzuq.cognition.run/","en-US,en;q=0.9","jd4h8dk8tzsuf1f","null","","<p></p>","null","choice","cdt","repulsion_1","2","laptops","null","null","null","null","null","null","1","","","","","","","",""
"","","","","","choice_trial","survey-html-form","147","2894553","0.0-5.0-1.31","172","1","2025-04-14 14:25:48","bb671e3ae32f654b8954ea4c4635f915","","Mozilla/5.0 (Windows NT 10.0; Win64; x64) AppleWebKit/537.36 (KHTML, like Gecko) Chrome/134.0.0.0 Safari/537.36","WebKit","Chrome","134.0.0.0","Windows","10.0","https://hz8g1ckzuq.cognition.run/","en-US,en;q=0.9","jd4h8dk8tzsuf1f","5235","","","{""product_choice"":""A""}","choice","cdt","repulsion_1","2","laptops","null","null","null","null","null","null","1","30","40","25","100","90","100","Processing speed","Memory (RAM)"
"","","","","","choice_trial_setup","html-keyboard-response","148","2894865","0.0-5.0-0.32","172","1","2025-04-14 14:25:48","bb671e3ae32f654b8954ea4c4635f915","","Mozilla/5.0 (Windows NT 10.0; Win64; x64) AppleWebKit/537.36 (KHTML, like Gecko) Chrome/134.0.0.0 Safari/537.36","WebKit","Chrome","134.0.0.0","Windows","10.0","https://hz8g1ckzuq.cognition.run/","en-US,en;q=0.9","jd4h8dk8tzsuf1f","null","","<p></p>","null","choice","cdt","attraction_1","1","televisions","null","null","null","null","null","null","1","","","","","","","",""