"success","timeout","failed_images","failed_audio","failed_video","screen_id","trial_type","trial_index","time_elapsed","internal_node_id","run_id","condition","recorded_at","source_code_version","ip","user_agent","device","browser","browser_version","platform","platform_version","referer","accept_language","ppt_id","age","race","ethnicity","gender","exp_duration","rt","view_history","stimulus","response","phase","order","effect","t_high","category","d1_best","d2_best","d1_worst1","d2_worst1","d1_worst2","d2_worst2","first_dim","d1_t","d1_c","d1_d","d2_t","d2_c","d2_d","d1_name","d2_name","strategy_response","question_order"
"true","false","[]","[]","[]","img preload","preload","0","1758","0.0-0.0","173","1","2025-04-14 14:29:19","bb671e3ae32f654b8954ea4c4635f915","","Mozilla/5.0 (Macintosh; Intel Mac OS X 10_15_7) AppleWebKit/537.36 (KHTML, like Gecko) Chrome/134.0.0.0 Safari/537.36","Macintosh","Chrome","134.0.0.0","OS X","10_15_7","https://hz8g1ckzuq.cognition.run/","en-US,en;q=0.9","016qz974d19ec38","56","[""White""]","No","Female","2335040.1000000006","","","","","","","","","","","","","","","","","","","","","","","","","",""
"true","","","","","","fullscreen","1","7361","0.0-1.0","173","1","2025-04-14 14:29:19","bb671e3ae32f654b8954ea4c4635f915","","Mozilla/5.0 (Macintosh; Intel Mac OS X 10_15_7) AppleWebKit/537.36 (KHTML, like Gecko) Chrome/134.0.0.0 Safari/537.36","Macintosh","Chrome","134.0.0.0","OS X","10_15_7","https://hz8g1ckzuq.cognition.run/","en-US,en;q=0.9","016qz974d19ec38","56","[""White""]","No","Female","2335040.1000000006","4600","","","","","","","","","","","","","","","","","","","","","","","","",""
"","","","","","","instructions","2","156535","0.0-2.0","173","1","2025-04-14 14:29:19","bb671e3ae32f654b8954ea4c4635f915","","Mozilla/5.0 (Macintosh; Intel Mac OS X 10_15_7) AppleWebKit/537.36 (KHTML, like Gecko) Chrome/134.0.0.0 Safari/537.36","Macintosh","Chrome","134.0.0.0","OS X","10_15_7","https://hz8g1ckzuq.cognition.run/","en-US,en;q=0.9","016qz974d19ec38","56","[""White""]","No","Female","2335040.1000000006","149181","[{""page_index"":0,""viewing_time"":2496},{""page_index"":1,""viewing_time"":5953},{""page_index"":2,""viewing_time"":10797},{""page_index"":3,""viewing_time"":6253},{""page_index"":4,""viewing_time"":12135},{""page_index"":5,""viewing_time"":18726},{""page_index"":6,""viewing_time"":12482},{""page_index"":7,""viewing_time"":58269},{""page_index"":8,""viewing_time"":17292},{""page_index"":9,""viewing_time"":4779}]","","","","","","","","","","","","","","","","","","","","","","","",""
"","","","","","rating_trial_setup","html-keyboard-response","3","156839","0.0-3.0-0.0","173","1","2025-04-14 14:29:19","bb671e3ae32f654b8954ea4c4635f915","","Mozilla/5.0 (Macintosh; Intel Mac OS X 10_15_7) AppleWebKit/537.36 (KHTML, like Gecko) Chrome/134.0.0.0 Safari/537.36","Macintosh","Chrome","134.0.0.0","OS X","10_15_7","https://hz8g1ckzuq.cognition.run/","en-US,en;q=0.9","016qz974d19ec38","56","[""White""]","No","Female","2335040.1000000006","null","","<p></p>","null","rating","bww","catch","null","washing machines","50","70","15","30","50","10","1","","","","","","","","","",""
"","","","","","rating_trial","survey-html-form","4","296882","0.0-3.0-1.0","173","1","2025-04-14 14:29:19","bb671e3ae32f654b8954ea4c4635f915","","Mozilla/5.0 (Macintosh; Intel Mac OS X 10_15_7) AppleWebKit/537.36 (KHTML, like Gecko) Chrome/134.0.0.0 Safari/537.36","Macintosh","Chrome","134.0.0.0","OS X","10_15_7","https://hz8g1ckzuq.cognition.run/","en-US,en;q=0.9","016qz974d19ec38","56","[""White""]","No","Female","2335040.1000000006","140046","","","{""price_1"":""500"",""price_2"":""350"",""price_3"":""252""}","rating","bww","catch","null","washing machines","50","70","15","30","50","10","1","null","null","null","null","null","null","Average lifespan","Energy savings","",""
"","","","","","rating_trial_setup","html-keyboard-response","5","297184","0.0-3.0-0.1","173","1","2025-04-14 14:29:19","bb671e3ae32f654b8954ea4c4635f915","","Mozilla/5.0 (Macintosh; Intel Mac OS X 10_15_7) AppleWebKit/537.36 (KHTML, like Gecko) Chrome/134.0.0.0 Safari/537.36","Macintosh","Chrome","134.0.0.0","OS X","10_15_7","https://hz8g1ckzuq.cognition.run/","en-US,en;q=0.9","016qz974d19ec38","56","[""White""]","No","Female","2335040.1000000006","null","","<p></p>","null","rating","dtc","repulsion_2","1","microwave ovens","null","null","null","null","null","null","1","","","","","","","","","",""
"","","","","","rating_trial","survey-html-form","6","353028","0.0-3.0-1.1","173","1","2025-04-14 14:29:19","bb671e3ae32f654b8954ea4c4635f915","","Mozilla/5.0 (Macintosh; Intel Mac OS X 10_15_7) AppleWebKit/537.36 (KHTML, like Gecko) Chrome/134.0.0.0 Safari/537.36","Macintosh","Chrome","134.0.0.0","OS X","10_15_7","https://hz8g1ckzuq.cognition.run/","en-US,en;q=0.9","016qz974d19ec38","56","[""White""]","No","Female","2335040.1000000006","55842","","","{""price_1"":""50"",""price_2"":""55"",""price_3"":""50""}","rating","dtc","repulsion_2","1","microwave ovens","null","null","null","null","null","null","1","100","90","100","30","40","20","Warranty","Cooking power","",""
"","","","","","rating_trial_setup","html-keyboard-response","7","353331","0.0-3.0-0.2","173","1","2025-04-14 14:29:19","bb671e3ae32f654b8954ea4c4635f915","","Mozilla/5.0 (Macintosh; Intel Mac OS X 10_15_7) AppleWebKit/537.36 (KHTML, like Gecko) Chrome/134.0.0.0 Safari/537.36","Macintosh","Chrome","134.0.0.0","OS X","10_15_7","https://hz8g1ckzuq.cognition.run/","en-US,en;q=0.9","016qz974d19ec38","56","[""White""]","No","Female","2335040.1000000006","null","","<p></p>","null","rating","dtc","attraction_1","2","laptops","null","null","null","null","null","null","2","","","","","","","","","",""
"","","","","","rating_trial","survey-html-form","8","385672","0.0-3.0-1.2","173","1","2025-04-14 14:29:19","bb671e3ae32f654b8954ea4c4635f915","","Mozilla/5.0 (Macintosh; Intel Mac OS X 10_15_7) AppleWebKit/537.36 (KHTML, like Gecko) Chrome/134.0.0.0 Safari/537.36","Macintosh","Chrome","134.0.0.0","OS X","10_15_7","https://hz8g1ckzuq.cognition.run/","en-US,en;q=0.9","016qz974d19ec38","56","[""White""]","No","Female","2335040.1000000006","32339","","","{""price_1"":""400"",""price_2"":""450"",""price_3"":""500""}","rating","dtc","attraction_1","2","laptops","null","null","null","null","null","null","2","50","60","45","60","50","60","Processing speed","Memory (RAM)","",""
"","","","","","rating_trial_setup","html-keyboard-response","9","385974","0.0-3.0-0.3","173","1","2025-04-14 14:29:19","bb671e3ae32f654b8954ea4c4635f915","","Mozilla/5.0 (Macintosh; Intel Mac OS X 10_15_7) AppleWebKit/537.36 (KHTML, like Gecko) Chrome/134.0.0.0 Safari/537.36","Macintosh","Chrome","134.0.0.0","OS X","10_15_7","https://hz8g1ckzuq.cognition.run/","en-US,en;q=0.9","016qz974d19ec38","56","[""White""]","No","Female","2335040.1000000006","null","","<p></p>","null","rating","cdt","attraction_1","2","microwave ovens","null","null","null","null","null","null","2","","","","","","","","","",""
"","","","","","rating_trial","survey-html-form","10","417905","0.0-3.0-1.3","173","1","2025-04-14 14:29:19","bb671e3ae32f654b8954ea4c4635f915","","Mozilla/5.0 (Macintosh; Intel Mac OS X 10_15_7) AppleWebKit/537.36 (KHTML, like Gecko) Chrome/134.0.0.0 Safari/537.36","Macintosh","Chrome","134.0.0.0","OS X","10_15_7","https://hz8g1ckzuq.cognition.run/","en-US,en;q=0.9","016qz974d19ec38","56","[""White""]","No","Female","2335040.1000000006","31930","","","{""price_1"":""45"",""price_2"":""55"",""price_3"":""60""}","rating","cdt","attraction_1","2","microwave ovens","null","null","null","null","null","null","2","50","60","45","60","50","60","Warranty","Cooking power","",""
"","","","","","rating_trial_setup","html-keyboard-response","11","418208","0.0-3.0-0.4","173","1","2025-04-14 14:29:19","bb671e3ae32f654b8954ea4c4635f915","","Mozilla/5.0 (Macintosh; Intel Mac OS X 10_15_7) AppleWebKit/537.36 (KHTML, like Gecko) Chrome/134.0.0.0 Safari/537.36","Macintosh","Chrome","134.0.0.0","OS X","10_15_7","https://hz8g1ckzuq.cognition.run/","en-US,en;q=0.9","016qz974d19ec38","56","[""White""]","No","Female","2335040.1000000006","null","","<p></p>","null","rating","tdc","repulsion_1","2","microwave ovens","null","null","null","null","null","null","2","","","","","","","","","",""
"","","","","","rating_trial","survey-html-form","12","445204","0.0-3.0-1.4","173","1","2025-04-14 14:29:19","bb671e3ae32f654b8954ea4c4635f915","","Mozilla/5.0 (Macintosh; Intel Mac OS X 10_15_7) AppleWebKit/537.36 (KHTML, like Gecko) Chrome/134.0.0.0 Safari/537.36","Macintosh","Chrome","134.0.0.0","OS X","10_15_7","https://hz8g1ckzuq.cognition.run/","en-US,en;q=0.9","016qz974d19ec38","56","[""White""]","No","Female","2335040.1000000006","26994","","","{""price_1"":""60"",""price_2"":""60"",""price_3"":""55""}","rating","tdc","repulsion_1","2","microwave ovens","null","null","null","null","null","null","2","30","40","25","100","90","100","Warranty","Cooking power","",""
"","","","","","rating_trial_setup","html-keyboard-response","13","445507","0.0-3.0-0.5","173","1","2025-04-14 14:29:19","bb671e3ae32f654b8954ea4c4635f915","","Mozilla/5.0 (Macintosh; Intel Mac OS X 10_15_7) AppleWebKit/537.36 (KHTML, like Gecko) Chrome/134.0.0.0 Safari/537.36","Macintosh","Chrome","134.0.0.0","OS X","10_15_7","https://hz8g1ckzuq.cognition.run/","en-US,en;q=0.9","016qz974d19ec38","56","[""White""]","No","Female","2335040.1000000006","null","","<p></p>","null","rating","tdc","repulsion_1","2","televisions","null","null","null","null","null","null","2","","","","","","","","","",""
"","","","","","rating_trial","survey-html-form","14","486668","0.0-3.0-1.5","173","1","2025-04-14 14:29:19","bb671e3ae32f654b8954ea4c4635f915","","Mozilla/5.0 (Macintosh; Intel Mac OS X 10_15_7) AppleWebKit/537.36 (KHTML, like Gecko) Chrome/134.0.0.0 Safari/537.36","Macintosh","Chrome","134.0.0.0","OS X","10_15_7","https://hz8g1ckzuq.cognition.run/","en-US,en;q=0.9","016qz974d19ec38","56","[""White""]","No","Female","2335040.1000000006","41159","","","{""price_1"":""100"",""price_2"":""90"",""price_3"":""100""}","rating","tdc","repulsion_1","2","televisions","null","null","null","null","null","null","2","30","40","25","100","90","100","Screen size","Average lifespan","",""
"","","","","","rating_trial_setup","html-keyboard-response","15","486971","0.0-3.0-0.6","173","1","2025-04-14 14:29:19","bb671e3ae32f654b8954ea4c4635f915","","Mozilla/5.0 (Macintosh; Intel Mac OS X 10_15_7) AppleWebKit/537.36 (KHTML, like Gecko) Chrome/134.0.0.0 Safari/537.36","Macintosh","Chrome","134.0.0.0","OS X","10_15_7","https://hz8g1ckzuq.cognition.run/","en-US,en;q=0.9","016qz974d19ec38","56","[""White""]","No","Female","2335040.1000000006","null","","<p></p>","null","rating","dtc","attraction_1","1","laptops","null","null","null","null","null","null","2","","","","","","","","","",""
"","","","","","rating_trial","survey-html-form","16","528297","0.0-3.0-1.6","173","1","2025-04-14 14:29:19","bb671e3ae32f654b8954ea4c4635f915","","Mozilla/5.0 (Macintosh; Intel Mac OS X 10_15_7) AppleWebKit/537.36 (KHTML, like Gecko) Chrome/134.0.0.0 Safari/537.36","Macintosh","Chrome","134.0.0.0","OS X","10_15_7","https://hz8g1ckzuq.cognition.run/","en-US,en;q=0.9","016qz974d19ec38","56","[""White""]","No","Female","2335040.1000000006","41324","","","{""price_1"":""300"",""price_2"":""400"",""price_3"":""350""}","rating","dtc","attraction_1","1","laptops","null","null","null","null","null","null","2","60","50","60","50","60","45","Processing speed","Memory (RAM)","",""
"","","","","","rating_trial_setup","html-keyboard-response","17","528601","0.0-3.0-0.7","173","1","2025-04-14 14:29:19","bb671e3ae32f654b8954ea4c4635f915","","Mozilla/5.0 (Macintosh; Intel Mac OS X 10_15_7) AppleWebKit/537.36 (KHTML, like Gecko) Chrome/134.0.0.0 Safari/537.36","Macintosh","Chrome","134.0.0.0","OS X","10_15_7","https://hz8g1ckzuq.cognition.run/","en-US,en;q=0.9","016qz974d19ec38","56","[""White""]","No","Female","2335040.1000000006","null","","<p></p>","null","rating","bww","catch","null","laptops","85","80","45","5","10","25","1","","","","","","","","","",""
"","","","","","rating_trial","survey-html-form","18","561609","0.0-3.0-1.7","173","1","2025-04-14 14:29:19","bb671e3ae32f654b8954ea4c4635f915","","Mozilla/5.0 (Macintosh; Intel Mac OS X 10_15_7) AppleWebKit/537.36 (KHTML, like Gecko) Chrome/134.0.0.0 Safari/537.36","Macintosh","Chrome","134.0.0.0","OS X","10_15_7","https://hz8g1ckzuq.cognition.run/","en-US,en;q=0.9","016qz974d19ec38","56","[""White""]","No","Female","2335040.1000000006","33007","","","{""price_1"":""500"",""price_2"":""300"",""price_3"":""275""}","rating","bww","catch","null","laptops","85","80","45","5","10","25","1","null","null","null","null","null","null","Processing speed","Memory (RAM)","",""
"","","","","","rating_trial_setup","html-keyboard-response","19","561913","0.0-3.0-0.8","173","1","2025-04-14 14:29:19","bb671e3ae32f654b8954ea4c4635f915","","Mozilla/5.0 (Macintosh; Intel Mac OS X 10_15_7) AppleWebKit/537.36 (KHTML, like Gecko) Chrome/134.0.0.0 Safari/537.36","Macintosh","Chrome","134.0.0.0","OS X","10_15_7","https://hz8g1ckzuq.cognition.run/","en-US,en;q=0.9","016qz974d19ec38","56","[""White""]","No","Female","2335040.1000000006","null","","<p></p>","null","rating","dtc","attraction_2","1","laptops","null","null","null","null","null","null","2","","","","","","","","","",""
"","","","","","rating_trial","survey-html-form","20","589950","0.0-3.0-1.8","173","1","2025-04-14 14:29:19","bb671e3ae32f654b8954ea4c4635f915","","Mozilla/5.0 (Macintosh; Intel Mac OS X 10_15_7) AppleWebKit/537.36 (KHTML, like Gecko) Chrome/134.0.0.0 Safari/537.36","Macintosh","Chrome","134.0.0.0","OS X","10_15_7","https://hz8g1ckzuq.cognition.run/","en-US,en;q=0.9","016qz974d19ec38","56","[""White""]","No","Female","2335040.1000000006","28035","","","{""price_1"":""500"",""price_2"":""550"",""price_3"":""550""}","rating","dtc","attraction_2","1","laptops","null","null","null","null","null","null","2","60","50","60","50","60","40","Processing speed","Memory (RAM)","",""
"","","","","","rating_trial_setup","html-keyboard-response","21","590253","0.0-3.0-0.9","173","1","2025-04-14 14:29:19","bb671e3ae32f654b8954ea4c4635f915","","Mozilla/5.0 (Macintosh; Intel Mac OS X 10_15_7) AppleWebKit/537.36 (KHTML, like Gecko) Chrome/134.0.0.0 Safari/537.36","Macintosh","Chrome","134.0.0.0","OS X","10_15_7","https://hz8g1ckzuq.cognition.run/","en-US,en;q=0.9","016qz974d19ec38","56","[""White""]","No","Female","2335040.1000000006","null","","<p></p>","null","rating","dct","attraction_2","2","televisions","null","null","null","null","null","null","2","","","","","","","","","",""
"","","","","","rating_trial","survey-html-form","22","622107","0.0-3.0-1.9","173","1","2025-04-14 14:29:19","bb671e3ae32f654b8954ea4c4635f915","","Mozilla/5.0 (Macintosh; Intel Mac OS X 10_15_7) AppleWebKit/537.36 (KHTML, like Gecko) Chrome/134.0.0.0 Safari/537.36","Macintosh","Chrome","134.0.0.0","OS X","10_15_7","https://hz8g1ckzuq.cognition.run/","en-US,en;q=0.9","016qz974d19ec38","56","[""White""]","No","Female","2335040.1000000006","31853","","","{""price_1"":""125"",""price_2"":""200"",""price_3"":""155""}","rating","dct","attraction_2","2","televisions","null","null","null","null","null","null","2","50","60","40","60","50","60","Screen size","Average lifespan","",""
"","","","","","rating_trial_setup","html-keyboard-response","23","622411","0.0-3.0-0.10","173","1","2025-04-14 14:29:19","bb671e3ae32f654b8954ea4c4635f915","","Mozilla/5.0 (Macintosh; Intel Mac OS X 10_15_7) AppleWebKit/537.36 (KHTML, like Gecko) Chrome/134.0.0.0 Safari/537.36","Macintosh","Chrome","134.0.0.0","OS X","10_15_7","https://hz8g1ckzuq.cognition.run/","en-US,en;q=0.9","016qz974d19ec38","56","[""White""]","No","Female","2335040.1000000006","null","","<p></p>","null","rating","ctd","repulsion_1","1","laptops","null","null","null","null","null","null","1","","","","","","","","","",""
"","","","","","rating_trial","survey-html-form","24","644638","0.0-3.0-1.10","173","1","2025-04-14 14:29:19","bb671e3ae32f654b8954ea4c4635f915","","Mozilla/5.0 (Macintosh; Intel Mac OS X 10_15_7) AppleWebKit/537.36 (KHTML, like Gecko) Chrome/134.0.0.0 Safari/537.36","Macintosh","Chrome","134.0.0.0","OS X","10_15_7","https://hz8g1ckzuq.cognition.run/","en-US,en;q=0.9","016qz974d19ec38","56","[""White""]","No","Female","2335040.1000000006","22225","","","{""price_1"":""500"",""price_2"":""400"",""price_3"":""355""}","rating","ctd","repulsion_1","1","laptops","null","null","null","null","null","null","1","100","90","100","30","40","25","Processing speed","Memory (RAM)","",""
"","","","","","rating_trial_setup","html-keyboard-response","25","644941","0.0-3.0-0.11","173","1","2025-04-14 14:29:19","bb671e3ae32f654b8954ea4c4635f915","","Mozilla/5.0 (Macintosh; Intel Mac OS X 10_15_7) AppleWebKit/537.36 (KHTML, like Gecko) Chrome/134.0.0.0 Safari/537.36","Macintosh","Chrome","134.0.0.0","OS X","10_15_7","https://hz8g1ckzuq.cognition.run/","en-US,en;q=0.9","016qz974d19ec38","56","[""White""]","No","Female","2335040.1000000006","null","","<p></p>","null","rating","dtc","attraction_2","1","microwave ovens","null","null","null","null","null","null","2","","","","","","","","","",""
"","","","","","rating_trial","survey-html-form","26","674908","0.0-3.0-1.11","173","1","2025-04-14 14:29:19","bb671e3ae32f654b8954ea4c4635f915","","Mozilla/5.0 (Macintosh; Intel Mac OS X 10_15_7) AppleWebKit/537.36 (KHTML, like Gecko) Chrome/134.0.0.0 Safari/537.36","Macintosh","Chrome","134.0.0.0","OS X","10_15_7","https://hz8g1ckzuq.cognition.run/","en-US,en;q=0.9","016qz974d19ec38","56","[""White""]","No","Female","2335040.1000000006","29965","","","{""price_1"":""50"",""price_2"":""55"",""price_3"":""60""}","rating","dtc","attraction_2","1","microwave ovens","null","null","null","null","null","null","2","60","50","60","50","60","40","Warranty","Cooking power","",""
"","","","","","rating_trial_setup","html-keyboard-response","27","675211","0.0-3.0-0.12","173","1","2025-04-14 14:29:19","bb671e3ae32f654b8954ea4c4635f915","","Mozilla/5.0 (Macintosh; Intel Mac OS X 10_15_7) AppleWebKit/537.36 (KHTML, like Gecko) Chrome/134.0.0.0 Safari/537.36","Macintosh","Chrome","134.0.0.0","OS X","10_15_7","https://hz8g1ckzuq.cognition.run/","en-US,en;q=0.9","016qz974d19ec38","56","[""White""]","No","Female","2335040.1000000006","null","","<p></p>","null","rating","cdt","repulsion_2","2","microwave ovens","null","null","null","null","null","null","1","","","","","","","","","",""
"","","","","","rating_trial","survey-html-form","28","698107","0.0-3.0-1.12","173","1","2025-04-14 14:29:19","bb671e3ae32f654b8954ea4c4635f915","","Mozilla/5.0 (Macintosh; Intel Mac OS X 10_15_7) AppleWebKit/537.36 (KHTML, like Gecko) Chrome/134.0.0.0 Safari/537.36","Macintosh","Chrome","134.0.0.0","OS X","10_15_7","https://hz8g1ckzuq.cognition.run/","en-US,en;q=0.9","016qz974d19ec38","56","[""White""]","No","Female","2335040.1000000006","22894","","","{""price_1"":""70"",""price_2"":""65"",""price_3"":""65""}","rating","cdt","repulsion_2","2","microwave ovens","null","null","null","null","null","null","1","30","40","20","100","90","100","Warranty","Cooking power","",""
"","","","","","rating_trial_setup","html-keyboard-response","29","698410","0.0-3.0-0.13","173","1","2025-04-14 14:29:19","bb671e3ae32f654b8954ea4c4635f915","","Mozilla/5.0 (Macintosh; Intel Mac OS X 10_15_7) AppleWebKit/537.36 (KHTML, like Gecko) Chrome/134.0.0.0 Safari/537.36","Macintosh","Chrome","134.0.0.0","OS X","10_15_7","https://hz8g1ckzuq.cognition.run/","en-US,en;q=0.9","016qz974d19ec38","56","[""White""]","No","Female","2335040.1000000006","null","","<p></p>","null","rating","dtc","repulsion_2","1","laptops","null","null","null","null","null","null","2","","","","","","","","","",""
"","","","","","rating_trial","survey-html-form","30","724656","0.0-3.0-1.13","173","1","2025-04-14 14:29:19","bb671e3ae32f654b8954ea4c4635f915","","Mozilla/5.0 (Macintosh; Intel Mac OS X 10_15_7) AppleWebKit/537.36 (KHTML, like Gecko) Chrome/134.0.0.0 Safari/537.36","Macintosh","Chrome","134.0.0.0","OS X","10_15_7","https://hz8g1ckzuq.cognition.run/","en-US,en;q=0.9","016qz974d19ec38","56","[""White""]","No","Female","2335040.1000000006","26243","","","{""price_1"":""300"",""price_2"":""400"",""price_3"":""500""}","rating","dtc","repulsion_2","1","laptops","null","null","null","null","null","null","2","100","90","100","30","40","20","Processing speed","Memory (RAM)","",""
"","","","","","rating_trial_setup","html-keyboard-response","31","724960","0.0-3.0-0.14","173","1","2025-04-14 14:29:19","bb671e3ae32f654b8954ea4c4635f915","","Mozilla/5.0 (Macintosh; Intel Mac OS X 10_15_7) AppleWebKit/537.36 (KHTML, like Gecko) Chrome/134.0.0.0 Safari/537.36","Macintosh","Chrome","134.0.0.0","OS X","10_15_7","https://hz8g1ckzuq.cognition.run/","en-US,en;q=0.9","016qz974d19ec38","56","[""White""]","No","Female","2335040.1000000006","null","","<p></p>","null","rating","wwb","catch","null","microwave ovens","50","60","45","45","5","35","1","","","","","","","","","",""
"","","","","","rating_trial","survey-html-form","32","750960","0.0-3.0-1.14","173","1","2025-04-14 14:29:19","bb671e3ae32f654b8954ea4c4635f915","","Mozilla/5.0 (Macintosh; Intel Mac OS X 10_15_7) AppleWebKit/537.36 (KHTML, like Gecko) Chrome/134.0.0.0 Safari/537.36","Macintosh","Chrome","134.0.0.0","OS X","10_15_7","https://hz8g1ckzuq.cognition.run/","en-US,en;q=0.9","016qz974d19ec38","56","[""White""]","No","Female","2335040.1000000006","25998","","","{""price_1"":""40"",""price_2"":""55"",""price_3"":""60""}","rating","wwb","catch","null","microwave ovens","50","60","45","45","5","35","1","null","null","null","null","null","null","Warranty","Cooking power","",""
"","","","","","rating_trial_setup","html-keyboard-response","33","751262","0.0-3.0-0.15","173","1","2025-04-14 14:29:19","bb671e3ae32f654b8954ea4c4635f915","","Mozilla/5.0 (Macintosh; Intel Mac OS X 10_15_7) AppleWebKit/537.36 (KHTML, like Gecko) Chrome/134.0.0.0 Safari/537.36","Macintosh","Chrome","134.0.0.0","OS X","10_15_7","https://hz8g1ckzuq.cognition.run/","en-US,en;q=0.9","016qz974d19ec38","56","[""White""]","No","Female","2335040.1000000006","null","","<p></p>","null","rating","bww","catch","null","washing machines","75","55","30","45","30","5","2","","","","","","","","","",""
"","","","","","rating_trial","survey-html-form","34","790445","0.0-3.0-1.15","173","1","2025-04-14 14:29:19","bb671e3ae32f654b8954ea4c4635f915","","Mozilla/5.0 (Macintosh; Intel Mac OS X 10_15_7) AppleWebKit/537.36 (KHTML, like Gecko) Chrome/134.0.0.0 Safari/537.36","Macintosh","Chrome","134.0.0.0","OS X","10_15_7","https://hz8g1ckzuq.cognition.run/","en-US,en;q=0.9","016qz974d19ec38","56","[""White""]","No","Female","2335040.1000000006","39181","","","{""price_1"":""500"",""price_2"":""399"",""price_3"":""300""}","rating","bww","catch","null","washing machines","75","55","30","45","30","5","2","null","null","null","null","null","null","Average lifespan","Energy savings","",""
"","","","","","rating_trial_setup","html-keyboard-response","35","790749","0.0-3.0-0.16","173","1","2025-04-14 14:29:19","bb671e3ae32f654b8954ea4c4635f915","","Mozilla/5.0 (Macintosh; Intel Mac OS X 10_15_7) AppleWebKit/537.36 (KHTML, like Gecko) Chrome/134.0.0.0 Safari/537.36","Macintosh","Chrome","134.0.0.0","OS X","10_15_7","https://hz8g1ckzuq.cognition.run/","en-US,en;q=0.9","016qz974d19ec38","56","[""White""]","No","Female","2335040.1000000006","null","","<p></p>","null","rating","cdt","attraction_2","1","televisions","null","null","null","null","null","null","1","","","","","","","","","",""
"","","","","","rating_trial","survey-html-form","36","826306","0.0-3.0-1.16","173","1","2025-04-14 14:29:19","bb671e3ae32f654b8954ea4c4635f915","","Mozilla/5.0 (Macintosh; Intel Mac OS X 10_15_7) AppleWebKit/537.36 (KHTML, like Gecko) Chrome/134.0.0.0 Safari/537.36","Macintosh","Chrome","134.0.0.0","OS X","10_15_7","https://hz8g1ckzuq.cognition.run/","en-US,en;q=0.9","016qz974d19ec38","56","[""White""]","No","Female","2335040.1000000006","35555","","","{""price_1"":""150"",""price_2"":""179"",""price_3"":""200""}","rating","cdt","attraction_2","1","televisions","null","null","null","null","null","null","1","60","50","60","50","60","40","Screen size","Average lifespan","",""
"","","","","","rating_trial_setup","html-keyboard-response","37","826610","0.0-3.0-0.17","173","1","2025-04-14 14:29:19","bb671e3ae32f654b8954ea4c4635f915","","Mozilla/5.0 (Macintosh; Intel Mac OS X 10_15_7) AppleWebKit/537.36 (KHTML, like Gecko) Chrome/134.0.0.0 Safari/537.36","Macintosh","Chrome","134.0.0.0","OS X","10_15_7","https://hz8g1ckzuq.cognition.run/","en-US,en;q=0.9","016qz974d19ec38","56","[""White""]","No","Female","2335040.1000000006","null","","<p></p>","null","rating","cdt","attraction_2","2","microwave ovens","null","null","null","null","null","null","1","","","","","","","","","",""
"","","","","","rating_trial","survey-html-form","38","849086","0.0-3.0-1.17","173","1","2025-04-14 14:29:19","bb671e3ae32f654b8954ea4c4635f915","","Mozilla/5.0 (Macintosh; Intel Mac OS X 10_15_7) AppleWebKit/537.36 (KHTML, like Gecko) Chrome/134.0.0.0 Safari/537.36","Macintosh","Chrome","134.0.0.0","OS X","10_15_7","https://hz8g1ckzuq.cognition.run/","en-US,en;q=0.9","016qz974d19ec38","56","[""White""]","No","Female","2335040.1000000006","22474","","","{""price_1"":""40"",""price_2"":""60"",""price_3"":""75""}","rating","cdt","attraction_2","2","microwave ovens","null","null","null","null","null","null","1","50","60","40","60","50","60","Warranty","Cooking power","",""
"","","","","","rating_trial_setup","html-keyboard-response","39","849389","0.0-3.0-0.18","173","1","2025-04-14 14:29:19","bb671e3ae32f654b8954ea4c4635f915","","Mozilla/5.0 (Macintosh; Intel Mac OS X 10_15_7) AppleWebKit/537.36 (KHTML, like Gecko) Chrome/134.0.0.0 Safari/537.36","Macintosh","Chrome","134.0.0.0","OS X","10_15_7","https://hz8g1ckzuq.cognition.run/","en-US,en;q=0.9","016qz974d19ec38","56","[""White""]","No","Female","2335040.1000000006","null","","<p></p>","null","rating","dtc","repulsion_2","2","washing machines","null","null","null","null","null","null","2","","","","","","","","","",""
"","","","","","rating_trial","survey-html-form","40","898059","0.0-3.0-1.18","173","1","2025-04-14 14:29:19","bb671e3ae32f654b8954ea4c4635f915","","Mozilla/5.0 (Macintosh; Intel Mac OS X 10_15_7) AppleWebKit/537.36 (KHTML, like Gecko) Chrome/134.0.0.0 Safari/537.36","Macintosh","Chrome","134.0.0.0","OS X","10_15_7","https://hz8g1ckzuq.cognition.run/","en-US,en;q=0.9","016qz974d19ec38","56","[""White""]","No","Female","2335040.1000000006","48668","","","{""price_1"":""450"",""price_2"":""499"",""price_3"":""600""}","rating","dtc","repulsion_2","2","washing machines","null","null","null","null","null","null","2","30","40","20","100","90","100","Average lifespan","Energy savings","",""
"","","","","","rating_trial_setup","html-keyboard-response","41","898363","0.0-3.0-0.19","173","1","2025-04-14 14:29:19","bb671e3ae32f654b8954ea4c4635f915","","Mozilla/5.0 (Macintosh; Intel Mac OS X 10_15_7) AppleWebKit/537.36 (KHTML, like Gecko) Chrome/134.0.0.0 Safari/537.36","Macintosh","Chrome","134.0.0.0","OS X","10_15_7","https://hz8g1ckzuq.cognition.run/","en-US,en;q=0.9","016qz974d19ec38","56","[""White""]","No","Female","2335040.1000000006","null","","<p></p>","null","rating","wwb","catch","null","microwave ovens","90","65","15","35","15","10","1","","","","","","","","","",""
"","","","","","rating_trial","survey-html-form","42","939402","0.0-3.0-1.19","173","1","2025-04-14 14:29:19","bb671e3ae32f654b8954ea4c4635f915","","Mozilla/5.0 (Macintosh; Intel Mac OS X 10_15_7) AppleWebKit/537.36 (KHTML, like Gecko) Chrome/134.0.0.0 Safari/537.36","Macintosh","Chrome","134.0.0.0","OS X","10_15_7","https://hz8g1ckzuq.cognition.run/","en-US,en;q=0.9","016qz974d19ec38","56","[""White""]","No","Female","2335040.1000000006","41036","","","{""price_1"":""50"",""price_2"":""40"",""price_3"":""75""}","rating","wwb","catch","null","microwave ovens","90","65","15","35","15","10","1","null","null","null","null","null","null","Warranty","Cooking power","",""
"","","","","","rating_trial_setup","html-keyboard-response","43","939706","0.0-3.0-0.20","173","1","2025-04-14 14:29:19","bb671e3ae32f654b8954ea4c4635f915","","Mozilla/5.0 (Macintosh; Intel Mac OS X 10_15_7) AppleWebKit/537.36 (KHTML, like Gecko) Chrome/134.0.0.0 Safari/537.36","Macintosh","Chrome","134.0.0.0","OS X","10_15_7","https://hz8g1ckzuq.cognition.run/","en-US,en;q=0.9","016qz974d19ec38","56","[""White""]","No","Female","2335040.1000000006","null","","<p></p>","null","rating","dct","repulsion_1","1","washing machines","null","null","null","null","null","null","1","","","","","","","","","",""
"","","","","","rating_trial","survey-html-form","44","1003925","0.0-3.0-1.20","173","1","2025-04-14 14:29:19","bb671e3ae32f654b8954ea4c4635f915","","Mozilla/5.0 (Macintosh; Intel Mac OS X 10_15_7) AppleWebKit/537.36 (KHTML, like Gecko) Chrome/134.0.0.0 Safari/537.36","Macintosh","Chrome","134.0.0.0","OS X","10_15_7","https://hz8g1ckzuq.cognition.run/","en-US,en;q=0.9","016qz974d19ec38","56","[""White""]","No","Female","2335040.1000000006","64216","","","{""price_1"":""399"",""price_2"":""429"",""price_3"":""400""}","rating","dct","repulsion_1","1","washing machines","null","null","null","null","null","null","1","100","90","100","30","40","25","Average lifespan","Energy savings","",""
"","","","","","rating_trial_setup","html-keyboard-response","45","1004229","0.0-3.0-0.21","173","1","2025-04-14 14:29:19","bb671e3ae32f654b8954ea4c4635f915","","Mozilla/5.0 (Macintosh; Intel Mac OS X 10_15_7) AppleWebKit/537.36 (KHTML, like Gecko) Chrome/134.0.0.0 Safari/537.36","Macintosh","Chrome","134.0.0.0","OS X","10_15_7","https://hz8g1ckzuq.cognition.run/","en-US,en;q=0.9","016qz974d19ec38","56","[""White""]","No","Female","2335040.1000000006","null","","<p></p>","null","rating","tdc","attraction_1","1","televisions","null","null","null","null","null","null","2","","","","","","","","","",""
"","","","","","rating_trial","survey-html-form","46","1044092","0.0-3.0-1.21","173","1","2025-04-14 14:29:19","bb671e3ae32f654b8954ea4c4635f915","","Mozilla/5.0 (Macintosh; Intel Mac OS X 10_15_7) AppleWebKit/537.36 (KHTML, like Gecko) Chrome/134.0.0.0 Safari/537.36","Macintosh","Chrome","134.0.0.0","OS X","10_15_7","https://hz8g1ckzuq.cognition.run/","en-US,en;q=0.9","016qz974d19ec38","56","[""White""]","No","Female","2335040.1000000006","39860","","","{""price_1"":""250"",""price_2"":""225"",""price_3"":""200""}","rating","tdc","attraction_1","1","televisions","null","null","null","null","null","null","2","60","50","60","50","60","45","Screen size","Average lifespan","",""
"","","","","","rating_trial_setup","html-keyboard-response","47","1044396","0.0-3.0-0.22","173","1","2025-04-14 14:29:19","bb671e3ae32f654b8954ea4c4635f915","","Mozilla/5.0 (Macintosh; Intel Mac OS X 10_15_7) AppleWebKit/537.36 (KHTML, like Gecko) Chrome/134.0.0.0 Safari/537.36","Macintosh","Chrome","134.0.0.0","OS X","10_15_7","https://hz8g1ckzuq.cognition.run/","en-US,en;q=0.9","016qz974d19ec38","56","[""White""]","No","Female","2335040.1000000006","null","","<p></p>","null","rating","ctd","attraction_1","1","washing machines","null","null","null","null","null","null","2","","","","","","","","","",""
"","","","","","rating_trial","survey-html-form","48","1077233","0.0-3.0-1.22","173","1","2025-04-14 14:29:19","bb671e3ae32f654b8954ea4c4635f915","","Mozilla/5.0 (Macintosh; Intel Mac OS X 10_15_7) AppleWebKit/537.36 (KHTML, like Gecko) Chrome/134.0.0.0 Safari/537.36","Macintosh","Chrome","134.0.0.0","OS X","10_15_7","https://hz8g1ckzuq.cognition.run/","en-US,en;q=0.9","016qz974d19ec38","56","[""White""]","No","Female","2335040.1000000006","32841","","","{""price_1"":""379"",""price_2"":""350"",""price_3"":""299""}","rating","ctd","attraction_1","1","washing machines","null","null","null","null","null","null","2","60","50","60","50","60","45","Average lifespan","Energy savings","",""
"","","","","","rating_trial_setup","html-keyboard-response","49","1077537","0.0-3.0-0.23","173","1","2025-04-14 14:29:19","bb671e3ae32f654b8954ea4c4635f915","","Mozilla/5.0 (Macintosh; Intel Mac OS X 10_15_7) AppleWebKit/537.36 (KHTML, like Gecko) Chrome/134.0.0.0 Safari/537.36","Macintosh","Chrome","134.0.0.0","OS X","10_15_7","https://hz8g1ckzuq.cognition.run/","en-US,en;q=0.9","016qz974d19ec38","56","[""White""]","No","Female","2335040.1000000006","null","","<p></p>","null","rating","cdt","repulsion_1","1","televisions","null","null","null","null","null","null","2","","","","","","","","","",""
"","","","","","rating_trial","survey-html-form","50","1131021","0.0-3.0-1.23","173","1","2025-04-14 14:29:19","bb671e3ae32f654b8954ea4c4635f915","","Mozilla/5.0 (Macintosh; Intel Mac OS X 10_15_7) AppleWebKit/537.36 (KHTML, like Gecko) Chrome/134.0.0.0 Safari/537.36","Macintosh","Chrome","134.0.0.0","OS X","10_15_7","https://hz8g1ckzuq.cognition.run/","en-US,en;q=0.9","016qz974d19ec38","56","[""White""]","No","Female","2335040.1000000006","53482","","","{""price_1"":""350"",""price_2"":""325"",""price_3"":""399""}","rating","cdt","repulsion_1","1","televisions","null","null","null","null","null","null","2","100","90","100","30","40","25","Screen size","Average lifespan","",""
"","","","","","rating_trial_setup","html-keyboard-response","51","1131325","0.0-3.0-0.24","173","1","2025-04-14 14:29:19","bb671e3ae32f654b8954ea4c4635f915","","Mozilla/5.0 (Macintosh; Intel Mac OS X 10_15_7) AppleWebKit/537.36 (KHTML, like Gecko) Chrome/134.0.0.0 Safari/537.36","Macintosh","Chrome","134.0.0.0","OS X","10_15_7","https://hz8g1ckzuq.cognition.run/","en-US,en;q=0.9","016qz974d19ec38","56","[""White""]","No","Female","2335040.1000000006","null","","<p></p>","null","rating","cdt","repulsion_1","2","laptops","null","null","null","null","null","null","2","","","","","","","","","",""
"","","","","","rating_trial","survey-html-form","52","1181808","0.0-3.0-1.24","173","1","2025-04-14 14:29:19","bb671e3ae32f654b8954ea4c4635f915","","Mozilla/5.0 (Macintosh; Intel Mac OS X 10_15_7) AppleWebKit/537.36 (KHTML, like Gecko) Chrome/134.0.0.0 Safari/537.36","Macintosh","Chrome","134.0.0.0","OS X","10_15_7","https://hz8g1ckzuq.cognition.run/","en-US,en;q=0.9","016qz974d19ec38","56","[""White""]","No","Female","2335040.1000000006","50480","","","{""price_1"":""450"",""price_2"":""450"",""price_3"":""599""}","rating","cdt","repulsion_1","2","laptops","null","null","null","null","null","null","2","30","40","25","100","90","100","Processing speed","Memory (RAM)","",""
"","","","","","rating_trial_setup","html-keyboard-response","53","1182112","0.0-3.0-0.25","173","1","2025-04-14 14:29:19","bb671e3ae32f654b8954ea4c4635f915","","Mozilla/5.0 (Macintosh; Intel Mac OS X 10_15_7) AppleWebKit/537.36 (KHTML, like Gecko) Chrome/134.0.0.0 Safari/537.36","Macintosh","Chrome","134.0.0.0","OS X","10_15_7","https://hz8g1ckzuq.cognition.run/","en-US,en;q=0.9","016qz974d19ec38","56","[""White""]","No","Female","2335040.1000000006","null","","<p></p>","null","rating","tdc","repulsion_1","1","microwave ovens","null","null","null","null","null","null","2","","","","","","","","","",""
"","","","","","rating_trial","survey-html-form","54","1211808","0.0-3.0-1.25","173","1","2025-04-14 14:29:19","bb671e3ae32f654b8954ea4c4635f915","","Mozilla/5.0 (Macintosh; Intel Mac OS X 10_15_7) AppleWebKit/537.36 (KHTML, like Gecko) Chrome/134.0.0.0 Safari/537.36","Macintosh","Chrome","134.0.0.0","OS X","10_15_7","https://hz8g1ckzuq.cognition.run/","en-US,en;q=0.9","016qz974d19ec38","56","[""White""]","No","Female","2335040.1000000006","29693","","","{""price_1"":""35"",""price_2"":""40"",""price_3"":""50""}","rating","tdc","repulsion_1","1","microwave ovens","null","null","null","null","null","null","2","100","90","100","30","40","25","Warranty","Cooking power","",""
"","","","","","rating_trial_setup","html-keyboard-response","55","1212112","0.0-3.0-0.26","173","1","2025-04-14 14:29:19","bb671e3ae32f654b8954ea4c4635f915","","Mozilla/5.0 (Macintosh; Intel Mac OS X 10_15_7) AppleWebKit/537.36 (KHTML, like Gecko) Chrome/134.0.0.0 Safari/537.36","Macintosh","Chrome","134.0.0.0","OS X","10_15_7","https://hz8g1ckzuq.cognition.run/","en-US,en;q=0.9","016qz974d19ec38","56","[""White""]","No","Female","2335040.1000000006","null","","<p></p>","null","rating","dct","attraction_2","2","laptops","null","null","null","null","null","null","1","","","","","","","","","",""
"","","","","","rating_trial","survey-html-form","56","1242473","0.0-3.0-1.26","173","1","2025-04-14 14:29:19","bb671e3ae32f654b8954ea4c4635f915","","Mozilla/5.0 (Macintosh; Intel Mac OS X 10_15_7) AppleWebKit/537.36 (KHTML, like Gecko) Chrome/134.0.0.0 Safari/537.36","Macintosh","Chrome","134.0.0.0","OS X","10_15_7","https://hz8g1ckzuq.cognition.run/","en-US,en;q=0.9","016qz974d19ec38","56","[""White""]","No","Female","2335040.1000000006","30358","","","{""price_1"":""399"",""price_2"":""350"",""price_3"":""450""}","rating","dct","attraction_2","2","laptops","null","null","null","null","null","null","1","50","60","40","60","50","60","Processing speed","Memory (RAM)","",""
"","","","","","rating_trial_setup","html-keyboard-response","57","1242776","0.0-3.0-0.27","173","1","2025-04-14 14:29:19","bb671e3ae32f654b8954ea4c4635f915","","Mozilla/5.0 (Macintosh; Intel Mac OS X 10_15_7) AppleWebKit/537.36 (KHTML, like Gecko) Chrome/134.0.0.0 Safari/537.36","Macintosh","Chrome","134.0.0.0","OS X","10_15_7","https://hz8g1ckzuq.cognition.run/","en-US,en;q=0.9","016qz974d19ec38","56","[""White""]","No","Female","2335040.1000000006","null","","<p></p>","null","rating","ctd","attraction_2","1","washing machines","null","null","null","null","null","null","1","","","","","","","","","",""
"","","","","","rating_trial","survey-html-form","58","1281198","0.0-3.0-1.27","173","1","2025-04-14 14:29:19","bb671e3ae32f654b8954ea4c4635f915","","Mozilla/5.0 (Macintosh; Intel Mac OS X 10_15_7) AppleWebKit/537.36 (KHTML, like Gecko) Chrome/134.0.0.0 Safari/537.36","Macintosh","Chrome","134.0.0.0","OS X","10_15_7","https://hz8g1ckzuq.cognition.run/","en-US,en;q=0.9","016qz974d19ec38","56","[""White""]","No","Female","2335040.1000000006","38418","","","{""price_1"":""400"",""price_2"":""375"",""price_3"":""350""}","rating","ctd","attraction_2","1","washing machines","null","null","null","null","null","null","1","60","50","60","50","60","40","Average lifespan","Energy savings","",""
"","","","","","rating_trial_setup","html-keyboard-response","59","1281502","0.0-3.0-0.28","173","1","2025-04-14 14:29:19","bb671e3ae32f654b8954ea4c4635f915","","Mozilla/5.0 (Macintosh; Intel Mac OS X 10_15_7) AppleWebKit/537.36 (KHTML, like Gecko) Chrome/134.0.0.0 Safari/537.36","Macintosh","Chrome","134.0.0.0","OS X","10_15_7","https://hz8g1ckzuq.cognition.run/","en-US,en;q=0.9","016qz974d19ec38","56","[""White""]","No","Female","2335040.1000000006","null","","<p></p>","null","rating","dtc","repulsion_2","1","televisions","null","null","null","null","null","null","2","","","","","","","","","",""
"","","","","","rating_trial","survey-html-form","60","1328178","0.0-3.0-1.28","173","1","2025-04-14 14:29:19","bb671e3ae32f654b8954ea4c4635f915","","Mozilla/5.0 (Macintosh; Intel Mac OS X 10_15_7) AppleWebKit/537.36 (KHTML, like Gecko) Chrome/134.0.0.0 Safari/537.36","Macintosh","Chrome","134.0.0.0","OS X","10_15_7","https://hz8g1ckzuq.cognition.run/","en-US,en;q=0.9","016qz974d19ec38","56","[""White""]","No","Female","2335040.1000000006","46673","","","{""price_1"":""350"",""price_2"":""379"",""price_3"":""400""}","rating","dtc","repulsion_2","1","televisions","null","null","null","null","null","null","2","100","90","100","30","40","20","Screen size","Average lifespan","",""
"","","","","","rating_trial_setup","html-keyboard-response","61","1328482","0.0-3.0-0.29","173","1","2025-04-14 14:29:19","bb671e3ae32f654b8954ea4c4635f915","","Mozilla/5.0 (Macintosh; Intel Mac OS X 10_15_7) AppleWebKit/537.36 (KHTML, like Gecko) Chrome/134.0.0.0 Safari/537.36","Macintosh","Chrome","134.0.0.0","OS X","10_15_7","https://hz8g1ckzuq.cognition.run/","en-US,en;q=0.9","016qz974d19ec38","56","[""White""]","No","Female","2335040.1000000006","null","","<p></p>","null","rating","tcd","repulsion_2","2","laptops","null","null","null","null","null","null","1","","","","","","","","","",""
"","","","","","rating_trial","survey-html-form","62","1355767","0.0-3.0-1.29","173","1","2025-04-14 14:29:19","bb671e3ae32f654b8954ea4c4635f915","","Mozilla/5.0 (Macintosh; Intel Mac OS X 10_15_7) AppleWebKit/537.36 (KHTML, like Gecko) Chrome/134.0.0.0 Safari/537.36","Macintosh","Chrome","134.0.0.0","OS X","10_15_7","https://hz8g1ckzuq.cognition.run/","en-US,en;q=0.9","016qz974d19ec38","56","[""White""]","No","Female","2335040.1000000006","27282","","","{""price_1"":""550"",""price_2"":""550"",""price_3"":""500""}","rating","tcd","repulsion_2","2","laptops","null","null","null","null","null","null","1","30","40","20","100","90","100","Processing speed","Memory (RAM)","",""
"","","","","","rating_trial_setup","html-keyboard-response","63","1356071","0.0-3.0-0.30","173","1","2025-04-14 14:29:19","bb671e3ae32f654b8954ea4c4635f915","","Mozilla/5.0 (Macintosh; Intel Mac OS X 10_15_7) AppleWebKit/537.36 (KHTML, like Gecko) Chrome/134.0.0.0 Safari/537.36","Macintosh","Chrome","134.0.0.0","OS X","10_15_7","https://hz8g1ckzuq.cognition.run/","en-US,en;q=0.9","016qz974d19ec38","56","[""White""]","No","Female","2335040.1000000006","null","","<p></p>","null","rating","tcd","repulsion_2","1","washing machines","null","null","null","null","null","null","1","","","","","","","","","",""
"","","","","","rating_trial","survey-html-form","64","1395902","0.0-3.0-1.30","173","1","2025-04-14 14:29:19","bb671e3ae32f654b8954ea4c4635f915","","Mozilla/5.0 (Macintosh; Intel Mac OS X 10_15_7) AppleWebKit/537.36 (KHTML, like Gecko) Chrome/134.0.0.0 Safari/537.36","Macintosh","Chrome","134.0.0.0","OS X","10_15_7","https://hz8g1ckzuq.cognition.run/","en-US,en;q=0.9","016qz974d19ec38","56","[""White""]","No","Female","2335040.1000000006","39828","","","{""price_1"":""400"",""price_2"":""440"",""price_3"":""400""}","rating","tcd","repulsion_2","1","washing machines","null","null","null","null","null","null","1","100","90","100","30","40","20","Average lifespan","Energy savings","",""
"","","","","","rating_trial_setup","html-keyboard-response","65","1396206","0.0-3.0-0.31","173","1","2025-04-14 14:29:19","bb671e3ae32f654b8954ea4c4635f915","","Mozilla/5.0 (Macintosh; Intel Mac OS X 10_15_7) AppleWebKit/537.36 (KHTML, like Gecko) Chrome/134.0.0.0 Safari/537.36","Macintosh","Chrome","134.0.0.0","OS X","10_15_7","https://hz8g1ckzuq.cognition.run/","en-US,en;q=0.9","016qz974d19ec38","56","[""White""]","No","Female","2335040.1000000006","null","","<p></p>","null","rating","cdt","attraction_2","2","washing machines","null","null","null","null","null","null","1","","","","","","","","","",""
"","","","","","rating_trial","survey-html-form","66","1420595","0.0-3.0-1.31","173","1","2025-04-14 14:29:19","bb671e3ae32f654b8954ea4c4635f915","","Mozilla/5.0 (Macintosh; Intel Mac OS X 10_15_7) AppleWebKit/537.36 (KHTML, like Gecko) Chrome/134.0.0.0 Safari/537.36","Macintosh","Chrome","134.0.0.0","OS X","10_15_7","https://hz8g1ckzuq.cognition.run/","en-US,en;q=0.9","016qz974d19ec38","56","[""White""]","No","Female","2335040.1000000006","24386","","","{""price_1"":""350"",""price_2"":""425"",""price_3"":""450""}","rating","cdt","attraction_2","2","washing machines","null","null","null","null","null","null","1","50","60","40","60","50","60","Average lifespan","Energy savings","",""
"","","","","","rating_trial_setup","html-keyboard-response","67","1420899","0.0-3.0-0.32","173","1","2025-04-14 14:29:19","bb671e3ae32f654b8954ea4c4635f915","","Mozilla/5.0 (Macintosh; Intel Mac OS X 10_15_7) AppleWebKit/537.36 (KHTML, like Gecko) Chrome/134.0.0.0 Safari/537.36","Macintosh","Chrome","134.0.0.0","OS X","10_15_7","https://hz8g1ckzuq.cognition.run/","en-US,en;q=0.9","016qz974d19ec38","56","[""White""]","No","Female","2335040.1000000006","null","","<p></p>","null","rating","wwb","catch","null","televisions","75","85","50","45","40","40","1","","","","","","","","","",""
"","","","","","rating_trial","survey-html-form","68","1462975","0.0-3.0-1.32","173","1","2025-04-14 14:29:19","bb671e3ae32f654b8954ea4c4635f915","","Mozilla/5.0 (Macintosh; Intel Mac OS X 10_15_7) AppleWebKit/537.36 (KHTML, like Gecko) Chrome/134.0.0.0 Safari/537.36","Macintosh","Chrome","134.0.0.0","OS X","10_15_7","https://hz8g1ckzuq.cognition.run/","en-US,en;q=0.9","016qz974d19ec38","56","[""White""]","No","Female","2335040.1000000006","42073","","","{""price_1"":""300"",""price_2"":""200"",""price_3"":""500""}","rating","wwb","catch","null","televisions","75","85","50","45","40","40","1","null","null","null","null","null","null","Screen size","Average lifespan","",""
"","","","","","rating_trial_setup","html-keyboard-response","69","1463280","0.0-3.0-0.33","173","1","2025-04-14 14:29:19","bb671e3ae32f654b8954ea4c4635f915","","Mozilla/5.0 (Macintosh; Intel Mac OS X 10_15_7) AppleWebKit/537.36 (KHTML, like Gecko) Chrome/134.0.0.0 Safari/537.36","Macintosh","Chrome","134.0.0.0","OS X","10_15_7","https://hz8g1ckzuq.cognition.run/","en-US,en;q=0.9","016qz974d19ec38","56","[""White""]","No","Female","2335040.1000000006","null","","<p></p>","null","rating","tcd","attraction_1","1","microwave ovens","null","null","null","null","null","null","1","","","","","","","","","",""
"","","","","","rating_trial","survey-html-form","70","1484699","0.0-3.0-1.33","173","1","2025-04-14 14:29:19","bb671e3ae32f654b8954ea4c4635f915","","Mozilla/5.0 (Macintosh; Intel Mac OS X 10_15_7) AppleWebKit/537.36 (KHTML, like Gecko) Chrome/134.0.0.0 Safari/537.36","Macintosh","Chrome","134.0.0.0","OS X","10_15_7","https://hz8g1ckzuq.cognition.run/","en-US,en;q=0.9","016qz974d19ec38","56","[""White""]","No","Female","2335040.1000000006","21416","","","{""price_1"":""50"",""price_2"":""60"",""price_3"":""45""}","rating","tcd","attraction_1","1","microwave ovens","null","null","null","null","null","null","1","60","50","60","50","60","45","Warranty","Cooking power","",""
"","","","","","rating_trial_setup","html-keyboard-response","71","1485004","0.0-3.0-0.34","173","1","2025-04-14 14:29:19","bb671e3ae32f654b8954ea4c4635f915","","Mozilla/5.0 (Macintosh; Intel Mac OS X 10_15_7) AppleWebKit/537.36 (KHTML, like Gecko) Chrome/134.0.0.0 Safari/537.36","Macintosh","Chrome","134.0.0.0","OS X","10_15_7","https://hz8g1ckzuq.cognition.run/","en-US,en;q=0.9","016qz974d19ec38","56","[""White""]","No","Female","2335040.1000000006","null","","<p></p>","null","rating","wbw","catch","null","televisions","85","75","10","5","45","50","2","","","","","","","","","",""
"","","","","","rating_trial","survey-html-form","72","1531192","0.0-3.0-1.34","173","1","2025-04-14 14:29:19","bb671e3ae32f654b8954ea4c4635f915","","Mozilla/5.0 (Macintosh; Intel Mac OS X 10_15_7) AppleWebKit/537.36 (KHTML, like Gecko) Chrome/134.0.0.0 Safari/537.36","Macintosh","Chrome","134.0.0.0","OS X","10_15_7","https://hz8g1ckzuq.cognition.run/","en-US,en;q=0.9","016qz974d19ec38","56","[""White""]","No","Female","2335040.1000000006","46185","","","{""price_1"":""50"",""price_2"":""375"",""price_3"":""150""}","rating","wbw","catch","null","televisions","85","75","10","5","45","50","2","null","null","null","null","null","null","Screen size","Average lifespan","",""
"","","","","","rating_trial_setup","html-keyboard-response","73","1531496","0.0-3.0-0.35","173","1","2025-04-14 14:29:19","bb671e3ae32f654b8954ea4c4635f915","","Mozilla/5.0 (Macintosh; Intel Mac OS X 10_15_7) AppleWebKit/537.36 (KHTML, like Gecko) Chrome/134.0.0.0 Safari/537.36","Macintosh","Chrome","134.0.0.0","OS X","10_15_7","https://hz8g1ckzuq.cognition.run/","en-US,en;q=0.9","016qz974d19ec38","56","[""White""]","No","Female","2335040.1000000006","null","","<p></p>","null","rating","dct","repulsion_2","2","televisions","null","null","null","null","null","null","1","","","","","","","","","",""
"","","","","","rating_trial","survey-html-form","74","1563386","0.0-3.0-1.35","173","1","2025-04-14 14:29:19","bb671e3ae32f654b8954ea4c4635f915","","Mozilla/5.0 (Macintosh; Intel Mac OS X 10_15_7) AppleWebKit/537.36 (KHTML, like Gecko) Chrome/134.0.0.0 Safari/537.36","Macintosh","Chrome","134.0.0.0","OS X","10_15_7","https://hz8g1ckzuq.cognition.run/","en-US,en;q=0.9","016qz974d19ec38","56","[""White""]","No","Female","2335040.1000000006","31887","","","{""price_1"":""75"",""price_2"":""85"",""price_3"":""80""}","rating","dct","repulsion_2","2","televisions","null","null","null","null","null","null","1","30","40","20","100","90","100","Screen size","Average lifespan","",""
"","","","","","rating_trial_setup","html-keyboard-response","75","1563690","0.0-3.0-0.36","173","1","2025-04-14 14:29:19","bb671e3ae32f654b8954ea4c4635f915","","Mozilla/5.0 (Macintosh; Intel Mac OS X 10_15_7) AppleWebKit/537.36 (KHTML, like Gecko) Chrome/134.0.0.0 Safari/537.36","Macintosh","Chrome","134.0.0.0","OS X","10_15_7","https://hz8g1ckzuq.cognition.run/","en-US,en;q=0.9","016qz974d19ec38","56","[""White""]","No","Female","2335040.1000000006","null","","<p></p>","null","rating","ctd","repulsion_1","2","washing machines","null","null","null","null","null","null","2","","","","","","","","","",""
"","","","","","rating_trial","survey-html-form","76","1596682","0.0-3.0-1.36","173","1","2025-04-14 14:29:19","bb671e3ae32f654b8954ea4c4635f915","","Mozilla/5.0 (Macintosh; Intel Mac OS X 10_15_7) AppleWebKit/537.36 (KHTML, like Gecko) Chrome/134.0.0.0 Safari/537.36","Macintosh","Chrome","134.0.0.0","OS X","10_15_7","https://hz8g1ckzuq.cognition.run/","en-US,en;q=0.9","016qz974d19ec38","56","[""White""]","No","Female","2335040.1000000006","32988","","","{""price_1"":""400"",""price_2"":""450"",""price_3"":""400""}","rating","ctd","repulsion_1","2","washing machines","null","null","null","null","null","null","2","30","40","25","100","90","100","Average lifespan","Energy savings","",""
"","","","","","rating_trial_setup","html-keyboard-response","77","1596987","0.0-3.0-0.37","173","1","2025-04-14 14:29:19","bb671e3ae32f654b8954ea4c4635f915","","Mozilla/5.0 (Macintosh; Intel Mac OS X 10_15_7) AppleWebKit/537.36 (KHTML, like Gecko) Chrome/134.0.0.0 Safari/537.36","Macintosh","Chrome","134.0.0.0","OS X","10_15_7","https://hz8g1ckzuq.cognition.run/","en-US,en;q=0.9","016qz974d19ec38","56","[""White""]","No","Female","2335040.1000000006","null","","<p></p>","null","rating","tdc","attraction_1","2","washing machines","null","null","null","null","null","null","1","","","","","","","","","",""
"","","","","","rating_trial","survey-html-form","78","1621630","0.0-3.0-1.37","173","1","2025-04-14 14:29:19","bb671e3ae32f654b8954ea4c4635f915","","Mozilla/5.0 (Macintosh; Intel Mac OS X 10_15_7) AppleWebKit/537.36 (KHTML, like Gecko) Chrome/134.0.0.0 Safari/537.36","Macintosh","Chrome","134.0.0.0","OS X","10_15_7","https://hz8g1ckzuq.cognition.run/","en-US,en;q=0.9","016qz974d19ec38","56","[""White""]","No","Female","2335040.1000000006","24639","","","{""price_1"":""400"",""price_2"":""430"",""price_3"":""350""}","rating","tdc","attraction_1","2","washing machines","null","null","null","null","null","null","1","50","60","45","60","50","60","Average lifespan","Energy savings","",""
"","","","","","rating_trial_setup","html-keyboard-response","79","1621935","0.0-3.0-0.38","173","1","2025-04-14 14:29:19","bb671e3ae32f654b8954ea4c4635f915","","Mozilla/5.0 (Macintosh; Intel Mac OS X 10_15_7) AppleWebKit/537.36 (KHTML, like Gecko) Chrome/134.0.0.0 Safari/537.36","Macintosh","Chrome","134.0.0.0","OS X","10_15_7","https://hz8g1ckzuq.cognition.run/","en-US,en;q=0.9","016qz974d19ec38","56","[""White""]","No","Female","2335040.1000000006","null","","<p></p>","null","rating","wbw","catch","null","laptops","65","75","5","35","40","10","1","","","","","","","","","",""
"","","","","","rating_trial","survey-html-form","80","1663206","0.0-3.0-1.38","173","1","2025-04-14 14:29:19","bb671e3ae32f654b8954ea4c4635f915","","Mozilla/5.0 (Macintosh; Intel Mac OS X 10_15_7) AppleWebKit/537.36 (KHTML, like Gecko) Chrome/134.0.0.0 Safari/537.36","Macintosh","Chrome","134.0.0.0","OS X","10_15_7","https://hz8g1ckzuq.cognition.run/","en-US,en;q=0.9","016qz974d19ec38","56","[""White""]","No","Female","2335040.1000000006","41268","","","{""price_1"":""277"",""price_2"":""450"",""price_3"":""250""}","rating","wbw","catch","null","laptops","65","75","5","35","40","10","1","null","null","null","null","null","null","Processing speed","Memory (RAM)","",""
"","","","","","rating_trial_setup","html-keyboard-response","81","1663511","0.0-3.0-0.39","173","1","2025-04-14 14:29:19","bb671e3ae32f654b8954ea4c4635f915","","Mozilla/5.0 (Macintosh; Intel Mac OS X 10_15_7) AppleWebKit/537.36 (KHTML, like Gecko) Chrome/134.0.0.0 Safari/537.36","Macintosh","Chrome","134.0.0.0","OS X","10_15_7","https://hz8g1ckzuq.cognition.run/","en-US,en;q=0.9","016qz974d19ec38","56","[""White""]","No","Female","2335040.1000000006","null","","<p></p>","null","rating","cdt","attraction_1","2","televisions","null","null","null","null","null","null","1","","","","","","","","","",""
"","","","","","rating_trial","survey-html-form","82","1699042","0.0-3.0-1.39","173","1","2025-04-14 14:29:19","bb671e3ae32f654b8954ea4c4635f915","","Mozilla/5.0 (Macintosh; Intel Mac OS X 10_15_7) AppleWebKit/537.36 (KHTML, like Gecko) Chrome/134.0.0.0 Safari/537.36","Macintosh","Chrome","134.0.0.0","OS X","10_15_7","https://hz8g1ckzuq.cognition.run/","en-US,en;q=0.9","016qz974d19ec38","56","[""White""]","No","Female","2335040.1000000006","35527","","","{""price_1"":""300"",""price_2"":""225"",""price_3"":""240""}","rating","cdt","attraction_1","2","televisions","null","null","null","null","null","null","1","50","60","45","60","50","60","Screen size","Average lifespan","",""
"","","","","","","instructions","83","1737186","0.0-4.0","173","1","2025-04-14 14:29:19","bb671e3ae32f654b8954ea4c4635f915","","Mozilla/5.0 (Macintosh; Intel Mac OS X 10_15_7) AppleWebKit/537.36 (KHTML, like Gecko) Chrome/134.0.0.0 Safari/537.36","Macintosh","Chrome","134.0.0.0","OS X","10_15_7","https://hz8g1ckzuq.cognition.run/","en-US,en;q=0.9","016qz974d19ec38","56","[""White""]","No","Female","2335040.1000000006","38141","[{""page_index"":0,""viewing_time"":1821},{""page_index"":1,""viewing_time"":1455},{""page_index"":2,""viewing_time"":2924},{""page_index"":3,""viewing_time"":6248},{""page_index"":4,""viewing_time"":6109},{""page_index"":5,""viewing_time"":4577},{""page_index"":6,""viewing_time"":9720},{""page_index"":7,""viewing_time"":5287}]","","","","","","","","","","","","","","","","","","","","","","","",""
"","","","","","choice_trial_setup","html-keyboard-response","84","1737492","0.0-5.0-0.0","173","1","2025-04-14 14:29:19","bb671e3ae32f654b8954ea4c4635f915","","Mozilla/5.0 (Macintosh; Intel Mac OS X 10_15_7) AppleWebKit/537.36 (KHTML, like Gecko) Chrome/134.0.0.0 Safari/537.36","Macintosh","Chrome","134.0.0.0","OS X","10_15_7","https://hz8g1ckzuq.cognition.run/","en-US,en;q=0.9","016qz974d19ec38","56","[""White""]","No","Female","2335040.1000000006","null","","<p></p>","null","choice","dct","repulsion_1","1","laptops","null","null","null","null","null","null","1","","","","","","","","","",""
"","","","","","choice_trial","survey-html-form","85","1746157","0.0-5.0-1.0","173","1","2025-04-14 14:29:19","bb671e3ae32f654b8954ea4c4635f915","","Mozilla/5.0 (Macintosh; Intel Mac OS X 10_15_7) AppleWebKit/537.36 (KHTML, like Gecko) Chrome/134.0.0.0 Safari/537.36","Macintosh","Chrome","134.0.0.0","OS X","10_15_7","https://hz8g1ckzuq.cognition.run/","en-US,en;q=0.9","016qz974d19ec38","56","[""White""]","No","Female","2335040.1000000006","8661","","","{""product_choice"":""B""}","choice","dct","repulsion_1","1","laptops","null","null","null","null","null","null","1","100","90","100","30","40","25","Processing speed","Memory (RAM)","",""
"","","","","","choice_trial_setup","html-keyboard-response","86","1746461","0.0-5.0-0.1","173","1","2025-04-14 14:29:19","bb671e3ae32f654b8954ea4c4635f915","","Mozilla/5.0 (Macintosh; Intel Mac OS X 10_15_7) AppleWebKit/537.36 (KHTML, like Gecko) Chrome/134.0.0.0 Safari/537.36","Macintosh","Chrome","134.0.0.0","OS X","10_15_7","https://hz8g1ckzuq.cognition.run/","en-US,en;q=0.9","016qz974d19ec38","56","[""White""]","No","Female","2335040.1000000006","null","","<p></p>","null","choice","cdt","repulsion_2","2","microwave ovens","null","null","null","null","null","null","1","","","","","","","","","",""
"","","","","","choice_trial","survey-html-form","87","1755243","0.0-5.0-1.1","173","1","2025-04-14 14:29:19","bb671e3ae32f654b8954ea4c4635f915","","Mozilla/5.0 (Macintosh; Intel Mac OS X 10_15_7) AppleWebKit/537.36 (KHTML, like Gecko) Chrome/134.0.0.0 Safari/537.36","Macintosh","Chrome","134.0.0.0","OS X","10_15_7","https://hz8g1ckzuq.cognition.run/","en-US,en;q=0.9","016qz974d19ec38","56","[""White""]","No","Female","2335040.1000000006","8777","","","{""product_choice"":""C""}","choice","cdt","repulsion_2","2","microwave ovens","null","null","null","null","null","null","1","30","40","20","100","90","100","Warranty","Cooking power","",""
"","","","","","choice_trial_setup","html-keyboard-response","88","1755549","0.0-5.0-0.2","173","1","2025-04-14 14:29:19","bb671e3ae32f654b8954ea4c4635f915","","Mozilla/5.0 (Macintosh; Intel Mac OS X 10_15_7) AppleWebKit/537.36 (KHTML, like Gecko) Chrome/134.0.0.0 Safari/537.36","Macintosh","Chrome","134.0.0.0","OS X","10_15_7","https://hz8g1ckzuq.cognition.run/","en-US,en;q=0.9","016qz974d19ec38","56","[""White""]","No","Female","2335040.1000000006","null","","<p></p>","null","choice","dct","repulsion_1","2","televisions","null","null","null","null","null","null","2","","","","","","","","","",""
"","","","","","choice_trial","survey-html-form","89","1763275","0.0-5.0-1.2","173","1","2025-04-14 14:29:19","bb671e3ae32f654b8954ea4c4635f915","","Mozilla/5.0 (Macintosh; Intel Mac OS X 10_15_7) AppleWebKit/537.36 (KHTML, like Gecko) Chrome/134.0.0.0 Safari/537.36","Macintosh","Chrome","134.0.0.0","OS X","10_15_7","https://hz8g1ckzuq.cognition.run/","en-US,en;q=0.9","016qz974d19ec38","56","[""White""]","No","Female","2335040.1000000006","7722","","","{""product_choice"":""B""}","choice","dct","repulsion_1","2","televisions","null","null","null","null","null","null","2","30","40","25","100","90","100","Screen size","Average lifespan","",""
"","","","","","choice_trial_setup","html-keyboard-response","90","1763580","0.0-5.0-0.3","173","1","2025-04-14 14:29:19","bb671e3ae32f654b8954ea4c4635f915","","Mozilla/5.0 (Macintosh; Intel Mac OS X 10_15_7) AppleWebKit/537.36 (KHTML, like Gecko) Chrome/134.0.0.0 Safari/537.36","Macintosh","Chrome","134.0.0.0","OS X","10_15_7","https://hz8g1ckzuq.cognition.run/","en-US,en;q=0.9","016qz974d19ec38","56","[""White""]","No","Female","2335040.1000000006","null","","<p></p>","null","choice","dct","attraction_1","1","microwave ovens","null","null","null","null","null","null","1","","","","","","","","","",""
"","","","","","choice_trial","survey-html-form","91","1775325","0.0-5.0-1.3","173","1","2025-04-14 14:29:19","bb671e3ae32f654b8954ea4c4635f915","","Mozilla/5.0 (Macintosh; Intel Mac OS X 10_15_7) AppleWebKit/537.36 (KHTML, like Gecko) Chrome/134.0.0.0 Safari/537.36","Macintosh","Chrome","134.0.0.0","OS X","10_15_7","https://hz8g1ckzuq.cognition.run/","en-US,en;q=0.9","016qz974d19ec38","56","[""White""]","No","Female","2335040.1000000006","11741","","","{""product_choice"":""B""}","choice","dct","attraction_1","1","microwave ovens","null","null","null","null","null","null","1","60","50","60","50","60","45","Warranty","Cooking power","",""
"","","","","","choice_trial_setup","html-keyboard-response","92","1775628","0.0-5.0-0.4","173","1","2025-04-14 14:29:19","bb671e3ae32f654b8954ea4c4635f915","","Mozilla/5.0 (Macintosh; Intel Mac OS X 10_15_7) AppleWebKit/537.36 (KHTML, like Gecko) Chrome/134.0.0.0 Safari/537.36","Macintosh","Chrome","134.0.0.0","OS X","10_15_7","https://hz8g1ckzuq.cognition.run/","en-US,en;q=0.9","016qz974d19ec38","56","[""White""]","No","Female","2335040.1000000006","null","","<p></p>","null","choice","bww","catch","null","washing machines","75","90","45","5","10","30","1","","","","","","","","","",""
"","","","","","choice_trial","survey-html-form","93","1781854","0.0-5.0-1.4","173","1","2025-04-14 14:29:19","bb671e3ae32f654b8954ea4c4635f915","","Mozilla/5.0 (Macintosh; Intel Mac OS X 10_15_7) AppleWebKit/537.36 (KHTML, like Gecko) Chrome/134.0.0.0 Safari/537.36","Macintosh","Chrome","134.0.0.0","OS X","10_15_7","https://hz8g1ckzuq.cognition.run/","en-US,en;q=0.9","016qz974d19ec38","56","[""White""]","No","Female","2335040.1000000006","6221","","","{""product_choice"":""A""}","choice","bww","catch","null","washing machines","75","90","45","5","10","30","1","null","null","null","null","null","null","Average lifespan","Energy savings","",""
"","","","","","choice_trial_setup","html-keyboard-response","94","1782159","0.0-5.0-0.5","173","1","2025-04-14 14:29:19","bb671e3ae32f654b8954ea4c4635f915","","Mozilla/5.0 (Macintosh; Intel Mac OS X 10_15_7) AppleWebKit/537.36 (KHTML, like Gecko) Chrome/134.0.0.0 Safari/537.36","Macintosh","Chrome","134.0.0.0","OS X","10_15_7","https://hz8g1ckzuq.cognition.run/","en-US,en;q=0.9","016qz974d19ec38","56","[""White""]","No","Female","2335040.1000000006","null","","<p></p>","null","choice","dtc","attraction_2","1","televisions","null","null","null","null","null","null","1","","","","","","","","","",""
"","","","","","choice_trial","survey-html-form","95","1791796","0.0-5.0-1.5","173","1","2025-04-14 14:29:19","bb671e3ae32f654b8954ea4c4635f915","","Mozilla/5.0 (Macintosh; Intel Mac OS X 10_15_7) AppleWebKit/537.36 (KHTML, like Gecko) Chrome/134.0.0.0 Safari/537.36","Macintosh","Chrome","134.0.0.0","OS X","10_15_7","https://hz8g1ckzuq.cognition.run/","en-US,en;q=0.9","016qz974d19ec38","56","[""White""]","No","Female","2335040.1000000006","9633","","","{""product_choice"":""B""}","choice","dtc","attraction_2","1","televisions","null","null","null","null","null","null","1","60","50","60","50","60","40","Screen size","Average lifespan","",""
"","","","","","choice_trial_setup","html-keyboard-response","96","1792100","0.0-5.0-0.6","173","1","2025-04-14 14:29:19","bb671e3ae32f654b8954ea4c4635f915","","Mozilla/5.0 (Macintosh; Intel Mac OS X 10_15_7) AppleWebKit/537.36 (KHTML, like Gecko) Chrome/134.0.0.0 Safari/537.36","Macintosh","Chrome","134.0.0.0","OS X","10_15_7","https://hz8g1ckzuq.cognition.run/","en-US,en;q=0.9","016qz974d19ec38","56","[""White""]","No","Female","2335040.1000000006","null","","<p></p>","null","choice","cdt","attraction_1","1","washing machines","null","null","null","null","null","null","2","","","","","","","","","",""
"","","","","","choice_trial","survey-html-form","97","1800719","0.0-5.0-1.6","173","1","2025-04-14 14:29:19","bb671e3ae32f654b8954ea4c4635f915","","Mozilla/5.0 (Macintosh; Intel Mac OS X 10_15_7) AppleWebKit/537.36 (KHTML, like Gecko) Chrome/134.0.0.0 Safari/537.36","Macintosh","Chrome","134.0.0.0","OS X","10_15_7","https://hz8g1ckzuq.cognition.run/","en-US,en;q=0.9","016qz974d19ec38","56","[""White""]","No","Female","2335040.1000000006","8613","","","{""product_choice"":""A""}","choice","cdt","attraction_1","1","washing machines","null","null","null","null","null","null","2","60","50","60","50","60","45","Average lifespan","Energy savings","",""
"","","","","","choice_trial_setup","html-keyboard-response","98","1801024","0.0-5.0-0.7","173","1","2025-04-14 14:29:19","bb671e3ae32f654b8954ea4c4635f915","","Mozilla/5.0 (Macintosh; Intel Mac OS X 10_15_7) AppleWebKit/537.36 (KHTML, like Gecko) Chrome/134.0.0.0 Safari/537.36","Macintosh","Chrome","134.0.0.0","OS X","10_15_7","https://hz8g1ckzuq.cognition.run/","en-US,en;q=0.9","016qz974d19ec38","56","[""White""]","No","Female","2335040.1000000006","null","","<p></p>","null","choice","dct","repulsion_2","1","washing machines","null","null","null","null","null","null","1","","","","","","","","","",""
"","","","","","choice_trial","survey-html-form","99","1807678","0.0-5.0-1.7","173","1","2025-04-14 14:29:19","bb671e3ae32f654b8954ea4c4635f915","","Mozilla/5.0 (Macintosh; Intel Mac OS X 10_15_7) AppleWebKit/537.36 (KHTML, like Gecko) Chrome/134.0.0.0 Safari/537.36","Macintosh","Chrome","134.0.0.0","OS X","10_15_7","https://hz8g1ckzuq.cognition.run/","en-US,en;q=0.9","016qz974d19ec38","56","[""White""]","No","Female","2335040.1000000006","6650","","","{""product_choice"":""B""}","choice","dct","repulsion_2","1","washing machines","null","null","null","null","null","null","1","100","90","100","30","40","20","Average lifespan","Energy savings","",""
"","","","","","choice_trial_setup","html-keyboard-response","100","1807984","0.0-5.0-0.8","173","1","2025-04-14 14:29:19","bb671e3ae32f654b8954ea4c4635f915","","Mozilla/5.0 (Macintosh; Intel Mac OS X 10_15_7) AppleWebKit/537.36 (KHTML, like Gecko) Chrome/134.0.0.0 Safari/537.36","Macintosh","Chrome","134.0.0.0","OS X","10_15_7","https://hz8g1ckzuq.cognition.run/","en-US,en;q=0.9","016qz974d19ec38","56","[""White""]","No","Female","2335040.1000000006","null","","<p></p>","null","choice","tcd","attraction_1","2","laptops","null","null","null","null","null","null","1","","","","","","","","","",""
"","","","","","choice_trial","survey-html-form","101","1815324","0.0-5.0-1.8","173","1","2025-04-14 14:29:19","bb671e3ae32f654b8954ea4c4635f915","","Mozilla/5.0 (Macintosh; Intel Mac OS X 10_15_7) AppleWebKit/537.36 (KHTML, like Gecko) Chrome/134.0.0.0 Safari/537.36","Macintosh","Chrome","134.0.0.0","OS X","10_15_7","https://hz8g1ckzuq.cognition.run/","en-US,en;q=0.9","016qz974d19ec38","56","[""White""]","No","Female","2335040.1000000006","7336","","","{""product_choice"":""A""}","choice","tcd","attraction_1","2","laptops","null","null","null","null","null","null","1","50","60","45","60","50","60","Processing speed","Memory (RAM)","",""
"","","","","","choice_trial_setup","html-keyboard-response","102","1815630","0.0-5.0-0.9","173","1","2025-04-14 14:29:19","bb671e3ae32f654b8954ea4c4635f915","","Mozilla/5.0 (Macintosh; Intel Mac OS X 10_15_7) AppleWebKit/537.36 (KHTML, like Gecko) Chrome/134.0.0.0 Safari/537.36","Macintosh","Chrome","134.0.0.0","OS X","10_15_7","https://hz8g1ckzuq.cognition.run/","en-US,en;q=0.9","016qz974d19ec38","56","[""White""]","No","Female","2335040.1000000006","null","","<p></p>","null","choice","wbw","catch","null","televisions","60","60","20","40","15","50","1","","","","","","","","","",""
"","","","","","choice_trial","survey-html-form","103","1829355","0.0-5.0-1.9","173","1","2025-04-14 14:29:19","bb671e3ae32f654b8954ea4c4635f915","","Mozilla/5.0 (Macintosh; Intel Mac OS X 10_15_7) AppleWebKit/537.36 (KHTML, like Gecko) Chrome/134.0.0.0 Safari/537.36","Macintosh","Chrome","134.0.0.0","OS X","10_15_7","https://hz8g1ckzuq.cognition.run/","en-US,en;q=0.9","016qz974d19ec38","56","[""White""]","No","Female","2335040.1000000006","13721","","","{""product_choice"":""B""}","choice","wbw","catch","null","televisions","60","60","20","40","15","50","1","null","null","null","null","null","null","Screen size","Average lifespan","",""
"","","","","","choice_trial_setup","html-keyboard-response","104","1829660","0.0-5.0-0.10","173","1","2025-04-14 14:29:19","bb671e3ae32f654b8954ea4c4635f915","","Mozilla/5.0 (Macintosh; Intel Mac OS X 10_15_7) AppleWebKit/537.36 (KHTML, like Gecko) Chrome/134.0.0.0 Safari/537.36","Macintosh","Chrome","134.0.0.0","OS X","10_15_7","https://hz8g1ckzuq.cognition.run/","en-US,en;q=0.9","016qz974d19ec38","56","[""White""]","No","Female","2335040.1000000006","null","","<p></p>","null","choice","wbw","catch","null","laptops","70","55","50","45","45","40","1","","","","","","","","","",""
"","","","","","choice_trial","survey-html-form","105","1837309","0.0-5.0-1.10","173","1","2025-04-14 14:29:19","bb671e3ae32f654b8954ea4c4635f915","","Mozilla/5.0 (Macintosh; Intel Mac OS X 10_15_7) AppleWebKit/537.36 (KHTML, like Gecko) Chrome/134.0.0.0 Safari/537.36","Macintosh","Chrome","134.0.0.0","OS X","10_15_7","https://hz8g1ckzuq.cognition.run/","en-US,en;q=0.9","016qz974d19ec38","56","[""White""]","No","Female","2335040.1000000006","7644","","","{""product_choice"":""B""}","choice","wbw","catch","null","laptops","70","55","50","45","45","40","1","null","null","null","null","null","null","Processing speed","Memory (RAM)","",""
"","","","","","choice_trial_setup","html-keyboard-response","106","1837613","0.0-5.0-0.11","173","1","2025-04-14 14:29:19","bb671e3ae32f654b8954ea4c4635f915","","Mozilla/5.0 (Macintosh; Intel Mac OS X 10_15_7) AppleWebKit/537.36 (KHTML, like Gecko) Chrome/134.0.0.0 Safari/537.36","Macintosh","Chrome","134.0.0.0","OS X","10_15_7","https://hz8g1ckzuq.cognition.run/","en-US,en;q=0.9","016qz974d19ec38","56","[""White""]","No","Female","2335040.1000000006","null","","<p></p>","null","choice","tdc","attraction_2","1","washing machines","null","null","null","null","null","null","1","","","","","","","","","",""
"","","","","","choice_trial","survey-html-form","107","1852551","0.0-5.0-1.11","173","1","2025-04-14 14:29:19","bb671e3ae32f654b8954ea4c4635f915","","Mozilla/5.0 (Macintosh; Intel Mac OS X 10_15_7) AppleWebKit/537.36 (KHTML, like Gecko) Chrome/134.0.0.0 Safari/537.36","Macintosh","Chrome","134.0.0.0","OS X","10_15_7","https://hz8g1ckzuq.cognition.run/","en-US,en;q=0.9","016qz974d19ec38","56","[""White""]","No","Female","2335040.1000000006","14933","","","{""product_choice"":""C""}","choice","tdc","attraction_2","1","washing machines","null","null","null","null","null","null","1","60","50","60","50","60","40","Average lifespan","Energy savings","",""
"","","","","","choice_trial_setup","html-keyboard-response","108","1852856","0.0-5.0-0.12","173","1","2025-04-14 14:29:19","bb671e3ae32f654b8954ea4c4635f915","","Mozilla/5.0 (Macintosh; Intel Mac OS X 10_15_7) AppleWebKit/537.36 (KHTML, like Gecko) Chrome/134.0.0.0 Safari/537.36","Macintosh","Chrome","134.0.0.0","OS X","10_15_7","https://hz8g1ckzuq.cognition.run/","en-US,en;q=0.9","016qz974d19ec38","56","[""White""]","No","Female","2335040.1000000006","null","","<p></p>","null","choice","ctd","repulsion_1","2","microwave ovens","null","null","null","null","null","null","1","","","","","","","","","",""
"","","","","","choice_trial","survey-html-form","109","1861935","0.0-5.0-1.12","173","1","2025-04-14 14:29:19","bb671e3ae32f654b8954ea4c4635f915","","Mozilla/5.0 (Macintosh; Intel Mac OS X 10_15_7) AppleWebKit/537.36 (KHTML, like Gecko) Chrome/134.0.0.0 Safari/537.36","Macintosh","Chrome","134.0.0.0","OS X","10_15_7","https://hz8g1ckzuq.cognition.run/","en-US,en;q=0.9","016qz974d19ec38","56","[""White""]","No","Female","2335040.1000000006","9074","","","{""product_choice"":""B""}","choice","ctd","repulsion_1","2","microwave ovens","null","null","null","null","null","null","1","30","40","25","100","90","100","Warranty","Cooking power","",""
"","","","","","choice_trial_setup","html-keyboard-response","110","1862241","0.0-5.0-0.13","173","1","2025-04-14 14:29:19","bb671e3ae32f654b8954ea4c4635f915","","Mozilla/5.0 (Macintosh; Intel Mac OS X 10_15_7) AppleWebKit/537.36 (KHTML, like Gecko) Chrome/134.0.0.0 Safari/537.36","Macintosh","Chrome","134.0.0.0","OS X","10_15_7","https://hz8g1ckzuq.cognition.run/","en-US,en;q=0.9","016qz974d19ec38","56","[""White""]","No","Female","2335040.1000000006","null","","<p></p>","null","choice","tcd","attraction_2","2","televisions","null","null","null","null","null","null","1","","","","","","","","","",""
"","","","","","choice_trial","survey-html-form","111","1874594","0.0-5.0-1.13","173","1","2025-04-14 14:29:19","bb671e3ae32f654b8954ea4c4635f915","","Mozilla/5.0 (Macintosh; Intel Mac OS X 10_15_7) AppleWebKit/537.36 (KHTML, like Gecko) Chrome/134.0.0.0 Safari/537.36","Macintosh","Chrome","134.0.0.0","OS X","10_15_7","https://hz8g1ckzuq.cognition.run/","en-US,en;q=0.9","016qz974d19ec38","56","[""White""]","No","Female","2335040.1000000006","12349","","","{""product_choice"":""A""}","choice","tcd","attraction_2","2","televisions","null","null","null","null","null","null","1","50","60","40","60","50","60","Screen size","Average lifespan","",""
"","","","","","choice_trial_setup","html-keyboard-response","112","1874899","0.0-5.0-0.14","173","1","2025-04-14 14:29:19","bb671e3ae32f654b8954ea4c4635f915","","Mozilla/5.0 (Macintosh; Intel Mac OS X 10_15_7) AppleWebKit/537.36 (KHTML, like Gecko) Chrome/134.0.0.0 Safari/537.36","Macintosh","Chrome","134.0.0.0","OS X","10_15_7","https://hz8g1ckzuq.cognition.run/","en-US,en;q=0.9","016qz974d19ec38","56","[""White""]","No","Female","2335040.1000000006","null","","<p></p>","null","choice","tdc","attraction_2","1","laptops","null","null","null","null","null","null","1","","","","","","","","","",""
"","","","","","choice_trial","survey-html-form","113","1885234","0.0-5.0-1.14","173","1","2025-04-14 14:29:19","bb671e3ae32f654b8954ea4c4635f915","","Mozilla/5.0 (Macintosh; Intel Mac OS X 10_15_7) AppleWebKit/537.36 (KHTML, like Gecko) Chrome/134.0.0.0 Safari/537.36","Macintosh","Chrome","134.0.0.0","OS X","10_15_7","https://hz8g1ckzuq.cognition.run/","en-US,en;q=0.9","016qz974d19ec38","56","[""White""]","No","Female","2335040.1000000006","10331","","","{""product_choice"":""C""}","choice","tdc","attraction_2","1","laptops","null","null","null","null","null","null","1","60","50","60","50","60","40","Processing speed","Memory (RAM)","",""
"","","","","","choice_trial_setup","html-keyboard-response","114","1885539","0.0-5.0-0.15","173","1","2025-04-14 14:29:19","bb671e3ae32f654b8954ea4c4635f915","","Mozilla/5.0 (Macintosh; Intel Mac OS X 10_15_7) AppleWebKit/537.36 (KHTML, like Gecko) Chrome/134.0.0.0 Safari/537.36","Macintosh","Chrome","134.0.0.0","OS X","10_15_7","https://hz8g1ckzuq.cognition.run/","en-US,en;q=0.9","016qz974d19ec38","56","[""White""]","No","Female","2335040.1000000006","null","","<p></p>","null","choice","wbw","catch","null","washing machines","60","55","5","15","10","45","2","","","","","","","","","",""
"","","","","","choice_trial","survey-html-form","115","1892728","0.0-5.0-1.15","173","1","2025-04-14 14:29:19","bb671e3ae32f654b8954ea4c4635f915","","Mozilla/5.0 (Macintosh; Intel Mac OS X 10_15_7) AppleWebKit/537.36 (KHTML, like Gecko) Chrome/134.0.0.0 Safari/537.36","Macintosh","Chrome","134.0.0.0","OS X","10_15_7","https://hz8g1ckzuq.cognition.run/","en-US,en;q=0.9","016qz974d19ec38","56","[""White""]","No","Female","2335040.1000000006","7184","","","{""product_choice"":""B""}","choice","wbw","catch","null","washing machines","60","55","5","15","10","45","2","null","null","null","null","null","null","Average lifespan","Energy savings","",""
"","","","","","choice_trial_setup","html-keyboard-response","116","1893032","0.0-5.0-0.16","173","1","2025-04-14 14:29:19","bb671e3ae32f654b8954ea4c4635f915","","Mozilla/5.0 (Macintosh; Intel Mac OS X 10_15_7) AppleWebKit/537.36 (KHTML, like Gecko) Chrome/134.0.0.0 Safari/537.36","Macintosh","Chrome","134.0.0.0","OS X","10_15_7","https://hz8g1ckzuq.cognition.run/","en-US,en;q=0.9","016qz974d19ec38","56","[""White""]","No","Female","2335040.1000000006","null","","<p></p>","null","choice","ctd","repulsion_1","1","televisions","null","null","null","null","null","null","2","","","","","","","","","",""
"","","","","","choice_trial","survey-html-form","117","1904783","0.0-5.0-1.16","173","1","2025-04-14 14:29:19","bb671e3ae32f654b8954ea4c4635f915","","Mozilla/5.0 (Macintosh; Intel Mac OS X 10_15_7) AppleWebKit/537.36 (KHTML, like Gecko) Chrome/134.0.0.0 Safari/537.36","Macintosh","Chrome","134.0.0.0","OS X","10_15_7","https://hz8g1ckzuq.cognition.run/","en-US,en;q=0.9","016qz974d19ec38","56","[""White""]","No","Female","2335040.1000000006","11746","","","{""product_choice"":""A""}","choice","ctd","repulsion_1","1","televisions","null","null","null","null","null","null","2","100","90","100","30","40","25","Screen size","Average lifespan","",""
"","","","","","choice_trial_setup","html-keyboard-response","118","1905089","0.0-5.0-0.17","173","1","2025-04-14 14:29:19","bb671e3ae32f654b8954ea4c4635f915","","Mozilla/5.0 (Macintosh; Intel Mac OS X 10_15_7) AppleWebKit/537.36 (KHTML, like Gecko) Chrome/134.0.0.0 Safari/537.36","Macintosh","Chrome","134.0.0.0","OS X","10_15_7","https://hz8g1ckzuq.cognition.run/","en-US,en;q=0.9","016qz974d19ec38","56","[""White""]","No","Female","2335040.1000000006","null","","<p></p>","null","choice","dct","repulsion_1","1","washing machines","null","null","null","null","null","null","2","","","","","","","","","",""
"","","","","","choice_trial","survey-html-form","119","1916087","0.0-5.0-1.17","173","1","2025-04-14 14:29:19","bb671e3ae32f654b8954ea4c4635f915","","Mozilla/5.0 (Macintosh; Intel Mac OS X 10_15_7) AppleWebKit/537.36 (KHTML, like Gecko) Chrome/134.0.0.0 Safari/537.36","Macintosh","Chrome","134.0.0.0","OS X","10_15_7","https://hz8g1ckzuq.cognition.run/","en-US,en;q=0.9","016qz974d19ec38","56","[""White""]","No","Female","2335040.1000000006","10993","","","{""product_choice"":""B""}","choice","dct","repulsion_1","1","washing machines","null","null","null","null","null","null","2","100","90","100","30","40","25","Average lifespan","Energy savings","",""
"","","","","","choice_trial_setup","html-keyboard-response","120","1916392","0.0-5.0-0.18","173","1","2025-04-14 14:29:19","bb671e3ae32f654b8954ea4c4635f915","","Mozilla/5.0 (Macintosh; Intel Mac OS X 10_15_7) AppleWebKit/537.36 (KHTML, like Gecko) Chrome/134.0.0.0 Safari/537.36","Macintosh","Chrome","134.0.0.0","OS X","10_15_7","https://hz8g1ckzuq.cognition.run/","en-US,en;q=0.9","016qz974d19ec38","56","[""White""]","No","Female","2335040.1000000006","null","","<p></p>","null","choice","tcd","attraction_1","1","televisions","null","null","null","null","null","null","2","","","","","","","","","",""
"","","","","","choice_trial","survey-html-form","121","1924602","0.0-5.0-1.18","173","1","2025-04-14 14:29:19","bb671e3ae32f654b8954ea4c4635f915","","Mozilla/5.0 (Macintosh; Intel Mac OS X 10_15_7) AppleWebKit/537.36 (KHTML, like Gecko) Chrome/134.0.0.0 Safari/537.36","Macintosh","Chrome","134.0.0.0","OS X","10_15_7","https://hz8g1ckzuq.cognition.run/","en-US,en;q=0.9","016qz974d19ec38","56","[""White""]","No","Female","2335040.1000000006","8205","","","{""product_choice"":""A""}","choice","tcd","attraction_1","1","televisions","null","null","null","null","null","null","2","60","50","60","50","60","45","Screen size","Average lifespan","",""
"","","","","","choice_trial_setup","html-keyboard-response","122","1924908","0.0-5.0-0.19","173","1","2025-04-14 14:29:19","bb671e3ae32f654b8954ea4c4635f915","","Mozilla/5.0 (Macintosh; Intel Mac OS X 10_15_7) AppleWebKit/537.36 (KHTML, like Gecko) Chrome/134.0.0.0 Safari/537.36","Macintosh","Chrome","134.0.0.0","OS X","10_15_7","https://hz8g1ckzuq.cognition.run/","en-US,en;q=0.9","016qz974d19ec38","56","[""White""]","No","Female","2335040.1000000006","null","","<p></p>","null","choice","wbw","catch","null","televisions","50","55","25","45","15","45","2","","","","","","","","","",""
"","","","","","choice_trial","survey-html-form","123","1931847","0.0-5.0-1.19","173","1","2025-04-14 14:29:19","bb671e3ae32f654b8954ea4c4635f915","","Mozilla/5.0 (Macintosh; Intel Mac OS X 10_15_7) AppleWebKit/537.36 (KHTML, like Gecko) Chrome/134.0.0.0 Safari/537.36","Macintosh","Chrome","134.0.0.0","OS X","10_15_7","https://hz8g1ckzuq.cognition.run/","en-US,en;q=0.9","016qz974d19ec38","56","[""White""]","No","Female","2335040.1000000006","6934","","","{""product_choice"":""B""}","choice","wbw","catch","null","televisions","50","55","25","45","15","45","2","null","null","null","null","null","null","Screen size","Average lifespan","",""
"","","","","","choice_trial_setup","html-keyboard-response","124","1932153","0.0-5.0-0.20","173","1","2025-04-14 14:29:19","bb671e3ae32f654b8954ea4c4635f915","","Mozilla/5.0 (Macintosh; Intel Mac OS X 10_15_7) AppleWebKit/537.36 (KHTML, like Gecko) Chrome/134.0.0.0 Safari/537.36","Macintosh","Chrome","134.0.0.0","OS X","10_15_7","https://hz8g1ckzuq.cognition.run/","en-US,en;q=0.9","016qz974d19ec38","56","[""White""]","No","Female","2335040.1000000006","null","","<p></p>","null","choice","cdt","repulsion_1","2","laptops","null","null","null","null","null","null","1","","","","","","","","","",""
"","","","","","choice_trial","survey-html-form","125","1947433","0.0-5.0-1.20","173","1","2025-04-14 14:29:19","bb671e3ae32f654b8954ea4c4635f915","","Mozilla/5.0 (Macintosh; Intel Mac OS X 10_15_7) AppleWebKit/537.36 (KHTML, like Gecko) Chrome/134.0.0.0 Safari/537.36","Macintosh","Chrome","134.0.0.0","OS X","10_15_7","https://hz8g1ckzuq.cognition.run/","en-US,en;q=0.9","016qz974d19ec38","56","[""White""]","No","Female","2335040.1000000006","15182","","","{""product_choice"":""C""}","choice","cdt","repulsion_1","2","laptops","null","null","null","null","null","null","1","30","40","25","100","90","100","Processing speed","Memory (RAM)","",""
"","","","","","choice_trial_setup","html-keyboard-response","126","1947739","0.0-5.0-0.21","173","1","2025-04-14 14:29:19","bb671e3ae32f654b8954ea4c4635f915","","Mozilla/5.0 (Macintosh; Intel Mac OS X 10_15_7) AppleWebKit/537.36 (KHTML, like Gecko) Chrome/134.0.0.0 Safari/537.36","Macintosh","Chrome","134.0.0.0","OS X","10_15_7","https://hz8g1ckzuq.cognition.run/","en-US,en;q=0.9","016qz974d19ec38","56","[""White""]","No","Female","2335040.1000000006","null","","<p></p>","null","choice","ctd","repulsion_2","1","microwave ovens","null","null","null","null","null","null","1","","","","","","","","","",""
"","","","","","choice_trial","survey-html-form","127","1954631","0.0-5.0-1.21","173","1","2025-04-14 14:29:19","bb671e3ae32f654b8954ea4c4635f915","","Mozilla/5.0 (Macintosh; Intel Mac OS X 10_15_7) AppleWebKit/537.36 (KHTML, like Gecko) Chrome/134.0.0.0 Safari/537.36","Macintosh","Chrome","134.0.0.0","OS X","10_15_7","https://hz8g1ckzuq.cognition.run/","en-US,en;q=0.9","016qz974d19ec38","56","[""White""]","No","Female","2335040.1000000006","6887","","","{""product_choice"":""A""}","choice","ctd","repulsion_2","1","microwave ovens","null","null","null","null","null","null","1","100","90","100","30","40","20","Warranty","Cooking power","",""
"","","","","","choice_trial_setup","html-keyboard-response","128","1954938","0.0-5.0-0.22","173","1","2025-04-14 14:29:19","bb671e3ae32f654b8954ea4c4635f915","","Mozilla/5.0 (Macintosh; Intel Mac OS X 10_15_7) AppleWebKit/537.36 (KHTML, like Gecko) Chrome/134.0.0.0 Safari/537.36","Macintosh","Chrome","134.0.0.0","OS X","10_15_7","https://hz8g1ckzuq.cognition.run/","en-US,en;q=0.9","016qz974d19ec38","56","[""White""]","No","Female","2335040.1000000006","null","","<p></p>","null","choice","ctd","attraction_2","2","laptops","null","null","null","null","null","null","1","","","","","","","","","",""
"","","","","","choice_trial","survey-html-form","129","1962009","0.0-5.0-1.22","173","1","2025-04-14 14:29:19","bb671e3ae32f654b8954ea4c4635f915","","Mozilla/5.0 (Macintosh; Intel Mac OS X 10_15_7) AppleWebKit/537.36 (KHTML, like Gecko) Chrome/134.0.0.0 Safari/537.36","Macintosh","Chrome","134.0.0.0","OS X","10_15_7","https://hz8g1ckzuq.cognition.run/","en-US,en;q=0.9","016qz974d19ec38","56","[""White""]","No","Female","2335040.1000000006","7066","","","{""product_choice"":""B""}","choice","ctd","attraction_2","2","laptops","null","null","null","null","null","null","1","50","60","40","60","50","60","Processing speed","Memory (RAM)","",""
"","","","","","choice_trial_setup","html-keyboard-response","130","1962315","0.0-5.0-0.23","173","1","2025-04-14 14:29:19","bb671e3ae32f654b8954ea4c4635f915","","Mozilla/5.0 (Macintosh; Intel Mac OS X 10_15_7) AppleWebKit/537.36 (KHTML, like Gecko) Chrome/134.0.0.0 Safari/537.36","Macintosh","Chrome","134.0.0.0","OS X","10_15_7","https://hz8g1ckzuq.cognition.run/","en-US,en;q=0.9","016qz974d19ec38","56","[""White""]","No","Female","2335040.1000000006","null","","<p></p>","null","choice","ctd","attraction_1","2","microwave ovens","null","null","null","null","null","null","1","","","","","","","","","",""
"","","","","","choice_trial","survey-html-form","131","1966956","0.0-5.0-1.23","173","1","2025-04-14 14:29:19","bb671e3ae32f654b8954ea4c4635f915","","Mozilla/5.0 (Macintosh; Intel Mac OS X 10_15_7) AppleWebKit/537.36 (KHTML, like Gecko) Chrome/134.0.0.0 Safari/537.36","Macintosh","Chrome","134.0.0.0","OS X","10_15_7","https://hz8g1ckzuq.cognition.run/","en-US,en;q=0.9","016qz974d19ec38","56","[""White""]","No","Female","2335040.1000000006","4636","","","{""product_choice"":""B""}","choice","ctd","attraction_1","2","microwave ovens","null","null","null","null","null","null","1","50","60","45","60","50","60","Warranty","Cooking power","",""
"","","","","","choice_trial_setup","html-keyboard-response","132","1967262","0.0-5.0-0.24","173","1","2025-04-14 14:29:19","bb671e3ae32f654b8954ea4c4635f915","","Mozilla/5.0 (Macintosh; Intel Mac OS X 10_15_7) AppleWebKit/537.36 (KHTML, like Gecko) Chrome/134.0.0.0 Safari/537.36","Macintosh","Chrome","134.0.0.0","OS X","10_15_7","https://hz8g1ckzuq.cognition.run/","en-US,en;q=0.9","016qz974d19ec38","56","[""White""]","No","Female","2335040.1000000006","null","","<p></p>","null","choice","cdt","attraction_1","2","washing machines","null","null","null","null","null","null","1","","","","","","","","","",""
"","","","","","choice_trial","survey-html-form","133","1976011","0.0-5.0-1.24","173","1","2025-04-14 14:29:19","bb671e3ae32f654b8954ea4c4635f915","","Mozilla/5.0 (Macintosh; Intel Mac OS X 10_15_7) AppleWebKit/537.36 (KHTML, like Gecko) Chrome/134.0.0.0 Safari/537.36","Macintosh","Chrome","134.0.0.0","OS X","10_15_7","https://hz8g1ckzuq.cognition.run/","en-US,en;q=0.9","016qz974d19ec38","56","[""White""]","No","Female","2335040.1000000006","8743","","","{""product_choice"":""C""}","choice","cdt","attraction_1","2","washing machines","null","null","null","null","null","null","1","50","60","45","60","50","60","Average lifespan","Energy savings","",""
"","","","","","choice_trial_setup","html-keyboard-response","134","1976317","0.0-5.0-0.25","173","1","2025-04-14 14:29:19","bb671e3ae32f654b8954ea4c4635f915","","Mozilla/5.0 (Macintosh; Intel Mac OS X 10_15_7) AppleWebKit/537.36 (KHTML, like Gecko) Chrome/134.0.0.0 Safari/537.36","Macintosh","Chrome","134.0.0.0","OS X","10_15_7","https://hz8g1ckzuq.cognition.run/","en-US,en;q=0.9","016qz974d19ec38","56","[""White""]","No","Female","2335040.1000000006","null","","<p></p>","null","choice","ctd","attraction_2","2","microwave ovens","null","null","null","null","null","null","2","","","","","","","","","",""
"","","","","","choice_trial","survey-html-form","135","1984201","0.0-5.0-1.25","173","1","2025-04-14 14:29:19","bb671e3ae32f654b8954ea4c4635f915","","Mozilla/5.0 (Macintosh; Intel Mac OS X 10_15_7) AppleWebKit/537.36 (KHTML, like Gecko) Chrome/134.0.0.0 Safari/537.36","Macintosh","Chrome","134.0.0.0","OS X","10_15_7","https://hz8g1ckzuq.cognition.run/","en-US,en;q=0.9","016qz974d19ec38","56","[""White""]","No","Female","2335040.1000000006","7878","","","{""product_choice"":""B""}","choice","ctd","attraction_2","2","microwave ovens","null","null","null","null","null","null","2","50","60","40","60","50","60","Warranty","Cooking power","",""
"","","","","","choice_trial_setup","html-keyboard-response","136","1984507","0.0-5.0-0.26","173","1","2025-04-14 14:29:19","bb671e3ae32f654b8954ea4c4635f915","","Mozilla/5.0 (Macintosh; Intel Mac OS X 10_15_7) AppleWebKit/537.36 (KHTML, like Gecko) Chrome/134.0.0.0 Safari/537.36","Macintosh","Chrome","134.0.0.0","OS X","10_15_7","https://hz8g1ckzuq.cognition.run/","en-US,en;q=0.9","016qz974d19ec38","56","[""White""]","No","Female","2335040.1000000006","null","","<p></p>","null","choice","tdc","repulsion_1","2","washing machines","null","null","null","null","null","null","2","","","","","","","","","",""
"","","","","","choice_trial","survey-html-form","137","1991419","0.0-5.0-1.26","173","1","2025-04-14 14:29:19","bb671e3ae32f654b8954ea4c4635f915","","Mozilla/5.0 (Macintosh; Intel Mac OS X 10_15_7) AppleWebKit/537.36 (KHTML, like Gecko) Chrome/134.0.0.0 Safari/537.36","Macintosh","Chrome","134.0.0.0","OS X","10_15_7","https://hz8g1ckzuq.cognition.run/","en-US,en;q=0.9","016qz974d19ec38","56","[""White""]","No","Female","2335040.1000000006","6906","","","{""product_choice"":""C""}","choice","tdc","repulsion_1","2","washing machines","null","null","null","null","null","null","2","30","40","25","100","90","100","Average lifespan","Energy savings","",""
"","","","","","choice_trial_setup","html-keyboard-response","138","1991725","0.0-5.0-0.27","173","1","2025-04-14 14:29:19","bb671e3ae32f654b8954ea4c4635f915","","Mozilla/5.0 (Macintosh; Intel Mac OS X 10_15_7) AppleWebKit/537.36 (KHTML, like Gecko) Chrome/134.0.0.0 Safari/537.36","Macintosh","Chrome","134.0.0.0","OS X","10_15_7","https://hz8g1ckzuq.cognition.run/","en-US,en;q=0.9","016qz974d19ec38","56","[""White""]","No","Female","2335040.1000000006","null","","<p></p>","null","choice","dtc","repulsion_2","1","televisions","null","null","null","null","null","null","1","","","","","","","","","",""
"","","","","","choice_trial","survey-html-form","139","2010457","0.0-5.0-1.27","173","1","2025-04-14 14:29:19","bb671e3ae32f654b8954ea4c4635f915","","Mozilla/5.0 (Macintosh; Intel Mac OS X 10_15_7) AppleWebKit/537.36 (KHTML, like Gecko) Chrome/134.0.0.0 Safari/537.36","Macintosh","Chrome","134.0.0.0","OS X","10_15_7","https://hz8g1ckzuq.cognition.run/","en-US,en;q=0.9","016qz974d19ec38","56","[""White""]","No","Female","2335040.1000000006","18726","","","{""product_choice"":""C""}","choice","dtc","repulsion_2","1","televisions","null","null","null","null","null","null","1","100","90","100","30","40","20","Screen size","Average lifespan","",""
"","","","","","choice_trial_setup","html-keyboard-response","140","2010763","0.0-5.0-0.28","173","1","2025-04-14 14:29:19","bb671e3ae32f654b8954ea4c4635f915","","Mozilla/5.0 (Macintosh; Intel Mac OS X 10_15_7) AppleWebKit/537.36 (KHTML, like Gecko) Chrome/134.0.0.0 Safari/537.36","Macintosh","Chrome","134.0.0.0","OS X","10_15_7","https://hz8g1ckzuq.cognition.run/","en-US,en;q=0.9","016qz974d19ec38","56","[""White""]","No","Female","2335040.1000000006","null","","<p></p>","null","choice","cdt","repulsion_2","2","washing machines","null","null","null","null","null","null","2","","","","","","","","","",""
"","","","","","choice_trial","survey-html-form","141","2022420","0.0-5.0-1.28","173","1","2025-04-14 14:29:19","bb671e3ae32f654b8954ea4c4635f915","","Mozilla/5.0 (Macintosh; Intel Mac OS X 10_15_7) AppleWebKit/537.36 (KHTML, like Gecko) Chrome/134.0.0.0 Safari/537.36","Macintosh","Chrome","134.0.0.0","OS X","10_15_7","https://hz8g1ckzuq.cognition.run/","en-US,en;q=0.9","016qz974d19ec38","56","[""White""]","No","Female","2335040.1000000006","11650","","","{""product_choice"":""A""}","choice","cdt","repulsion_2","2","washing machines","null","null","null","null","null","null","2","30","40","20","100","90","100","Average lifespan","Energy savings","",""
"","","","","","choice_trial_setup","html-keyboard-response","142","2022726","0.0-5.0-0.29","173","1","2025-04-14 14:29:19","bb671e3ae32f654b8954ea4c4635f915","","Mozilla/5.0 (Macintosh; Intel Mac OS X 10_15_7) AppleWebKit/537.36 (KHTML, like Gecko) Chrome/134.0.0.0 Safari/537.36","Macintosh","Chrome","134.0.0.0","OS X","10_15_7","https://hz8g1ckzuq.cognition.run/","en-US,en;q=0.9","016qz974d19ec38","56","[""White""]","No","Female","2335040.1000000006","null","","<p></p>","null","choice","cdt","attraction_2","2","washing machines","null","null","null","null","null","null","2","","","","","","","","","",""
"","","","","","choice_trial","survey-html-form","143","2034042","0.0-5.0-1.29","173","1","2025-04-14 14:29:19","bb671e3ae32f654b8954ea4c4635f915","","Mozilla/5.0 (Macintosh; Intel Mac OS X 10_15_7) AppleWebKit/537.36 (KHTML, like Gecko) Chrome/134.0.0.0 Safari/537.36","Macintosh","Chrome","134.0.0.0","OS X","10_15_7","https://hz8g1ckzuq.cognition.run/","en-US,en;q=0.9","016qz974d19ec38","56","[""White""]","No","Female","2335040.1000000006","11310","","","{""product_choice"":""C""}","choice","cdt","attraction_2","2","washing machines","null","null","null","null","null","null","2","50","60","40","60","50","60","Average lifespan","Energy savings","",""
"","","","","","choice_trial_setup","html-keyboard-response","144","2034348","0.0-5.0-0.30","173","1","2025-04-14 14:29:19","bb671e3ae32f654b8954ea4c4635f915","","Mozilla/5.0 (Macintosh; Intel Mac OS X 10_15_7) AppleWebKit/537.36 (KHTML, like Gecko) Chrome/134.0.0.0 Safari/537.36","Macintosh","Chrome","134.0.0.0","OS X","10_15_7","https://hz8g1ckzuq.cognition.run/","en-US,en;q=0.9","016qz974d19ec38","56","[""White""]","No","Female","2335040.1000000006","null","","<p></p>","null","choice","dtc","attraction_2","1","microwave ovens","null","null","null","null","null","null","1","","","","","","","","","",""
"","","","","","choice_trial","survey-html-form","145","2041856","0.0-5.0-1.30","173","1","2025-04-14 14:29:19","bb671e3ae32f654b8954ea4c4635f915","","Mozilla/5.0 (Macintosh; Intel Mac OS X 10_15_7) AppleWebKit/537.36 (KHTML, like Gecko) Chrome/134.0.0.0 Safari/537.36","Macintosh","Chrome","134.0.0.0","OS X","10_15_7","https://hz8g1ckzuq.cognition.run/","en-US,en;q=0.9","016qz974d19ec38","56","[""White""]","No","Female","2335040.1000000006","7501","","","{""product_choice"":""C""}","choice","dtc","attraction_2","1","microwave ovens","null","null","null","null","null","null","1","60","50","60","50","60","40","Warranty","Cooking power","",""
"","","","","","choice_trial_setup","html-keyboard-response","146","2042162","0.0-5.0-0.31","173","1","2025-04-14 14:29:19","bb671e3ae32f654b8954ea4c4635f915","","Mozilla/5.0 (Macintosh; Intel Mac OS X 10_15_7) AppleWebKit/537.36 (KHTML, like Gecko) Chrome/134.0.0.0 Safari/537.36","Macintosh","Chrome","134.0.0.0","OS X","10_15_7","https://hz8g1ckzuq.cognition.run/","en-US,en;q=0.9","016qz974d19ec38","56","[""White""]","No","Female","2335040.1000000006","null","","<p></p>","null","choice","ctd","repulsion_2","1","laptops","null","null","null","null","null","null","1","","","","","","","","","",""
"","","","","","choice_trial","survey-html-form","147","2048040","0.0-5.0-1.31","173","1","2025-04-14 14:29:19","bb671e3ae32f654b8954ea4c4635f915","","Mozilla/5.0 (Macintosh; Intel Mac OS X 10_15_7) AppleWebKit/537.36 (KHTML, like Gecko) Chrome/134.0.0.0 Safari/537.36","Macintosh","Chrome","134.0.0.0","OS X","10_15_7","https://hz8g1ckzuq.cognition.run/","en-US,en;q=0.9","016qz974d19ec38","56","[""White""]","No","Female","2335040.1000000006","5873","","","{""product_choice"":""A""}","choice","ctd","repulsion_2","1","laptops","null","null","null","null","null","null","1","100","90","100","30","40","20","Processing speed","Memory (RAM)","",""
"","","","","","choice_trial_setup","html-keyboard-response","148","2048346","0.0-5.0-0.32","173","1","2025-04-14 14:29:19","bb671e3ae32f654b8954ea4c4635f915","","Mozilla/5.0 (Macintosh; Intel Mac OS X 10_15_7) AppleWebKit/537.36 (KHTML, like Gecko) Chrome/134.0.0.0 Safari/537.36","Macintosh","Chrome","134.0.0.0","OS X","10_15_7","https://hz8g1ckzuq.cognition.run/","en-US,en;q=0.9","016qz974d19ec38","56","[""White""]","No","Female","2335040.1000000006","null","","<p></p>","null","choice","wwb","catch","null","microwave ovens","85","85","45","40","15","20","2","","","","","","","","","",""
"","","","","","choice_trial","survey-html-form","149","2052950","0.0-5.0-1.32","173","1","2025-04-14 14:29:19","bb671e3ae32f654b8954ea4c4635f915","","Mozilla/5.0 (Macintosh; Intel Mac OS X 10_15_7) AppleWebKit/537.36 (KHTML, like Gecko) Chrome/134.0.0.0 Safari/537.36","Macintosh","Chrome","134.0.0.0","OS X","10_15_7","https://hz8g1ckzuq.cognition.run/","en-US,en;q=0.9","016qz974d19ec38","56","[""White""]","No","Female","2335040.1000000006","4598","","","{""product_choice"":""C""}","choice","wwb","catch","null","microwave ovens","85","85","45","40","15","20","2","null","null","null","null","null","null","Warranty","Cooking power","",""
"","","","","","choice_trial_setup","html-keyboard-response","150","2053256","0.0-5.0-0.33","173","1","2025-04-14 14:29:19","bb671e3ae32f654b8954ea4c4635f915","","Mozilla/5.0 (Macintosh; Intel Mac OS X 10_15_7) AppleWebKit/537.36 (KHTML, like Gecko) Chrome/134.0.0.0 Safari/537.36","Macintosh","Chrome","134.0.0.0","OS X","10_15_7","https://hz8g1ckzuq.cognition.run/","en-US,en;q=0.9","016qz974d19ec38","56","[""White""]","No","Female","2335040.1000000006","null","","<p></p>","null","choice","dct","repulsion_2","2","laptops","null","null","null","null","null","null","1","","","","","","","","","",""
"","","","","","choice_trial","survey-html-form","151","2065778","0.0-5.0-1.33","173","1","2025-04-14 14:29:19","bb671e3ae32f654b8954ea4c4635f915","","Mozilla/5.0 (Macintosh; Intel Mac OS X 10_15_7) AppleWebKit/537.36 (KHTML, like Gecko) Chrome/134.0.0.0 Safari/537.36","Macintosh","Chrome","134.0.0.0","OS X","10_15_7","https://hz8g1ckzuq.cognition.run/","en-US,en;q=0.9","016qz974d19ec38","56","[""White""]","No","Female","2335040.1000000006","12517","","","{""product_choice"":""B""}","choice","dct","repulsion_2","2","laptops","null","null","null","null","null","null","1","30","40","20","100","90","100","Processing speed","Memory (RAM)","",""
"","","","","","choice_trial_setup","html-keyboard-response","152","2066084","0.0-5.0-0.34","173","1","2025-04-14 14:29:19","bb671e3ae32f654b8954ea4c4635f915","","Mozilla/5.0 (Macintosh; Intel Mac OS X 10_15_7) AppleWebKit/537.36 (KHTML, like Gecko) Chrome/134.0.0.0 Safari/537.36","Macintosh","Chrome","134.0.0.0","OS X","10_15_7","https://hz8g1ckzuq.cognition.run/","en-US,en;q=0.9","016qz974d19ec38","56","[""White""]","No","Female","2335040.1000000006","null","","<p></p>","null","choice","tcd","attraction_1","1","laptops","null","null","null","null","null","null","2","","","","","","","","","",""
"","","","","","choice_trial","survey-html-form","153","2075794","0.0-5.0-1.34","173","1","2025-04-14 14:29:19","bb671e3ae32f654b8954ea4c4635f915","","Mozilla/5.0 (Macintosh; Intel Mac OS X 10_15_7) AppleWebKit/537.36 (KHTML, like Gecko) Chrome/134.0.0.0 Safari/537.36","Macintosh","Chrome","134.0.0.0","OS X","10_15_7","https://hz8g1ckzuq.cognition.run/","en-US,en;q=0.9","016qz974d19ec38","56","[""White""]","No","Female","2335040.1000000006","9704","","","{""product_choice"":""B""}","choice","tcd","attraction_1","1","laptops","null","null","null","null","null","null","2","60","50","60","50","60","45","Processing speed","Memory (RAM)","",""
"","","","","","choice_trial_setup","html-keyboard-response","154","2076101","0.0-5.0-0.35","173","1","2025-04-14 14:29:19","bb671e3ae32f654b8954ea4c4635f915","","Mozilla/5.0 (Macintosh; Intel Mac OS X 10_15_7) AppleWebKit/537.36 (KHTML, like Gecko) Chrome/134.0.0.0 Safari/537.36","Macintosh","Chrome","134.0.0.0","OS X","10_15_7","https://hz8g1ckzuq.cognition.run/","en-US,en;q=0.9","016qz974d19ec38","56","[""White""]","No","Female","2335040.1000000006","null","","<p></p>","null","choice","ctd","repulsion_1","1","microwave ovens","null","null","null","null","null","null","1","","","","","","","","","",""
