"success","timeout","failed_images","failed_audio","failed_video","screen_id","trial_type","trial_index","time_elapsed","internal_node_id","run_id","condition","recorded_at","source_code_version","ip","user_agent","device","browser","browser_version","platform","platform_version","referer","accept_language","ppt_id","age","race","ethnicity","gender","exp_duration","rt","view_history","stimulus","response","phase","order","effect","t_high","category","d1_best","d2_best","d1_worst1","d2_worst1","d1_worst2","d2_worst2","first_dim","d1_t","d1_c","d1_d","d2_t","d2_c","d2_d","d1_name","d2_name","strategy_response","question_order"
"true","false","[]","[]","[]","img preload","preload","0","6910","0.0-0.0","174","1","2025-04-14 14:29:29","bb671e3ae32f654b8954ea4c4635f915","","Mozilla/5.0 (Windows NT 10.0; Win64; x64) AppleWebKit/537.36 (KHTML, like Gecko) Chrome/121.0.0.0 Safari/537.36","WebKit","Chrome","121.0.0.0","Windows","10.0","https://hz8g1ckzuq.cognition.run/","en,en-US;q=0.9","h1jry861v0oj2uj","49","[""White""]","No","Female","2265960.100000024","","","","","","","","","","","","","","","","","","","","","","","","","",""
"true","","","","","","fullscreen","1","21515","0.0-1.0","174","1","2025-04-14 14:29:29","bb671e3ae32f654b8954ea4c4635f915","","Mozilla/5.0 (Windows NT 10.0; Win64; x64) AppleWebKit/537.36 (KHTML, like Gecko) Chrome/121.0.0.0 Safari/537.36","WebKit","Chrome","121.0.0.0","Windows","10.0","https://hz8g1ckzuq.cognition.run/","en,en-US;q=0.9","h1jry861v0oj2uj","49","[""White""]","No","Female","2265960.100000024","13592","","","","","","","","","","","","","","","","","","","","","","","","",""
"","","","","","","instructions","2","235916","0.0-2.0","174","1","2025-04-14 14:29:29","bb671e3ae32f654b8954ea4c4635f915","","Mozilla/5.0 (Windows NT 10.0; Win64; x64) AppleWebKit/537.36 (KHTML, like Gecko) Chrome/121.0.0.0 Safari/537.36","WebKit","Chrome","121.0.0.0","Windows","10.0","https://hz8g1ckzuq.cognition.run/","en,en-US;q=0.9","h1jry861v0oj2uj","49","[""White""]","No","Female","2265960.100000024","214397","[{""page_index"":0,""viewing_time"":4659},{""page_index"":1,""viewing_time"":8222},{""page_index"":2,""viewing_time"":18044},{""page_index"":3,""viewing_time"":12505},{""page_index"":4,""viewing_time"":10441},{""page_index"":5,""viewing_time"":8214},{""page_index"":6,""viewing_time"":10605},{""page_index"":7,""viewing_time"":106189},{""page_index"":8,""viewing_time"":33514},{""page_index"":9,""viewing_time"":2004}]","","","","","","","","","","","","","","","","","","","","","","","",""
"","","","","","rating_trial_setup","html-keyboard-response","3","236227","0.0-3.0-0.0","174","1","2025-04-14 14:29:29","bb671e3ae32f654b8954ea4c4635f915","","Mozilla/5.0 (Windows NT 10.0; Win64; x64) AppleWebKit/537.36 (KHTML, like Gecko) Chrome/121.0.0.0 Safari/537.36","WebKit","Chrome","121.0.0.0","Windows","10.0","https://hz8g1ckzuq.cognition.run/","en,en-US;q=0.9","h1jry861v0oj2uj","49","[""White""]","No","Female","2265960.100000024","null","","<p></p>","null","rating","cdt","repulsion_2","1","microwave ovens","null","null","null","null","null","null","1","","","","","","","","","",""
"","","","","","rating_trial","survey-html-form","4","302430","0.0-3.0-1.0","174","1","2025-04-14 14:29:29","bb671e3ae32f654b8954ea4c4635f915","","Mozilla/5.0 (Windows NT 10.0; Win64; x64) AppleWebKit/537.36 (KHTML, like Gecko) Chrome/121.0.0.0 Safari/537.36","WebKit","Chrome","121.0.0.0","Windows","10.0","https://hz8g1ckzuq.cognition.run/","en,en-US;q=0.9","h1jry861v0oj2uj","49","[""White""]","No","Female","2265960.100000024","66190","","","{""price_1"":""300"",""price_2"":""150"",""price_3"":""150""}","rating","cdt","repulsion_2","1","microwave ovens","null","null","null","null","null","null","1","100","90","100","30","40","20","Warranty","Cooking power","",""
"","","","","","rating_trial_setup","html-keyboard-response","5","302751","0.0-3.0-0.1","174","1","2025-04-14 14:29:29","bb671e3ae32f654b8954ea4c4635f915","","Mozilla/5.0 (Windows NT 10.0; Win64; x64) AppleWebKit/537.36 (KHTML, like Gecko) Chrome/121.0.0.0 Safari/537.36","WebKit","Chrome","121.0.0.0","Windows","10.0","https://hz8g1ckzuq.cognition.run/","en,en-US;q=0.9","h1jry861v0oj2uj","49","[""White""]","No","Female","2265960.100000024","null","","<p></p>","null","rating","bww","catch","null","laptops","80","65","35","25","20","20","2","","","","","","","","","",""
"","","","","","rating_trial","survey-html-form","6","358819","0.0-3.0-1.1","174","1","2025-04-14 14:29:29","bb671e3ae32f654b8954ea4c4635f915","","Mozilla/5.0 (Windows NT 10.0; Win64; x64) AppleWebKit/537.36 (KHTML, like Gecko) Chrome/121.0.0.0 Safari/537.36","WebKit","Chrome","121.0.0.0","Windows","10.0","https://hz8g1ckzuq.cognition.run/","en,en-US;q=0.9","h1jry861v0oj2uj","49","[""White""]","No","Female","2265960.100000024","56062","","","{""price_1"":""500"",""price_2"":""300"",""price_3"":""250""}","rating","bww","catch","null","laptops","80","65","35","25","20","20","2","null","null","null","null","null","null","Processing speed","Memory (RAM)","",""
"","","","","","rating_trial_setup","html-keyboard-response","7","359128","0.0-3.0-0.2","174","1","2025-04-14 14:29:29","bb671e3ae32f654b8954ea4c4635f915","","Mozilla/5.0 (Windows NT 10.0; Win64; x64) AppleWebKit/537.36 (KHTML, like Gecko) Chrome/121.0.0.0 Safari/537.36","WebKit","Chrome","121.0.0.0","Windows","10.0","https://hz8g1ckzuq.cognition.run/","en,en-US;q=0.9","h1jry861v0oj2uj","49","[""White""]","No","Female","2265960.100000024","null","","<p></p>","null","rating","ctd","attraction_2","2","televisions","null","null","null","null","null","null","1","","","","","","","","","",""
"","","","","","rating_trial","survey-html-form","8","441195","0.0-3.0-1.2","174","1","2025-04-14 14:29:29","bb671e3ae32f654b8954ea4c4635f915","","Mozilla/5.0 (Windows NT 10.0; Win64; x64) AppleWebKit/537.36 (KHTML, like Gecko) Chrome/121.0.0.0 Safari/537.36","WebKit","Chrome","121.0.0.0","Windows","10.0","https://hz8g1ckzuq.cognition.run/","en,en-US;q=0.9","h1jry861v0oj2uj","49","[""White""]","No","Female","2265960.100000024","82058","","","{""price_1"":""500"",""price_2"":""450"",""price_3"":""400""}","rating","ctd","attraction_2","2","televisions","null","null","null","null","null","null","1","50","60","40","60","50","60","Screen size","Average lifespan","",""
"","","","","","rating_trial_setup","html-keyboard-response","9","441518","0.0-3.0-0.3","174","1","2025-04-14 14:29:29","bb671e3ae32f654b8954ea4c4635f915","","Mozilla/5.0 (Windows NT 10.0; Win64; x64) AppleWebKit/537.36 (KHTML, like Gecko) Chrome/121.0.0.0 Safari/537.36","WebKit","Chrome","121.0.0.0","Windows","10.0","https://hz8g1ckzuq.cognition.run/","en,en-US;q=0.9","h1jry861v0oj2uj","49","[""White""]","No","Female","2265960.100000024","null","","<p></p>","null","rating","bww","catch","null","televisions","50","75","50","45","25","40","1","","","","","","","","","",""
"","","","","","rating_trial","survey-html-form","10","470009","0.0-3.0-1.3","174","1","2025-04-14 14:29:29","bb671e3ae32f654b8954ea4c4635f915","","Mozilla/5.0 (Windows NT 10.0; Win64; x64) AppleWebKit/537.36 (KHTML, like Gecko) Chrome/121.0.0.0 Safari/537.36","WebKit","Chrome","121.0.0.0","Windows","10.0","https://hz8g1ckzuq.cognition.run/","en,en-US;q=0.9","h1jry861v0oj2uj","49","[""White""]","No","Female","2265960.100000024","28483","","","{""price_1"":""500"",""price_2"":""450"",""price_3"":""300""}","rating","bww","catch","null","televisions","50","75","50","45","25","40","1","null","null","null","null","null","null","Screen size","Average lifespan","",""
"","","","","","rating_trial_setup","html-keyboard-response","11","470333","0.0-3.0-0.4","174","1","2025-04-14 14:29:29","bb671e3ae32f654b8954ea4c4635f915","","Mozilla/5.0 (Windows NT 10.0; Win64; x64) AppleWebKit/537.36 (KHTML, like Gecko) Chrome/121.0.0.0 Safari/537.36","WebKit","Chrome","121.0.0.0","Windows","10.0","https://hz8g1ckzuq.cognition.run/","en,en-US;q=0.9","h1jry861v0oj2uj","49","[""White""]","No","Female","2265960.100000024","null","","<p></p>","null","rating","tdc","attraction_2","1","televisions","null","null","null","null","null","null","2","","","","","","","","","",""
"","","","","","rating_trial","survey-html-form","12","508029","0.0-3.0-1.4","174","1","2025-04-14 14:29:29","bb671e3ae32f654b8954ea4c4635f915","","Mozilla/5.0 (Windows NT 10.0; Win64; x64) AppleWebKit/537.36 (KHTML, like Gecko) Chrome/121.0.0.0 Safari/537.36","WebKit","Chrome","121.0.0.0","Windows","10.0","https://hz8g1ckzuq.cognition.run/","en,en-US;q=0.9","h1jry861v0oj2uj","49","[""White""]","No","Female","2265960.100000024","37689","","","{""price_1"":""450"",""price_2"":""400"",""price_3"":""500""}","rating","tdc","attraction_2","1","televisions","null","null","null","null","null","null","2","60","50","60","50","60","40","Screen size","Average lifespan","",""
"","","","","","rating_trial_setup","html-keyboard-response","13","508336","0.0-3.0-0.5","174","1","2025-04-14 14:29:29","bb671e3ae32f654b8954ea4c4635f915","","Mozilla/5.0 (Windows NT 10.0; Win64; x64) AppleWebKit/537.36 (KHTML, like Gecko) Chrome/121.0.0.0 Safari/537.36","WebKit","Chrome","121.0.0.0","Windows","10.0","https://hz8g1ckzuq.cognition.run/","en,en-US;q=0.9","h1jry861v0oj2uj","49","[""White""]","No","Female","2265960.100000024","null","","<p></p>","null","rating","dtc","attraction_2","2","washing machines","null","null","null","null","null","null","2","","","","","","","","","",""
"","","","","","rating_trial","survey-html-form","14","593006","0.0-3.0-1.5","174","1","2025-04-14 14:29:29","bb671e3ae32f654b8954ea4c4635f915","","Mozilla/5.0 (Windows NT 10.0; Win64; x64) AppleWebKit/537.36 (KHTML, like Gecko) Chrome/121.0.0.0 Safari/537.36","WebKit","Chrome","121.0.0.0","Windows","10.0","https://hz8g1ckzuq.cognition.run/","en,en-US;q=0.9","h1jry861v0oj2uj","49","[""White""]","No","Female","2265960.100000024","84662","","","{""price_1"":""1200"",""price_2"":""1400"",""price_3"":""1300""}","rating","dtc","attraction_2","2","washing machines","null","null","null","null","null","null","2","50","60","40","60","50","60","Average lifespan","Energy savings","",""
"","","","","","rating_trial_setup","html-keyboard-response","15","593329","0.0-3.0-0.6","174","1","2025-04-14 14:29:29","bb671e3ae32f654b8954ea4c4635f915","","Mozilla/5.0 (Windows NT 10.0; Win64; x64) AppleWebKit/537.36 (KHTML, like Gecko) Chrome/121.0.0.0 Safari/537.36","WebKit","Chrome","121.0.0.0","Windows","10.0","https://hz8g1ckzuq.cognition.run/","en,en-US;q=0.9","h1jry861v0oj2uj","49","[""White""]","No","Female","2265960.100000024","null","","<p></p>","null","rating","dct","repulsion_1","1","televisions","null","null","null","null","null","null","1","","","","","","","","","",""
"","","","","","rating_trial","survey-html-form","16","629203","0.0-3.0-1.6","174","1","2025-04-14 14:29:29","bb671e3ae32f654b8954ea4c4635f915","","Mozilla/5.0 (Windows NT 10.0; Win64; x64) AppleWebKit/537.36 (KHTML, like Gecko) Chrome/121.0.0.0 Safari/537.36","WebKit","Chrome","121.0.0.0","Windows","10.0","https://hz8g1ckzuq.cognition.run/","en,en-US;q=0.9","h1jry861v0oj2uj","49","[""White""]","No","Female","2265960.100000024","35869","","","{""price_1"":""700"",""price_2"":""500"",""price_3"":""600""}","rating","dct","repulsion_1","1","televisions","null","null","null","null","null","null","1","100","90","100","30","40","25","Screen size","Average lifespan","",""
"","","","","","rating_trial_setup","html-keyboard-response","17","629509","0.0-3.0-0.7","174","1","2025-04-14 14:29:29","bb671e3ae32f654b8954ea4c4635f915","","Mozilla/5.0 (Windows NT 10.0; Win64; x64) AppleWebKit/537.36 (KHTML, like Gecko) Chrome/121.0.0.0 Safari/537.36","WebKit","Chrome","121.0.0.0","Windows","10.0","https://hz8g1ckzuq.cognition.run/","en,en-US;q=0.9","h1jry861v0oj2uj","49","[""White""]","No","Female","2265960.100000024","null","","<p></p>","null","rating","bww","catch","null","washing machines","50","95","30","35","45","10","1","","","","","","","","","",""
"","","","","","rating_trial","survey-html-form","18","663476","0.0-3.0-1.7","174","1","2025-04-14 14:29:29","bb671e3ae32f654b8954ea4c4635f915","","Mozilla/5.0 (Windows NT 10.0; Win64; x64) AppleWebKit/537.36 (KHTML, like Gecko) Chrome/121.0.0.0 Safari/537.36","WebKit","Chrome","121.0.0.0","Windows","10.0","https://hz8g1ckzuq.cognition.run/","en,en-US;q=0.9","h1jry861v0oj2uj","49","[""White""]","No","Female","2265960.100000024","33959","","","{""price_1"":""1400"",""price_2"":""700"",""price_3"":""400""}","rating","bww","catch","null","washing machines","50","95","30","35","45","10","1","null","null","null","null","null","null","Average lifespan","Energy savings","",""
"","","","","","rating_trial_setup","html-keyboard-response","19","663783","0.0-3.0-0.8","174","1","2025-04-14 14:29:29","bb671e3ae32f654b8954ea4c4635f915","","Mozilla/5.0 (Windows NT 10.0; Win64; x64) AppleWebKit/537.36 (KHTML, like Gecko) Chrome/121.0.0.0 Safari/537.36","WebKit","Chrome","121.0.0.0","Windows","10.0","https://hz8g1ckzuq.cognition.run/","en,en-US;q=0.9","h1jry861v0oj2uj","49","[""White""]","No","Female","2265960.100000024","null","","<p></p>","null","rating","dct","repulsion_2","1","laptops","null","null","null","null","null","null","1","","","","","","","","","",""
"","","","","","rating_trial","survey-html-form","20","737458","0.0-3.0-1.8","174","1","2025-04-14 14:29:29","bb671e3ae32f654b8954ea4c4635f915","","Mozilla/5.0 (Windows NT 10.0; Win64; x64) AppleWebKit/537.36 (KHTML, like Gecko) Chrome/121.0.0.0 Safari/537.36","WebKit","Chrome","121.0.0.0","Windows","10.0","https://hz8g1ckzuq.cognition.run/","en,en-US;q=0.9","h1jry861v0oj2uj","49","[""White""]","No","Female","2265960.100000024","73664","","","{""price_1"":""700"",""price_2"":""800"",""price_3"":""900""}","rating","dct","repulsion_2","1","laptops","null","null","null","null","null","null","1","100","90","100","30","40","20","Processing speed","Memory (RAM)","",""
"","","","","","rating_trial_setup","html-keyboard-response","21","737767","0.0-3.0-0.9","174","1","2025-04-14 14:29:29","bb671e3ae32f654b8954ea4c4635f915","","Mozilla/5.0 (Windows NT 10.0; Win64; x64) AppleWebKit/537.36 (KHTML, like Gecko) Chrome/121.0.0.0 Safari/537.36","WebKit","Chrome","121.0.0.0","Windows","10.0","https://hz8g1ckzuq.cognition.run/","en,en-US;q=0.9","h1jry861v0oj2uj","49","[""White""]","No","Female","2265960.100000024","null","","<p></p>","null","rating","ctd","repulsion_2","2","laptops","null","null","null","null","null","null","1","","","","","","","","","",""
"","","","","","rating_trial","survey-html-form","22","788670","0.0-3.0-1.9","174","1","2025-04-14 14:29:29","bb671e3ae32f654b8954ea4c4635f915","","Mozilla/5.0 (Windows NT 10.0; Win64; x64) AppleWebKit/537.36 (KHTML, like Gecko) Chrome/121.0.0.0 Safari/537.36","WebKit","Chrome","121.0.0.0","Windows","10.0","https://hz8g1ckzuq.cognition.run/","en,en-US;q=0.9","h1jry861v0oj2uj","49","[""White""]","No","Female","2265960.100000024","50894","","","{""price_1"":""500"",""price_2"":""600"",""price_3"":""600""}","rating","ctd","repulsion_2","2","laptops","null","null","null","null","null","null","1","30","40","20","100","90","100","Processing speed","Memory (RAM)","",""
"","","","","","rating_trial_setup","html-keyboard-response","23","788987","0.0-3.0-0.10","174","1","2025-04-14 14:29:29","bb671e3ae32f654b8954ea4c4635f915","","Mozilla/5.0 (Windows NT 10.0; Win64; x64) AppleWebKit/537.36 (KHTML, like Gecko) Chrome/121.0.0.0 Safari/537.36","WebKit","Chrome","121.0.0.0","Windows","10.0","https://hz8g1ckzuq.cognition.run/","en,en-US;q=0.9","h1jry861v0oj2uj","49","[""White""]","No","Female","2265960.100000024","null","","<p></p>","null","rating","tcd","repulsion_2","1","washing machines","null","null","null","null","null","null","1","","","","","","","","","",""
"","","","","","rating_trial","survey-html-form","24","826281","0.0-3.0-1.10","174","1","2025-04-14 14:29:29","bb671e3ae32f654b8954ea4c4635f915","","Mozilla/5.0 (Windows NT 10.0; Win64; x64) AppleWebKit/537.36 (KHTML, like Gecko) Chrome/121.0.0.0 Safari/537.36","WebKit","Chrome","121.0.0.0","Windows","10.0","https://hz8g1ckzuq.cognition.run/","en,en-US;q=0.9","h1jry861v0oj2uj","49","[""White""]","No","Female","2265960.100000024","37285","","","{""price_1"":""1200"",""price_2"":""1300"",""price_3"":""1100""}","rating","tcd","repulsion_2","1","washing machines","null","null","null","null","null","null","1","100","90","100","30","40","20","Average lifespan","Energy savings","",""
"","","","","","rating_trial_setup","html-keyboard-response","25","826589","0.0-3.0-0.11","174","1","2025-04-14 14:29:29","bb671e3ae32f654b8954ea4c4635f915","","Mozilla/5.0 (Windows NT 10.0; Win64; x64) AppleWebKit/537.36 (KHTML, like Gecko) Chrome/121.0.0.0 Safari/537.36","WebKit","Chrome","121.0.0.0","Windows","10.0","https://hz8g1ckzuq.cognition.run/","en,en-US;q=0.9","h1jry861v0oj2uj","49","[""White""]","No","Female","2265960.100000024","null","","<p></p>","null","rating","tdc","attraction_2","2","laptops","null","null","null","null","null","null","1","","","","","","","","","",""
"","","","","","rating_trial","survey-html-form","26","862978","0.0-3.0-1.11","174","1","2025-04-14 14:29:29","bb671e3ae32f654b8954ea4c4635f915","","Mozilla/5.0 (Windows NT 10.0; Win64; x64) AppleWebKit/537.36 (KHTML, like Gecko) Chrome/121.0.0.0 Safari/537.36","WebKit","Chrome","121.0.0.0","Windows","10.0","https://hz8g1ckzuq.cognition.run/","en,en-US;q=0.9","h1jry861v0oj2uj","49","[""White""]","No","Female","2265960.100000024","36377","","","{""price_1"":""700"",""price_2"":""500"",""price_3"":""700""}","rating","tdc","attraction_2","2","laptops","null","null","null","null","null","null","1","50","60","40","60","50","60","Processing speed","Memory (RAM)","",""
"","","","","","rating_trial_setup","html-keyboard-response","27","863297","0.0-3.0-0.12","174","1","2025-04-14 14:29:29","bb671e3ae32f654b8954ea4c4635f915","","Mozilla/5.0 (Windows NT 10.0; Win64; x64) AppleWebKit/537.36 (KHTML, like Gecko) Chrome/121.0.0.0 Safari/537.36","WebKit","Chrome","121.0.0.0","Windows","10.0","https://hz8g1ckzuq.cognition.run/","en,en-US;q=0.9","h1jry861v0oj2uj","49","[""White""]","No","Female","2265960.100000024","null","","<p></p>","null","rating","tdc","attraction_2","1","laptops","null","null","null","null","null","null","1","","","","","","","","","",""
"","","","","","rating_trial","survey-html-form","28","901668","0.0-3.0-1.12","174","1","2025-04-14 14:29:29","bb671e3ae32f654b8954ea4c4635f915","","Mozilla/5.0 (Windows NT 10.0; Win64; x64) AppleWebKit/537.36 (KHTML, like Gecko) Chrome/121.0.0.0 Safari/537.36","WebKit","Chrome","121.0.0.0","Windows","10.0","https://hz8g1ckzuq.cognition.run/","en,en-US;q=0.9","h1jry861v0oj2uj","49","[""White""]","No","Female","2265960.100000024","38362","","","{""price_1"":""700"",""price_2"":""600"",""price_3"":""700""}","rating","tdc","attraction_2","1","laptops","null","null","null","null","null","null","1","60","50","60","50","60","40","Processing speed","Memory (RAM)","",""
"","","","","","rating_trial_setup","html-keyboard-response","29","901978","0.0-3.0-0.13","174","1","2025-04-14 14:29:29","bb671e3ae32f654b8954ea4c4635f915","","Mozilla/5.0 (Windows NT 10.0; Win64; x64) AppleWebKit/537.36 (KHTML, like Gecko) Chrome/121.0.0.0 Safari/537.36","WebKit","Chrome","121.0.0.0","Windows","10.0","https://hz8g1ckzuq.cognition.run/","en,en-US;q=0.9","h1jry861v0oj2uj","49","[""White""]","No","Female","2265960.100000024","null","","<p></p>","null","rating","tcd","repulsion_2","2","televisions","null","null","null","null","null","null","1","","","","","","","","","",""
"","","","","","rating_trial","survey-html-form","30","944625","0.0-3.0-1.13","174","1","2025-04-14 14:29:29","bb671e3ae32f654b8954ea4c4635f915","","Mozilla/5.0 (Windows NT 10.0; Win64; x64) AppleWebKit/537.36 (KHTML, like Gecko) Chrome/121.0.0.0 Safari/537.36","WebKit","Chrome","121.0.0.0","Windows","10.0","https://hz8g1ckzuq.cognition.run/","en,en-US;q=0.9","h1jry861v0oj2uj","49","[""White""]","No","Female","2265960.100000024","42638","","","{""price_1"":""500"",""price_2"":""450"",""price_3"":""300""}","rating","tcd","repulsion_2","2","televisions","null","null","null","null","null","null","1","30","40","20","100","90","100","Screen size","Average lifespan","",""
"","","","","","rating_trial_setup","html-keyboard-response","31","944945","0.0-3.0-0.14","174","1","2025-04-14 14:29:29","bb671e3ae32f654b8954ea4c4635f915","","Mozilla/5.0 (Windows NT 10.0; Win64; x64) AppleWebKit/537.36 (KHTML, like Gecko) Chrome/121.0.0.0 Safari/537.36","WebKit","Chrome","121.0.0.0","Windows","10.0","https://hz8g1ckzuq.cognition.run/","en,en-US;q=0.9","h1jry861v0oj2uj","49","[""White""]","No","Female","2265960.100000024","null","","<p></p>","null","rating","dtc","repulsion_1","2","laptops","null","null","null","null","null","null","2","","","","","","","","","",""
"","","","","","rating_trial","survey-html-form","32","988979","0.0-3.0-1.14","174","1","2025-04-14 14:29:29","bb671e3ae32f654b8954ea4c4635f915","","Mozilla/5.0 (Windows NT 10.0; Win64; x64) AppleWebKit/537.36 (KHTML, like Gecko) Chrome/121.0.0.0 Safari/537.36","WebKit","Chrome","121.0.0.0","Windows","10.0","https://hz8g1ckzuq.cognition.run/","en,en-US;q=0.9","h1jry861v0oj2uj","49","[""White""]","No","Female","2265960.100000024","44024","","","{""price_1"":""1100"",""price_2"":""1200"",""price_3"":""1000""}","rating","dtc","repulsion_1","2","laptops","null","null","null","null","null","null","2","30","40","25","100","90","100","Processing speed","Memory (RAM)","",""
"","","","","","rating_trial_setup","html-keyboard-response","33","989294","0.0-3.0-0.15","174","1","2025-04-14 14:29:29","bb671e3ae32f654b8954ea4c4635f915","","Mozilla/5.0 (Windows NT 10.0; Win64; x64) AppleWebKit/537.36 (KHTML, like Gecko) Chrome/121.0.0.0 Safari/537.36","WebKit","Chrome","121.0.0.0","Windows","10.0","https://hz8g1ckzuq.cognition.run/","en,en-US;q=0.9","h1jry861v0oj2uj","49","[""White""]","No","Female","2265960.100000024","null","","<p></p>","null","rating","cdt","repulsion_1","1","microwave ovens","null","null","null","null","null","null","1","","","","","","","","","",""
"","","","","","rating_trial","survey-html-form","34","1030275","0.0-3.0-1.15","174","1","2025-04-14 14:29:29","bb671e3ae32f654b8954ea4c4635f915","","Mozilla/5.0 (Windows NT 10.0; Win64; x64) AppleWebKit/537.36 (KHTML, like Gecko) Chrome/121.0.0.0 Safari/537.36","WebKit","Chrome","121.0.0.0","Windows","10.0","https://hz8g1ckzuq.cognition.run/","en,en-US;q=0.9","h1jry861v0oj2uj","49","[""White""]","No","Female","2265960.100000024","40968","","","{""price_1"":""800"",""price_2"":""500"",""price_3"":""700""}","rating","cdt","repulsion_1","1","microwave ovens","null","null","null","null","null","null","1","100","90","100","30","40","25","Warranty","Cooking power","",""
"","","","","","rating_trial_setup","html-keyboard-response","35","1030602","0.0-3.0-0.16","174","1","2025-04-14 14:29:29","bb671e3ae32f654b8954ea4c4635f915","","Mozilla/5.0 (Windows NT 10.0; Win64; x64) AppleWebKit/537.36 (KHTML, like Gecko) Chrome/121.0.0.0 Safari/537.36","WebKit","Chrome","121.0.0.0","Windows","10.0","https://hz8g1ckzuq.cognition.run/","en,en-US;q=0.9","h1jry861v0oj2uj","49","[""White""]","No","Female","2265960.100000024","null","","<p></p>","null","rating","tdc","attraction_2","2","microwave ovens","null","null","null","null","null","null","2","","","","","","","","","",""
"","","","","","rating_trial","survey-html-form","36","1068519","0.0-3.0-1.16","174","1","2025-04-14 14:29:29","bb671e3ae32f654b8954ea4c4635f915","","Mozilla/5.0 (Windows NT 10.0; Win64; x64) AppleWebKit/537.36 (KHTML, like Gecko) Chrome/121.0.0.0 Safari/537.36","WebKit","Chrome","121.0.0.0","Windows","10.0","https://hz8g1ckzuq.cognition.run/","en,en-US;q=0.9","h1jry861v0oj2uj","49","[""White""]","No","Female","2265960.100000024","37904","","","{""price_1"":""1000"",""price_2"":""1000"",""price_3"":""950""}","rating","tdc","attraction_2","2","microwave ovens","null","null","null","null","null","null","2","50","60","40","60","50","60","Warranty","Cooking power","",""
"","","","","","rating_trial_setup","html-keyboard-response","37","1068829","0.0-3.0-0.17","174","1","2025-04-14 14:29:29","bb671e3ae32f654b8954ea4c4635f915","","Mozilla/5.0 (Windows NT 10.0; Win64; x64) AppleWebKit/537.36 (KHTML, like Gecko) Chrome/121.0.0.0 Safari/537.36","WebKit","Chrome","121.0.0.0","Windows","10.0","https://hz8g1ckzuq.cognition.run/","en,en-US;q=0.9","h1jry861v0oj2uj","49","[""White""]","No","Female","2265960.100000024","null","","<p></p>","null","rating","wwb","catch","null","microwave ovens","60","70","45","50","25","50","2","","","","","","","","","",""
"","","","","","rating_trial","survey-html-form","38","1094289","0.0-3.0-1.17","174","1","2025-04-14 14:29:29","bb671e3ae32f654b8954ea4c4635f915","","Mozilla/5.0 (Windows NT 10.0; Win64; x64) AppleWebKit/537.36 (KHTML, like Gecko) Chrome/121.0.0.0 Safari/537.36","WebKit","Chrome","121.0.0.0","Windows","10.0","https://hz8g1ckzuq.cognition.run/","en,en-US;q=0.9","h1jry861v0oj2uj","49","[""White""]","No","Female","2265960.100000024","25449","","","{""price_1"":""900"",""price_2"":""900"",""price_3"":""1200""}","rating","wwb","catch","null","microwave ovens","60","70","45","50","25","50","2","null","null","null","null","null","null","Warranty","Cooking power","",""
"","","","","","rating_trial_setup","html-keyboard-response","39","1094601","0.0-3.0-0.18","174","1","2025-04-14 14:29:29","bb671e3ae32f654b8954ea4c4635f915","","Mozilla/5.0 (Windows NT 10.0; Win64; x64) AppleWebKit/537.36 (KHTML, like Gecko) Chrome/121.0.0.0 Safari/537.36","WebKit","Chrome","121.0.0.0","Windows","10.0","https://hz8g1ckzuq.cognition.run/","en,en-US;q=0.9","h1jry861v0oj2uj","49","[""White""]","No","Female","2265960.100000024","null","","<p></p>","null","rating","bww","catch","null","washing machines","60","80","35","45","40","35","1","","","","","","","","","",""
"","","","","","rating_trial","survey-html-form","40","1138103","0.0-3.0-1.18","174","1","2025-04-14 14:29:29","bb671e3ae32f654b8954ea4c4635f915","","Mozilla/5.0 (Windows NT 10.0; Win64; x64) AppleWebKit/537.36 (KHTML, like Gecko) Chrome/121.0.0.0 Safari/537.36","WebKit","Chrome","121.0.0.0","Windows","10.0","https://hz8g1ckzuq.cognition.run/","en,en-US;q=0.9","h1jry861v0oj2uj","49","[""White""]","No","Female","2265960.100000024","43490","","","{""price_1"":""1500"",""price_2"":""600"",""price_3"":""500""}","rating","bww","catch","null","washing machines","60","80","35","45","40","35","1","null","null","null","null","null","null","Average lifespan","Energy savings","",""
"","","","","","rating_trial_setup","html-keyboard-response","41","1138419","0.0-3.0-0.19","174","1","2025-04-14 14:29:29","bb671e3ae32f654b8954ea4c4635f915","","Mozilla/5.0 (Windows NT 10.0; Win64; x64) AppleWebKit/537.36 (KHTML, like Gecko) Chrome/121.0.0.0 Safari/537.36","WebKit","Chrome","121.0.0.0","Windows","10.0","https://hz8g1ckzuq.cognition.run/","en,en-US;q=0.9","h1jry861v0oj2uj","49","[""White""]","No","Female","2265960.100000024","null","","<p></p>","null","rating","cdt","repulsion_2","2","washing machines","null","null","null","null","null","null","2","","","","","","","","","",""
"","","","","","rating_trial","survey-html-form","42","1192987","0.0-3.0-1.19","174","1","2025-04-14 14:29:29","bb671e3ae32f654b8954ea4c4635f915","","Mozilla/5.0 (Windows NT 10.0; Win64; x64) AppleWebKit/537.36 (KHTML, like Gecko) Chrome/121.0.0.0 Safari/537.36","WebKit","Chrome","121.0.0.0","Windows","10.0","https://hz8g1ckzuq.cognition.run/","en,en-US;q=0.9","h1jry861v0oj2uj","49","[""White""]","No","Female","2265960.100000024","54554","","","{""price_1"":""1200"",""price_2"":""1350"",""price_3"":""1400""}","rating","cdt","repulsion_2","2","washing machines","null","null","null","null","null","null","2","30","40","20","100","90","100","Average lifespan","Energy savings","",""
"","","","","","rating_trial_setup","html-keyboard-response","43","1193298","0.0-3.0-0.20","174","1","2025-04-14 14:29:29","bb671e3ae32f654b8954ea4c4635f915","","Mozilla/5.0 (Windows NT 10.0; Win64; x64) AppleWebKit/537.36 (KHTML, like Gecko) Chrome/121.0.0.0 Safari/537.36","WebKit","Chrome","121.0.0.0","Windows","10.0","https://hz8g1ckzuq.cognition.run/","en,en-US;q=0.9","h1jry861v0oj2uj","49","[""White""]","No","Female","2265960.100000024","null","","<p></p>","null","rating","ctd","repulsion_1","2","televisions","null","null","null","null","null","null","2","","","","","","","","","",""
"","","","","","rating_trial","survey-html-form","44","1216722","0.0-3.0-1.20","174","1","2025-04-14 14:29:29","bb671e3ae32f654b8954ea4c4635f915","","Mozilla/5.0 (Windows NT 10.0; Win64; x64) AppleWebKit/537.36 (KHTML, like Gecko) Chrome/121.0.0.0 Safari/537.36","WebKit","Chrome","121.0.0.0","Windows","10.0","https://hz8g1ckzuq.cognition.run/","en,en-US;q=0.9","h1jry861v0oj2uj","49","[""White""]","No","Female","2265960.100000024","23411","","","{""price_1"":""700"",""price_2"":""600"",""price_3"":""500""}","rating","ctd","repulsion_1","2","televisions","null","null","null","null","null","null","2","30","40","25","100","90","100","Screen size","Average lifespan","",""
"","","","","","rating_trial_setup","html-keyboard-response","45","1217035","0.0-3.0-0.21","174","1","2025-04-14 14:29:29","bb671e3ae32f654b8954ea4c4635f915","","Mozilla/5.0 (Windows NT 10.0; Win64; x64) AppleWebKit/537.36 (KHTML, like Gecko) Chrome/121.0.0.0 Safari/537.36","WebKit","Chrome","121.0.0.0","Windows","10.0","https://hz8g1ckzuq.cognition.run/","en,en-US;q=0.9","h1jry861v0oj2uj","49","[""White""]","No","Female","2265960.100000024","null","","<p></p>","null","rating","cdt","attraction_1","2","microwave ovens","null","null","null","null","null","null","1","","","","","","","","","",""
"","","","","","rating_trial","survey-html-form","46","1269432","0.0-3.0-1.21","174","1","2025-04-14 14:29:29","bb671e3ae32f654b8954ea4c4635f915","","Mozilla/5.0 (Windows NT 10.0; Win64; x64) AppleWebKit/537.36 (KHTML, like Gecko) Chrome/121.0.0.0 Safari/537.36","WebKit","Chrome","121.0.0.0","Windows","10.0","https://hz8g1ckzuq.cognition.run/","en,en-US;q=0.9","h1jry861v0oj2uj","49","[""White""]","No","Female","2265960.100000024","52384","","","{""price_1"":""1500"",""price_2"":""1700"",""price_3"":""1900""}","rating","cdt","attraction_1","2","microwave ovens","null","null","null","null","null","null","1","50","60","45","60","50","60","Warranty","Cooking power","",""
"","","","","","rating_trial_setup","html-keyboard-response","47","1269737","0.0-3.0-0.22","174","1","2025-04-14 14:29:29","bb671e3ae32f654b8954ea4c4635f915","","Mozilla/5.0 (Windows NT 10.0; Win64; x64) AppleWebKit/537.36 (KHTML, like Gecko) Chrome/121.0.0.0 Safari/537.36","WebKit","Chrome","121.0.0.0","Windows","10.0","https://hz8g1ckzuq.cognition.run/","en,en-US;q=0.9","h1jry861v0oj2uj","49","[""White""]","No","Female","2265960.100000024","null","","<p></p>","null","rating","dtc","attraction_1","1","washing machines","null","null","null","null","null","null","2","","","","","","","","","",""
"","","","","","rating_trial","survey-html-form","48","1313998","0.0-3.0-1.22","174","1","2025-04-14 14:29:29","bb671e3ae32f654b8954ea4c4635f915","","Mozilla/5.0 (Windows NT 10.0; Win64; x64) AppleWebKit/537.36 (KHTML, like Gecko) Chrome/121.0.0.0 Safari/537.36","WebKit","Chrome","121.0.0.0","Windows","10.0","https://hz8g1ckzuq.cognition.run/","en,en-US;q=0.9","h1jry861v0oj2uj","49","[""White""]","No","Female","2265960.100000024","44248","","","{""price_1"":""1400"",""price_2"":""1600"",""price_3"":""1800""}","rating","dtc","attraction_1","1","washing machines","null","null","null","null","null","null","2","60","50","60","50","60","45","Average lifespan","Energy savings","",""
"","","","","","rating_trial_setup","html-keyboard-response","49","1314319","0.0-3.0-0.23","174","1","2025-04-14 14:29:29","bb671e3ae32f654b8954ea4c4635f915","","Mozilla/5.0 (Windows NT 10.0; Win64; x64) AppleWebKit/537.36 (KHTML, like Gecko) Chrome/121.0.0.0 Safari/537.36","WebKit","Chrome","121.0.0.0","Windows","10.0","https://hz8g1ckzuq.cognition.run/","en,en-US;q=0.9","h1jry861v0oj2uj","49","[""White""]","No","Female","2265960.100000024","null","","<p></p>","null","rating","ctd","attraction_2","1","washing machines","null","null","null","null","null","null","2","","","","","","","","","",""
"","","","","","rating_trial","survey-html-form","50","1341106","0.0-3.0-1.23","174","1","2025-04-14 14:29:29","bb671e3ae32f654b8954ea4c4635f915","","Mozilla/5.0 (Windows NT 10.0; Win64; x64) AppleWebKit/537.36 (KHTML, like Gecko) Chrome/121.0.0.0 Safari/537.36","WebKit","Chrome","121.0.0.0","Windows","10.0","https://hz8g1ckzuq.cognition.run/","en,en-US;q=0.9","h1jry861v0oj2uj","49","[""White""]","No","Female","2265960.100000024","26767","","","{""price_1"":""1800"",""price_2"":""1600"",""price_3"":""1400""}","rating","ctd","attraction_2","1","washing machines","null","null","null","null","null","null","2","60","50","60","50","60","40","Average lifespan","Energy savings","",""
"","","","","","rating_trial_setup","html-keyboard-response","51","1341423","0.0-3.0-0.24","174","1","2025-04-14 14:29:29","bb671e3ae32f654b8954ea4c4635f915","","Mozilla/5.0 (Windows NT 10.0; Win64; x64) AppleWebKit/537.36 (KHTML, like Gecko) Chrome/121.0.0.0 Safari/537.36","WebKit","Chrome","121.0.0.0","Windows","10.0","https://hz8g1ckzuq.cognition.run/","en,en-US;q=0.9","h1jry861v0oj2uj","49","[""White""]","No","Female","2265960.100000024","null","","<p></p>","null","rating","dct","repulsion_1","2","microwave ovens","null","null","null","null","null","null","2","","","","","","","","","",""
"","","","","","rating_trial","survey-html-form","52","1370031","0.0-3.0-1.24","174","1","2025-04-14 14:29:29","bb671e3ae32f654b8954ea4c4635f915","","Mozilla/5.0 (Windows NT 10.0; Win64; x64) AppleWebKit/537.36 (KHTML, like Gecko) Chrome/121.0.0.0 Safari/537.36","WebKit","Chrome","121.0.0.0","Windows","10.0","https://hz8g1ckzuq.cognition.run/","en,en-US;q=0.9","h1jry861v0oj2uj","49","[""White""]","No","Female","2265960.100000024","28592","","","{""price_1"":""1000"",""price_2"":""900"",""price_3"":""1000""}","rating","dct","repulsion_1","2","microwave ovens","null","null","null","null","null","null","2","30","40","25","100","90","100","Warranty","Cooking power","",""
"","","","","","rating_trial_setup","html-keyboard-response","53","1370346","0.0-3.0-0.25","174","1","2025-04-14 14:29:29","bb671e3ae32f654b8954ea4c4635f915","","Mozilla/5.0 (Windows NT 10.0; Win64; x64) AppleWebKit/537.36 (KHTML, like Gecko) Chrome/121.0.0.0 Safari/537.36","WebKit","Chrome","121.0.0.0","Windows","10.0","https://hz8g1ckzuq.cognition.run/","en,en-US;q=0.9","h1jry861v0oj2uj","49","[""White""]","No","Female","2265960.100000024","null","","<p></p>","null","rating","bww","catch","null","microwave ovens","75","55","25","5","5","35","1","","","","","","","","","",""
"","","","","","rating_trial","survey-html-form","54","1421257","0.0-3.0-1.25","174","1","2025-04-14 14:29:29","bb671e3ae32f654b8954ea4c4635f915","","Mozilla/5.0 (Windows NT 10.0; Win64; x64) AppleWebKit/537.36 (KHTML, like Gecko) Chrome/121.0.0.0 Safari/537.36","WebKit","Chrome","121.0.0.0","Windows","10.0","https://hz8g1ckzuq.cognition.run/","en,en-US;q=0.9","h1jry861v0oj2uj","49","[""White""]","No","Female","2265960.100000024","50897","","","{""price_1"":""800"",""price_2"":""100"",""price_3"":""400""}","rating","bww","catch","null","microwave ovens","75","55","25","5","5","35","1","null","null","null","null","null","null","Warranty","Cooking power","",""
"","","","","","rating_trial_setup","html-keyboard-response","55","1421577","0.0-3.0-0.26","174","1","2025-04-14 14:29:29","bb671e3ae32f654b8954ea4c4635f915","","Mozilla/5.0 (Windows NT 10.0; Win64; x64) AppleWebKit/537.36 (KHTML, like Gecko) Chrome/121.0.0.0 Safari/537.36","WebKit","Chrome","121.0.0.0","Windows","10.0","https://hz8g1ckzuq.cognition.run/","en,en-US;q=0.9","h1jry861v0oj2uj","49","[""White""]","No","Female","2265960.100000024","null","","<p></p>","null","rating","wbw","catch","null","televisions","65","65","5","35","20","50","2","","","","","","","","","",""
"","","","","","rating_trial","survey-html-form","56","1455883","0.0-3.0-1.26","174","1","2025-04-14 14:29:29","bb671e3ae32f654b8954ea4c4635f915","","Mozilla/5.0 (Windows NT 10.0; Win64; x64) AppleWebKit/537.36 (KHTML, like Gecko) Chrome/121.0.0.0 Safari/537.36","WebKit","Chrome","121.0.0.0","Windows","10.0","https://hz8g1ckzuq.cognition.run/","en,en-US;q=0.9","h1jry861v0oj2uj","49","[""White""]","No","Female","2265960.100000024","34290","","","{""price_1"":""100"",""price_2"":""900"",""price_3"":""400""}","rating","wbw","catch","null","televisions","65","65","5","35","20","50","2","null","null","null","null","null","null","Screen size","Average lifespan","",""
"","","","","","rating_trial_setup","html-keyboard-response","57","1456202","0.0-3.0-0.27","174","1","2025-04-14 14:29:29","bb671e3ae32f654b8954ea4c4635f915","","Mozilla/5.0 (Windows NT 10.0; Win64; x64) AppleWebKit/537.36 (KHTML, like Gecko) Chrome/121.0.0.0 Safari/537.36","WebKit","Chrome","121.0.0.0","Windows","10.0","https://hz8g1ckzuq.cognition.run/","en,en-US;q=0.9","h1jry861v0oj2uj","49","[""White""]","No","Female","2265960.100000024","null","","<p></p>","null","rating","bww","catch","null","laptops","65","65","10","15","25","50","2","","","","","","","","","",""
"","","","","","rating_trial","survey-html-form","58","1475624","0.0-3.0-1.27","174","1","2025-04-14 14:29:29","bb671e3ae32f654b8954ea4c4635f915","","Mozilla/5.0 (Windows NT 10.0; Win64; x64) AppleWebKit/537.36 (KHTML, like Gecko) Chrome/121.0.0.0 Safari/537.36","WebKit","Chrome","121.0.0.0","Windows","10.0","https://hz8g1ckzuq.cognition.run/","en,en-US;q=0.9","h1jry861v0oj2uj","49","[""White""]","No","Female","2265960.100000024","19407","","","{""price_1"":""700"",""price_2"":""200"",""price_3"":""450""}","rating","bww","catch","null","laptops","65","65","10","15","25","50","2","null","null","null","null","null","null","Processing speed","Memory (RAM)","",""
"","","","","","rating_trial_setup","html-keyboard-response","59","1475939","0.0-3.0-0.28","174","1","2025-04-14 14:29:29","bb671e3ae32f654b8954ea4c4635f915","","Mozilla/5.0 (Windows NT 10.0; Win64; x64) AppleWebKit/537.36 (KHTML, like Gecko) Chrome/121.0.0.0 Safari/537.36","WebKit","Chrome","121.0.0.0","Windows","10.0","https://hz8g1ckzuq.cognition.run/","en,en-US;q=0.9","h1jry861v0oj2uj","49","[""White""]","No","Female","2265960.100000024","null","","<p></p>","null","rating","cdt","attraction_2","1","microwave ovens","null","null","null","null","null","null","2","","","","","","","","","",""
"","","","","","rating_trial","survey-html-form","60","1506263","0.0-3.0-1.28","174","1","2025-04-14 14:29:29","bb671e3ae32f654b8954ea4c4635f915","","Mozilla/5.0 (Windows NT 10.0; Win64; x64) AppleWebKit/537.36 (KHTML, like Gecko) Chrome/121.0.0.0 Safari/537.36","WebKit","Chrome","121.0.0.0","Windows","10.0","https://hz8g1ckzuq.cognition.run/","en,en-US;q=0.9","h1jry861v0oj2uj","49","[""White""]","No","Female","2265960.100000024","30309","","","{""price_1"":""1000"",""price_2"":""800"",""price_3"":""950""}","rating","cdt","attraction_2","1","microwave ovens","null","null","null","null","null","null","2","60","50","60","50","60","40","Warranty","Cooking power","",""
"","","","","","rating_trial_setup","html-keyboard-response","61","1506581","0.0-3.0-0.29","174","1","2025-04-14 14:29:29","bb671e3ae32f654b8954ea4c4635f915","","Mozilla/5.0 (Windows NT 10.0; Win64; x64) AppleWebKit/537.36 (KHTML, like Gecko) Chrome/121.0.0.0 Safari/537.36","WebKit","Chrome","121.0.0.0","Windows","10.0","https://hz8g1ckzuq.cognition.run/","en,en-US;q=0.9","h1jry861v0oj2uj","49","[""White""]","No","Female","2265960.100000024","null","","<p></p>","null","rating","dct","repulsion_1","1","washing machines","null","null","null","null","null","null","1","","","","","","","","","",""
"","","","","","rating_trial","survey-html-form","62","1529151","0.0-3.0-1.29","174","1","2025-04-14 14:29:29","bb671e3ae32f654b8954ea4c4635f915","","Mozilla/5.0 (Windows NT 10.0; Win64; x64) AppleWebKit/537.36 (KHTML, like Gecko) Chrome/121.0.0.0 Safari/537.36","WebKit","Chrome","121.0.0.0","Windows","10.0","https://hz8g1ckzuq.cognition.run/","en,en-US;q=0.9","h1jry861v0oj2uj","49","[""White""]","No","Female","2265960.100000024","22552","","","{""price_1"":""1200"",""price_2"":""1400"",""price_3"":""1300""}","rating","dct","repulsion_1","1","washing machines","null","null","null","null","null","null","1","100","90","100","30","40","25","Average lifespan","Energy savings","",""
"","","","","","rating_trial_setup","html-keyboard-response","63","1529467","0.0-3.0-0.30","174","1","2025-04-14 14:29:29","bb671e3ae32f654b8954ea4c4635f915","","Mozilla/5.0 (Windows NT 10.0; Win64; x64) AppleWebKit/537.36 (KHTML, like Gecko) Chrome/121.0.0.0 Safari/537.36","WebKit","Chrome","121.0.0.0","Windows","10.0","https://hz8g1ckzuq.cognition.run/","en,en-US;q=0.9","h1jry861v0oj2uj","49","[""White""]","No","Female","2265960.100000024","null","","<p></p>","null","rating","tcd","attraction_1","1","laptops","null","null","null","null","null","null","2","","","","","","","","","",""
"","","","","","rating_trial","survey-html-form","64","1550167","0.0-3.0-1.30","174","1","2025-04-14 14:29:29","bb671e3ae32f654b8954ea4c4635f915","","Mozilla/5.0 (Windows NT 10.0; Win64; x64) AppleWebKit/537.36 (KHTML, like Gecko) Chrome/121.0.0.0 Safari/537.36","WebKit","Chrome","121.0.0.0","Windows","10.0","https://hz8g1ckzuq.cognition.run/","en,en-US;q=0.9","h1jry861v0oj2uj","49","[""White""]","No","Female","2265960.100000024","20682","","","{""price_1"":""800"",""price_2"":""900"",""price_3"":""500""}","rating","tcd","attraction_1","1","laptops","null","null","null","null","null","null","2","60","50","60","50","60","45","Processing speed","Memory (RAM)","",""
"","","","","","rating_trial_setup","html-keyboard-response","65","1550482","0.0-3.0-0.31","174","1","2025-04-14 14:29:29","bb671e3ae32f654b8954ea4c4635f915","","Mozilla/5.0 (Windows NT 10.0; Win64; x64) AppleWebKit/537.36 (KHTML, like Gecko) Chrome/121.0.0.0 Safari/537.36","WebKit","Chrome","121.0.0.0","Windows","10.0","https://hz8g1ckzuq.cognition.run/","en,en-US;q=0.9","h1jry861v0oj2uj","49","[""White""]","No","Female","2265960.100000024","null","","<p></p>","null","rating","tdc","repulsion_1","1","laptops","null","null","null","null","null","null","2","","","","","","","","","",""
"","","","","","rating_trial","survey-html-form","66","1567911","0.0-3.0-1.31","174","1","2025-04-14 14:29:29","bb671e3ae32f654b8954ea4c4635f915","","Mozilla/5.0 (Windows NT 10.0; Win64; x64) AppleWebKit/537.36 (KHTML, like Gecko) Chrome/121.0.0.0 Safari/537.36","WebKit","Chrome","121.0.0.0","Windows","10.0","https://hz8g1ckzuq.cognition.run/","en,en-US;q=0.9","h1jry861v0oj2uj","49","[""White""]","No","Female","2265960.100000024","17411","","","{""price_1"":""600"",""price_2"":""550"",""price_3"":""700""}","rating","tdc","repulsion_1","1","laptops","null","null","null","null","null","null","2","100","90","100","30","40","25","Processing speed","Memory (RAM)","",""
"","","","","","rating_trial_setup","html-keyboard-response","67","1568225","0.0-3.0-0.32","174","1","2025-04-14 14:29:29","bb671e3ae32f654b8954ea4c4635f915","","Mozilla/5.0 (Windows NT 10.0; Win64; x64) AppleWebKit/537.36 (KHTML, like Gecko) Chrome/121.0.0.0 Safari/537.36","WebKit","Chrome","121.0.0.0","Windows","10.0","https://hz8g1ckzuq.cognition.run/","en,en-US;q=0.9","h1jry861v0oj2uj","49","[""White""]","No","Female","2265960.100000024","null","","<p></p>","null","rating","dtc","attraction_1","1","microwave ovens","null","null","null","null","null","null","2","","","","","","","","","",""
"","","","","","rating_trial","survey-html-form","68","1598906","0.0-3.0-1.32","174","1","2025-04-14 14:29:29","bb671e3ae32f654b8954ea4c4635f915","","Mozilla/5.0 (Windows NT 10.0; Win64; x64) AppleWebKit/537.36 (KHTML, like Gecko) Chrome/121.0.0.0 Safari/537.36","WebKit","Chrome","121.0.0.0","Windows","10.0","https://hz8g1ckzuq.cognition.run/","en,en-US;q=0.9","h1jry861v0oj2uj","49","[""White""]","No","Female","2265960.100000024","30664","","","{""price_1"":""800"",""price_2"":""900"",""price_3"":""1000""}","rating","dtc","attraction_1","1","microwave ovens","null","null","null","null","null","null","2","60","50","60","50","60","45","Warranty","Cooking power","",""
"","","","","","rating_trial_setup","html-keyboard-response","69","1599229","0.0-3.0-0.33","174","1","2025-04-14 14:29:29","bb671e3ae32f654b8954ea4c4635f915","","Mozilla/5.0 (Windows NT 10.0; Win64; x64) AppleWebKit/537.36 (KHTML, like Gecko) Chrome/121.0.0.0 Safari/537.36","WebKit","Chrome","121.0.0.0","Windows","10.0","https://hz8g1ckzuq.cognition.run/","en,en-US;q=0.9","h1jry861v0oj2uj","49","[""White""]","No","Female","2265960.100000024","null","","<p></p>","null","rating","cdt","attraction_1","1","televisions","null","null","null","null","null","null","1","","","","","","","","","",""
"","","","","","rating_trial","survey-html-form","70","1625400","0.0-3.0-1.33","174","1","2025-04-14 14:29:29","bb671e3ae32f654b8954ea4c4635f915","","Mozilla/5.0 (Windows NT 10.0; Win64; x64) AppleWebKit/537.36 (KHTML, like Gecko) Chrome/121.0.0.0 Safari/537.36","WebKit","Chrome","121.0.0.0","Windows","10.0","https://hz8g1ckzuq.cognition.run/","en,en-US;q=0.9","h1jry861v0oj2uj","49","[""White""]","No","Female","2265960.100000024","26154","","","{""price_1"":""1300"",""price_2"":""1500"",""price_3"":""1500""}","rating","cdt","attraction_1","1","televisions","null","null","null","null","null","null","1","60","50","60","50","60","45","Screen size","Average lifespan","",""
"","","","","","rating_trial_setup","html-keyboard-response","71","1625716","0.0-3.0-0.34","174","1","2025-04-14 14:29:29","bb671e3ae32f654b8954ea4c4635f915","","Mozilla/5.0 (Windows NT 10.0; Win64; x64) AppleWebKit/537.36 (KHTML, like Gecko) Chrome/121.0.0.0 Safari/537.36","WebKit","Chrome","121.0.0.0","Windows","10.0","https://hz8g1ckzuq.cognition.run/","en,en-US;q=0.9","h1jry861v0oj2uj","49","[""White""]","No","Female","2265960.100000024","null","","<p></p>","null","rating","dtc","repulsion_2","1","televisions","null","null","null","null","null","null","2","","","","","","","","","",""
"","","","","","rating_trial","survey-html-form","72","1650027","0.0-3.0-1.34","174","1","2025-04-14 14:29:29","bb671e3ae32f654b8954ea4c4635f915","","Mozilla/5.0 (Windows NT 10.0; Win64; x64) AppleWebKit/537.36 (KHTML, like Gecko) Chrome/121.0.0.0 Safari/537.36","WebKit","Chrome","121.0.0.0","Windows","10.0","https://hz8g1ckzuq.cognition.run/","en,en-US;q=0.9","h1jry861v0oj2uj","49","[""White""]","No","Female","2265960.100000024","24294","","","{""price_1"":""1700"",""price_2"":""1700"",""price_3"":""1600""}","rating","dtc","repulsion_2","1","televisions","null","null","null","null","null","null","2","100","90","100","30","40","20","Screen size","Average lifespan","",""
"","","","","","rating_trial_setup","html-keyboard-response","73","1650351","0.0-3.0-0.35","174","1","2025-04-14 14:29:29","bb671e3ae32f654b8954ea4c4635f915","","Mozilla/5.0 (Windows NT 10.0; Win64; x64) AppleWebKit/537.36 (KHTML, like Gecko) Chrome/121.0.0.0 Safari/537.36","WebKit","Chrome","121.0.0.0","Windows","10.0","https://hz8g1ckzuq.cognition.run/","en,en-US;q=0.9","h1jry861v0oj2uj","49","[""White""]","No","Female","2265960.100000024","null","","<p></p>","null","rating","cdt","repulsion_2","2","microwave ovens","null","null","null","null","null","null","1","","","","","","","","","",""
"","","","","","rating_trial","survey-html-form","74","1672794","0.0-3.0-1.35","174","1","2025-04-14 14:29:29","bb671e3ae32f654b8954ea4c4635f915","","Mozilla/5.0 (Windows NT 10.0; Win64; x64) AppleWebKit/537.36 (KHTML, like Gecko) Chrome/121.0.0.0 Safari/537.36","WebKit","Chrome","121.0.0.0","Windows","10.0","https://hz8g1ckzuq.cognition.run/","en,en-US;q=0.9","h1jry861v0oj2uj","49","[""White""]","No","Female","2265960.100000024","22426","","","{""price_1"":""2000"",""price_2"":""2200"",""price_3"":""2200""}","rating","cdt","repulsion_2","2","microwave ovens","null","null","null","null","null","null","1","30","40","20","100","90","100","Warranty","Cooking power","",""
"","","","","","rating_trial_setup","html-keyboard-response","75","1673108","0.0-3.0-0.36","174","1","2025-04-14 14:29:29","bb671e3ae32f654b8954ea4c4635f915","","Mozilla/5.0 (Windows NT 10.0; Win64; x64) AppleWebKit/537.36 (KHTML, like Gecko) Chrome/121.0.0.0 Safari/537.36","WebKit","Chrome","121.0.0.0","Windows","10.0","https://hz8g1ckzuq.cognition.run/","en,en-US;q=0.9","h1jry861v0oj2uj","49","[""White""]","No","Female","2265960.100000024","null","","<p></p>","null","rating","tdc","repulsion_1","2","washing machines","null","null","null","null","null","null","2","","","","","","","","","",""
"","","","","","rating_trial","survey-html-form","76","1707265","0.0-3.0-1.36","174","1","2025-04-14 14:29:29","bb671e3ae32f654b8954ea4c4635f915","","Mozilla/5.0 (Windows NT 10.0; Win64; x64) AppleWebKit/537.36 (KHTML, like Gecko) Chrome/121.0.0.0 Safari/537.36","WebKit","Chrome","121.0.0.0","Windows","10.0","https://hz8g1ckzuq.cognition.run/","en,en-US;q=0.9","h1jry861v0oj2uj","49","[""White""]","No","Female","2265960.100000024","34137","","","{""price_1"":""900"",""price_2"":""900"",""price_3"":""750""}","rating","tdc","repulsion_1","2","washing machines","null","null","null","null","null","null","2","30","40","25","100","90","100","Average lifespan","Energy savings","",""
"","","","","","rating_trial_setup","html-keyboard-response","77","1707594","0.0-3.0-0.37","174","1","2025-04-14 14:29:29","bb671e3ae32f654b8954ea4c4635f915","","Mozilla/5.0 (Windows NT 10.0; Win64; x64) AppleWebKit/537.36 (KHTML, like Gecko) Chrome/121.0.0.0 Safari/537.36","WebKit","Chrome","121.0.0.0","Windows","10.0","https://hz8g1ckzuq.cognition.run/","en,en-US;q=0.9","h1jry861v0oj2uj","49","[""White""]","No","Female","2265960.100000024","null","","<p></p>","null","rating","ctd","attraction_1","2","washing machines","null","null","null","null","null","null","2","","","","","","","","","",""
"","","","","","rating_trial","survey-html-form","78","1732683","0.0-3.0-1.37","174","1","2025-04-14 14:29:29","bb671e3ae32f654b8954ea4c4635f915","","Mozilla/5.0 (Windows NT 10.0; Win64; x64) AppleWebKit/537.36 (KHTML, like Gecko) Chrome/121.0.0.0 Safari/537.36","WebKit","Chrome","121.0.0.0","Windows","10.0","https://hz8g1ckzuq.cognition.run/","en,en-US;q=0.9","h1jry861v0oj2uj","49","[""White""]","No","Female","2265960.100000024","25070","","","{""price_1"":""900"",""price_2"":""1000"",""price_3"":""1000""}","rating","ctd","attraction_1","2","washing machines","null","null","null","null","null","null","2","50","60","45","60","50","60","Average lifespan","Energy savings","",""
"","","","","","rating_trial_setup","html-keyboard-response","79","1732994","0.0-3.0-0.38","174","1","2025-04-14 14:29:29","bb671e3ae32f654b8954ea4c4635f915","","Mozilla/5.0 (Windows NT 10.0; Win64; x64) AppleWebKit/537.36 (KHTML, like Gecko) Chrome/121.0.0.0 Safari/537.36","WebKit","Chrome","121.0.0.0","Windows","10.0","https://hz8g1ckzuq.cognition.run/","en,en-US;q=0.9","h1jry861v0oj2uj","49","[""White""]","No","Female","2265960.100000024","null","","<p></p>","null","rating","tdc","attraction_1","2","laptops","null","null","null","null","null","null","1","","","","","","","","","",""
"","","","","","rating_trial","survey-html-form","80","1756202","0.0-3.0-1.38","174","1","2025-04-14 14:29:29","bb671e3ae32f654b8954ea4c4635f915","","Mozilla/5.0 (Windows NT 10.0; Win64; x64) AppleWebKit/537.36 (KHTML, like Gecko) Chrome/121.0.0.0 Safari/537.36","WebKit","Chrome","121.0.0.0","Windows","10.0","https://hz8g1ckzuq.cognition.run/","en,en-US;q=0.9","h1jry861v0oj2uj","49","[""White""]","No","Female","2265960.100000024","23188","","","{""price_1"":""800"",""price_2"":""850"",""price_3"":""800""}","rating","tdc","attraction_1","2","laptops","null","null","null","null","null","null","1","50","60","45","60","50","60","Processing speed","Memory (RAM)","",""
"","","","","","rating_trial_setup","html-keyboard-response","81","1756516","0.0-3.0-0.39","174","1","2025-04-14 14:29:29","bb671e3ae32f654b8954ea4c4635f915","","Mozilla/5.0 (Windows NT 10.0; Win64; x64) AppleWebKit/537.36 (KHTML, like Gecko) Chrome/121.0.0.0 Safari/537.36","WebKit","Chrome","121.0.0.0","Windows","10.0","https://hz8g1ckzuq.cognition.run/","en,en-US;q=0.9","h1jry861v0oj2uj","49","[""White""]","No","Female","2265960.100000024","null","","<p></p>","null","rating","ctd","attraction_1","2","televisions","null","null","null","null","null","null","1","","","","","","","","","",""
"","","","","","rating_trial","survey-html-form","82","1782718","0.0-3.0-1.39","174","1","2025-04-14 14:29:29","bb671e3ae32f654b8954ea4c4635f915","","Mozilla/5.0 (Windows NT 10.0; Win64; x64) AppleWebKit/537.36 (KHTML, like Gecko) Chrome/121.0.0.0 Safari/537.36","WebKit","Chrome","121.0.0.0","Windows","10.0","https://hz8g1ckzuq.cognition.run/","en,en-US;q=0.9","h1jry861v0oj2uj","49","[""White""]","No","Female","2265960.100000024","26180","","","{""price_1"":""1300"",""price_2"":""1100"",""price_3"":""1000""}","rating","ctd","attraction_1","2","televisions","null","null","null","null","null","null","1","50","60","45","60","50","60","Screen size","Average lifespan","",""
"","","","","","","instructions","83","1848772","0.0-4.0","174","1","2025-04-14 14:29:29","bb671e3ae32f654b8954ea4c4635f915","","Mozilla/5.0 (Windows NT 10.0; Win64; x64) AppleWebKit/537.36 (KHTML, like Gecko) Chrome/121.0.0.0 Safari/537.36","WebKit","Chrome","121.0.0.0","Windows","10.0","https://hz8g1ckzuq.cognition.run/","en,en-US;q=0.9","h1jry861v0oj2uj","49","[""White""]","No","Female","2265960.100000024","66049","[{""page_index"":0,""viewing_time"":2334},{""page_index"":1,""viewing_time"":2352},{""page_index"":2,""viewing_time"":9684},{""page_index"":3,""viewing_time"":3991},{""page_index"":4,""viewing_time"":5988},{""page_index"":5,""viewing_time"":6222},{""page_index"":6,""viewing_time"":29963},{""page_index"":7,""viewing_time"":5516}]","","","","","","","","","","","","","","","","","","","","","","","",""
"","","","","","choice_trial_setup","html-keyboard-response","84","1849095","0.0-5.0-0.0","174","1","2025-04-14 14:29:29","bb671e3ae32f654b8954ea4c4635f915","","Mozilla/5.0 (Windows NT 10.0; Win64; x64) AppleWebKit/537.36 (KHTML, like Gecko) Chrome/121.0.0.0 Safari/537.36","WebKit","Chrome","121.0.0.0","Windows","10.0","https://hz8g1ckzuq.cognition.run/","en,en-US;q=0.9","h1jry861v0oj2uj","49","[""White""]","No","Female","2265960.100000024","null","","<p></p>","null","choice","wwb","catch","null","televisions","80","75","10","35","10","45","2","","","","","","","","","",""
"","","","","","choice_trial","survey-html-form","85","1856128","0.0-5.0-1.0","174","1","2025-04-14 14:29:29","bb671e3ae32f654b8954ea4c4635f915","","Mozilla/5.0 (Windows NT 10.0; Win64; x64) AppleWebKit/537.36 (KHTML, like Gecko) Chrome/121.0.0.0 Safari/537.36","WebKit","Chrome","121.0.0.0","Windows","10.0","https://hz8g1ckzuq.cognition.run/","en,en-US;q=0.9","h1jry861v0oj2uj","49","[""White""]","No","Female","2265960.100000024","7006","","","{""product_choice"":""C""}","choice","wwb","catch","null","televisions","80","75","10","35","10","45","2","null","null","null","null","null","null","Screen size","Average lifespan","",""
"","","","","","choice_trial_setup","html-keyboard-response","86","1856445","0.0-5.0-0.1","174","1","2025-04-14 14:29:29","bb671e3ae32f654b8954ea4c4635f915","","Mozilla/5.0 (Windows NT 10.0; Win64; x64) AppleWebKit/537.36 (KHTML, like Gecko) Chrome/121.0.0.0 Safari/537.36","WebKit","Chrome","121.0.0.0","Windows","10.0","https://hz8g1ckzuq.cognition.run/","en,en-US;q=0.9","h1jry861v0oj2uj","49","[""White""]","No","Female","2265960.100000024","null","","<p></p>","null","choice","tcd","repulsion_2","2","televisions","null","null","null","null","null","null","1","","","","","","","","","",""
"","","","","","choice_trial","survey-html-form","87","1867618","0.0-5.0-1.1","174","1","2025-04-14 14:29:29","bb671e3ae32f654b8954ea4c4635f915","","Mozilla/5.0 (Windows NT 10.0; Win64; x64) AppleWebKit/537.36 (KHTML, like Gecko) Chrome/121.0.0.0 Safari/537.36","WebKit","Chrome","121.0.0.0","Windows","10.0","https://hz8g1ckzuq.cognition.run/","en,en-US;q=0.9","h1jry861v0oj2uj","49","[""White""]","No","Female","2265960.100000024","11155","","","{""product_choice"":""B""}","choice","tcd","repulsion_2","2","televisions","null","null","null","null","null","null","1","30","40","20","100","90","100","Screen size","Average lifespan","",""
"","","","","","choice_trial_setup","html-keyboard-response","88","1867942","0.0-5.0-0.2","174","1","2025-04-14 14:29:29","bb671e3ae32f654b8954ea4c4635f915","","Mozilla/5.0 (Windows NT 10.0; Win64; x64) AppleWebKit/537.36 (KHTML, like Gecko) Chrome/121.0.0.0 Safari/537.36","WebKit","Chrome","121.0.0.0","Windows","10.0","https://hz8g1ckzuq.cognition.run/","en,en-US;q=0.9","h1jry861v0oj2uj","49","[""White""]","No","Female","2265960.100000024","null","","<p></p>","null","choice","dtc","attraction_2","2","laptops","null","null","null","null","null","null","2","","","","","","","","","",""
"","","","","","choice_trial","survey-html-form","89","1874648","0.0-5.0-1.2","174","1","2025-04-14 14:29:29","bb671e3ae32f654b8954ea4c4635f915","","Mozilla/5.0 (Windows NT 10.0; Win64; x64) AppleWebKit/537.36 (KHTML, like Gecko) Chrome/121.0.0.0 Safari/537.36","WebKit","Chrome","121.0.0.0","Windows","10.0","https://hz8g1ckzuq.cognition.run/","en,en-US;q=0.9","h1jry861v0oj2uj","49","[""White""]","No","Female","2265960.100000024","6685","","","{""product_choice"":""B""}","choice","dtc","attraction_2","2","laptops","null","null","null","null","null","null","2","50","60","40","60","50","60","Processing speed","Memory (RAM)","",""
"","","","","","choice_trial_setup","html-keyboard-response","90","1874964","0.0-5.0-0.3","174","1","2025-04-14 14:29:29","bb671e3ae32f654b8954ea4c4635f915","","Mozilla/5.0 (Windows NT 10.0; Win64; x64) AppleWebKit/537.36 (KHTML, like Gecko) Chrome/121.0.0.0 Safari/537.36","WebKit","Chrome","121.0.0.0","Windows","10.0","https://hz8g1ckzuq.cognition.run/","en,en-US;q=0.9","h1jry861v0oj2uj","49","[""White""]","No","Female","2265960.100000024","null","","<p></p>","null","choice","dtc","repulsion_1","2","laptops","null","null","null","null","null","null","2","","","","","","","","","",""
"","","","","","choice_trial","survey-html-form","91","1883370","0.0-5.0-1.3","174","1","2025-04-14 14:29:29","bb671e3ae32f654b8954ea4c4635f915","","Mozilla/5.0 (Windows NT 10.0; Win64; x64) AppleWebKit/537.36 (KHTML, like Gecko) Chrome/121.0.0.0 Safari/537.36","WebKit","Chrome","121.0.0.0","Windows","10.0","https://hz8g1ckzuq.cognition.run/","en,en-US;q=0.9","h1jry861v0oj2uj","49","[""White""]","No","Female","2265960.100000024","8386","","","{""product_choice"":""B""}","choice","dtc","repulsion_1","2","laptops","null","null","null","null","null","null","2","30","40","25","100","90","100","Processing speed","Memory (RAM)","",""
"","","","","","choice_trial_setup","html-keyboard-response","92","1883686","0.0-5.0-0.4","174","1","2025-04-14 14:29:29","bb671e3ae32f654b8954ea4c4635f915","","Mozilla/5.0 (Windows NT 10.0; Win64; x64) AppleWebKit/537.36 (KHTML, like Gecko) Chrome/121.0.0.0 Safari/537.36","WebKit","Chrome","121.0.0.0","Windows","10.0","https://hz8g1ckzuq.cognition.run/","en,en-US;q=0.9","h1jry861v0oj2uj","49","[""White""]","No","Female","2265960.100000024","null","","<p></p>","null","choice","tdc","repulsion_2","2","laptops","null","null","null","null","null","null","2","","","","","","","","","",""
"","","","","","choice_trial","survey-html-form","93","1893390","0.0-5.0-1.4","174","1","2025-04-14 14:29:29","bb671e3ae32f654b8954ea4c4635f915","","Mozilla/5.0 (Windows NT 10.0; Win64; x64) AppleWebKit/537.36 (KHTML, like Gecko) Chrome/121.0.0.0 Safari/537.36","WebKit","Chrome","121.0.0.0","Windows","10.0","https://hz8g1ckzuq.cognition.run/","en,en-US;q=0.9","h1jry861v0oj2uj","49","[""White""]","No","Female","2265960.100000024","9684","","","{""product_choice"":""A""}","choice","tdc","repulsion_2","2","laptops","null","null","null","null","null","null","2","30","40","20","100","90","100","Processing speed","Memory (RAM)","",""
"","","","","","choice_trial_setup","html-keyboard-response","94","1893710","0.0-5.0-0.5","174","1","2025-04-14 14:29:29","bb671e3ae32f654b8954ea4c4635f915","","Mozilla/5.0 (Windows NT 10.0; Win64; x64) AppleWebKit/537.36 (KHTML, like Gecko) Chrome/121.0.0.0 Safari/537.36","WebKit","Chrome","121.0.0.0","Windows","10.0","https://hz8g1ckzuq.cognition.run/","en,en-US;q=0.9","h1jry861v0oj2uj","49","[""White""]","No","Female","2265960.100000024","null","","<p></p>","null","choice","dct","repulsion_1","1","laptops","null","null","null","null","null","null","2","","","","","","","","","",""
"","","","","","choice_trial","survey-html-form","95","1900641","0.0-5.0-1.5","174","1","2025-04-14 14:29:29","bb671e3ae32f654b8954ea4c4635f915","","Mozilla/5.0 (Windows NT 10.0; Win64; x64) AppleWebKit/537.36 (KHTML, like Gecko) Chrome/121.0.0.0 Safari/537.36","WebKit","Chrome","121.0.0.0","Windows","10.0","https://hz8g1ckzuq.cognition.run/","en,en-US;q=0.9","h1jry861v0oj2uj","49","[""White""]","No","Female","2265960.100000024","6909","","","{""product_choice"":""B""}","choice","dct","repulsion_1","1","laptops","null","null","null","null","null","null","2","100","90","100","30","40","25","Processing speed","Memory (RAM)","",""
"","","","","","choice_trial_setup","html-keyboard-response","96","1900958","0.0-5.0-0.6","174","1","2025-04-14 14:29:29","bb671e3ae32f654b8954ea4c4635f915","","Mozilla/5.0 (Windows NT 10.0; Win64; x64) AppleWebKit/537.36 (KHTML, like Gecko) Chrome/121.0.0.0 Safari/537.36","WebKit","Chrome","121.0.0.0","Windows","10.0","https://hz8g1ckzuq.cognition.run/","en,en-US;q=0.9","h1jry861v0oj2uj","49","[""White""]","No","Female","2265960.100000024","null","","<p></p>","null","choice","dtc","attraction_2","2","washing machines","null","null","null","null","null","null","2","","","","","","","","","",""
"","","","","","choice_trial","survey-html-form","97","1911730","0.0-5.0-1.6","174","1","2025-04-14 14:29:29","bb671e3ae32f654b8954ea4c4635f915","","Mozilla/5.0 (Windows NT 10.0; Win64; x64) AppleWebKit/537.36 (KHTML, like Gecko) Chrome/121.0.0.0 Safari/537.36","WebKit","Chrome","121.0.0.0","Windows","10.0","https://hz8g1ckzuq.cognition.run/","en,en-US;q=0.9","h1jry861v0oj2uj","49","[""White""]","No","Female","2265960.100000024","10751","","","{""product_choice"":""B""}","choice","dtc","attraction_2","2","washing machines","null","null","null","null","null","null","2","50","60","40","60","50","60","Average lifespan","Energy savings","",""
"","","","","","choice_trial_setup","html-keyboard-response","98","1912047","0.0-5.0-0.7","174","1","2025-04-14 14:29:29","bb671e3ae32f654b8954ea4c4635f915","","Mozilla/5.0 (Windows NT 10.0; Win64; x64) AppleWebKit/537.36 (KHTML, like Gecko) Chrome/121.0.0.0 Safari/537.36","WebKit","Chrome","121.0.0.0","Windows","10.0","https://hz8g1ckzuq.cognition.run/","en,en-US;q=0.9","h1jry861v0oj2uj","49","[""White""]","No","Female","2265960.100000024","null","","<p></p>","null","choice","wwb","catch","null","microwave ovens","90","70","50","30","45","15","2","","","","","","","","","",""
"","","","","","choice_trial","survey-html-form","99","1918280","0.0-5.0-1.7","174","1","2025-04-14 14:29:29","bb671e3ae32f654b8954ea4c4635f915","","Mozilla/5.0 (Windows NT 10.0; Win64; x64) AppleWebKit/537.36 (KHTML, like Gecko) Chrome/121.0.0.0 Safari/537.36","WebKit","Chrome","121.0.0.0","Windows","10.0","https://hz8g1ckzuq.cognition.run/","en,en-US;q=0.9","h1jry861v0oj2uj","49","[""White""]","No","Female","2265960.100000024","6209","","","{""product_choice"":""C""}","choice","wwb","catch","null","microwave ovens","90","70","50","30","45","15","2","null","null","null","null","null","null","Warranty","Cooking power","",""
"","","","","","choice_trial_setup","html-keyboard-response","100","1918592","0.0-5.0-0.8","174","1","2025-04-14 14:29:29","bb671e3ae32f654b8954ea4c4635f915","","Mozilla/5.0 (Windows NT 10.0; Win64; x64) AppleWebKit/537.36 (KHTML, like Gecko) Chrome/121.0.0.0 Safari/537.36","WebKit","Chrome","121.0.0.0","Windows","10.0","https://hz8g1ckzuq.cognition.run/","en,en-US;q=0.9","h1jry861v0oj2uj","49","[""White""]","No","Female","2265960.100000024","null","","<p></p>","null","choice","wwb","catch","null","microwave ovens","75","50","40","30","10","45","1","","","","","","","","","",""
"","","","","","choice_trial","survey-html-form","101","1927942","0.0-5.0-1.8","174","1","2025-04-14 14:29:29","bb671e3ae32f654b8954ea4c4635f915","","Mozilla/5.0 (Windows NT 10.0; Win64; x64) AppleWebKit/537.36 (KHTML, like Gecko) Chrome/121.0.0.0 Safari/537.36","WebKit","Chrome","121.0.0.0","Windows","10.0","https://hz8g1ckzuq.cognition.run/","en,en-US;q=0.9","h1jry861v0oj2uj","49","[""White""]","No","Female","2265960.100000024","9326","","","{""product_choice"":""C""}","choice","wwb","catch","null","microwave ovens","75","50","40","30","10","45","1","null","null","null","null","null","null","Warranty","Cooking power","",""
"","","","","","choice_trial_setup","html-keyboard-response","102","1928256","0.0-5.0-0.9","174","1","2025-04-14 14:29:29","bb671e3ae32f654b8954ea4c4635f915","","Mozilla/5.0 (Windows NT 10.0; Win64; x64) AppleWebKit/537.36 (KHTML, like Gecko) Chrome/121.0.0.0 Safari/537.36","WebKit","Chrome","121.0.0.0","Windows","10.0","https://hz8g1ckzuq.cognition.run/","en,en-US;q=0.9","h1jry861v0oj2uj","49","[""White""]","No","Female","2265960.100000024","null","","<p></p>","null","choice","dct","attraction_1","1","microwave ovens","null","null","null","null","null","null","1","","","","","","","","","",""
"","","","","","choice_trial","survey-html-form","103","1935482","0.0-5.0-1.9","174","1","2025-04-14 14:29:29","bb671e3ae32f654b8954ea4c4635f915","","Mozilla/5.0 (Windows NT 10.0; Win64; x64) AppleWebKit/537.36 (KHTML, like Gecko) Chrome/121.0.0.0 Safari/537.36","WebKit","Chrome","121.0.0.0","Windows","10.0","https://hz8g1ckzuq.cognition.run/","en,en-US;q=0.9","h1jry861v0oj2uj","49","[""White""]","No","Female","2265960.100000024","7203","","","{""product_choice"":""B""}","choice","dct","attraction_1","1","microwave ovens","null","null","null","null","null","null","1","60","50","60","50","60","45","Warranty","Cooking power","",""
"","","","","","choice_trial_setup","html-keyboard-response","104","1935798","0.0-5.0-0.10","174","1","2025-04-14 14:29:29","bb671e3ae32f654b8954ea4c4635f915","","Mozilla/5.0 (Windows NT 10.0; Win64; x64) AppleWebKit/537.36 (KHTML, like Gecko) Chrome/121.0.0.0 Safari/537.36","WebKit","Chrome","121.0.0.0","Windows","10.0","https://hz8g1ckzuq.cognition.run/","en,en-US;q=0.9","h1jry861v0oj2uj","49","[""White""]","No","Female","2265960.100000024","null","","<p></p>","null","choice","dtc","repulsion_2","1","televisions","null","null","null","null","null","null","1","","","","","","","","","",""
"","","","","","choice_trial","survey-html-form","105","1942381","0.0-5.0-1.10","174","1","2025-04-14 14:29:29","bb671e3ae32f654b8954ea4c4635f915","","Mozilla/5.0 (Windows NT 10.0; Win64; x64) AppleWebKit/537.36 (KHTML, like Gecko) Chrome/121.0.0.0 Safari/537.36","WebKit","Chrome","121.0.0.0","Windows","10.0","https://hz8g1ckzuq.cognition.run/","en,en-US;q=0.9","h1jry861v0oj2uj","49","[""White""]","No","Female","2265960.100000024","6561","","","{""product_choice"":""B""}","choice","dtc","repulsion_2","1","televisions","null","null","null","null","null","null","1","100","90","100","30","40","20","Screen size","Average lifespan","",""
"","","","","","choice_trial_setup","html-keyboard-response","106","1942691","0.0-5.0-0.11","174","1","2025-04-14 14:29:29","bb671e3ae32f654b8954ea4c4635f915","","Mozilla/5.0 (Windows NT 10.0; Win64; x64) AppleWebKit/537.36 (KHTML, like Gecko) Chrome/121.0.0.0 Safari/537.36","WebKit","Chrome","121.0.0.0","Windows","10.0","https://hz8g1ckzuq.cognition.run/","en,en-US;q=0.9","h1jry861v0oj2uj","49","[""White""]","No","Female","2265960.100000024","null","","<p></p>","null","choice","dct","attraction_1","1","televisions","null","null","null","null","null","null","1","","","","","","","","","",""
"","","","","","choice_trial","survey-html-form","107","1952215","0.0-5.0-1.11","174","1","2025-04-14 14:29:29","bb671e3ae32f654b8954ea4c4635f915","","Mozilla/5.0 (Windows NT 10.0; Win64; x64) AppleWebKit/537.36 (KHTML, like Gecko) Chrome/121.0.0.0 Safari/537.36","WebKit","Chrome","121.0.0.0","Windows","10.0","https://hz8g1ckzuq.cognition.run/","en,en-US;q=0.9","h1jry861v0oj2uj","49","[""White""]","No","Female","2265960.100000024","9502","","","{""product_choice"":""C""}","choice","dct","attraction_1","1","televisions","null","null","null","null","null","null","1","60","50","60","50","60","45","Screen size","Average lifespan","",""
"","","","","","choice_trial_setup","html-keyboard-response","108","1952542","0.0-5.0-0.12","174","1","2025-04-14 14:29:29","bb671e3ae32f654b8954ea4c4635f915","","Mozilla/5.0 (Windows NT 10.0; Win64; x64) AppleWebKit/537.36 (KHTML, like Gecko) Chrome/121.0.0.0 Safari/537.36","WebKit","Chrome","121.0.0.0","Windows","10.0","https://hz8g1ckzuq.cognition.run/","en,en-US;q=0.9","h1jry861v0oj2uj","49","[""White""]","No","Female","2265960.100000024","null","","<p></p>","null","choice","ctd","repulsion_2","1","laptops","null","null","null","null","null","null","2","","","","","","","","","",""
"","","","","","choice_trial","survey-html-form","109","1960370","0.0-5.0-1.12","174","1","2025-04-14 14:29:29","bb671e3ae32f654b8954ea4c4635f915","","Mozilla/5.0 (Windows NT 10.0; Win64; x64) AppleWebKit/537.36 (KHTML, like Gecko) Chrome/121.0.0.0 Safari/537.36","WebKit","Chrome","121.0.0.0","Windows","10.0","https://hz8g1ckzuq.cognition.run/","en,en-US;q=0.9","h1jry861v0oj2uj","49","[""White""]","No","Female","2265960.100000024","7807","","","{""product_choice"":""A""}","choice","ctd","repulsion_2","1","laptops","null","null","null","null","null","null","2","100","90","100","30","40","20","Processing speed","Memory (RAM)","",""
"","","","","","choice_trial_setup","html-keyboard-response","110","1960683","0.0-5.0-0.13","174","1","2025-04-14 14:29:29","bb671e3ae32f654b8954ea4c4635f915","","Mozilla/5.0 (Windows NT 10.0; Win64; x64) AppleWebKit/537.36 (KHTML, like Gecko) Chrome/121.0.0.0 Safari/537.36","WebKit","Chrome","121.0.0.0","Windows","10.0","https://hz8g1ckzuq.cognition.run/","en,en-US;q=0.9","h1jry861v0oj2uj","49","[""White""]","No","Female","2265960.100000024","null","","<p></p>","null","choice","cdt","attraction_2","2","televisions","null","null","null","null","null","null","1","","","","","","","","","",""
"","","","","","choice_trial","survey-html-form","111","1968379","0.0-5.0-1.13","174","1","2025-04-14 14:29:29","bb671e3ae32f654b8954ea4c4635f915","","Mozilla/5.0 (Windows NT 10.0; Win64; x64) AppleWebKit/537.36 (KHTML, like Gecko) Chrome/121.0.0.0 Safari/537.36","WebKit","Chrome","121.0.0.0","Windows","10.0","https://hz8g1ckzuq.cognition.run/","en,en-US;q=0.9","h1jry861v0oj2uj","49","[""White""]","No","Female","2265960.100000024","7673","","","{""product_choice"":""A""}","choice","cdt","attraction_2","2","televisions","null","null","null","null","null","null","1","50","60","40","60","50","60","Screen size","Average lifespan","",""
"","","","","","choice_trial_setup","html-keyboard-response","112","1968694","0.0-5.0-0.14","174","1","2025-04-14 14:29:29","bb671e3ae32f654b8954ea4c4635f915","","Mozilla/5.0 (Windows NT 10.0; Win64; x64) AppleWebKit/537.36 (KHTML, like Gecko) Chrome/121.0.0.0 Safari/537.36","WebKit","Chrome","121.0.0.0","Windows","10.0","https://hz8g1ckzuq.cognition.run/","en,en-US;q=0.9","h1jry861v0oj2uj","49","[""White""]","No","Female","2265960.100000024","null","","<p></p>","null","choice","tdc","repulsion_1","1","washing machines","null","null","null","null","null","null","2","","","","","","","","","",""
"","","","","","choice_trial","survey-html-form","113","1976177","0.0-5.0-1.14","174","1","2025-04-14 14:29:29","bb671e3ae32f654b8954ea4c4635f915","","Mozilla/5.0 (Windows NT 10.0; Win64; x64) AppleWebKit/537.36 (KHTML, like Gecko) Chrome/121.0.0.0 Safari/537.36","WebKit","Chrome","121.0.0.0","Windows","10.0","https://hz8g1ckzuq.cognition.run/","en,en-US;q=0.9","h1jry861v0oj2uj","49","[""White""]","No","Female","2265960.100000024","7459","","","{""product_choice"":""C""}","choice","tdc","repulsion_1","1","washing machines","null","null","null","null","null","null","2","100","90","100","30","40","25","Average lifespan","Energy savings","",""
"","","","","","choice_trial_setup","html-keyboard-response","114","1976490","0.0-5.0-0.15","174","1","2025-04-14 14:29:29","bb671e3ae32f654b8954ea4c4635f915","","Mozilla/5.0 (Windows NT 10.0; Win64; x64) AppleWebKit/537.36 (KHTML, like Gecko) Chrome/121.0.0.0 Safari/537.36","WebKit","Chrome","121.0.0.0","Windows","10.0","https://hz8g1ckzuq.cognition.run/","en,en-US;q=0.9","h1jry861v0oj2uj","49","[""White""]","No","Female","2265960.100000024","null","","<p></p>","null","choice","wbw","catch","null","laptops","70","60","5","45","10","25","2","","","","","","","","","",""
"","","","","","choice_trial","survey-html-form","115","1981305","0.0-5.0-1.15","174","1","2025-04-14 14:29:29","bb671e3ae32f654b8954ea4c4635f915","","Mozilla/5.0 (Windows NT 10.0; Win64; x64) AppleWebKit/537.36 (KHTML, like Gecko) Chrome/121.0.0.0 Safari/537.36","WebKit","Chrome","121.0.0.0","Windows","10.0","https://hz8g1ckzuq.cognition.run/","en,en-US;q=0.9","h1jry861v0oj2uj","49","[""White""]","No","Female","2265960.100000024","4804","","","{""product_choice"":""B""}","choice","wbw","catch","null","laptops","70","60","5","45","10","25","2","null","null","null","null","null","null","Processing speed","Memory (RAM)","",""
"","","","","","choice_trial_setup","html-keyboard-response","116","1981629","0.0-5.0-0.16","174","1","2025-04-14 14:29:29","bb671e3ae32f654b8954ea4c4635f915","","Mozilla/5.0 (Windows NT 10.0; Win64; x64) AppleWebKit/537.36 (KHTML, like Gecko) Chrome/121.0.0.0 Safari/537.36","WebKit","Chrome","121.0.0.0","Windows","10.0","https://hz8g1ckzuq.cognition.run/","en,en-US;q=0.9","h1jry861v0oj2uj","49","[""White""]","No","Female","2265960.100000024","null","","<p></p>","null","choice","wbw","catch","null","laptops","70","60","40","30","35","35","2","","","","","","","","","",""
"","","","","","choice_trial","survey-html-form","117","1989642","0.0-5.0-1.16","174","1","2025-04-14 14:29:29","bb671e3ae32f654b8954ea4c4635f915","","Mozilla/5.0 (Windows NT 10.0; Win64; x64) AppleWebKit/537.36 (KHTML, like Gecko) Chrome/121.0.0.0 Safari/537.36","WebKit","Chrome","121.0.0.0","Windows","10.0","https://hz8g1ckzuq.cognition.run/","en,en-US;q=0.9","h1jry861v0oj2uj","49","[""White""]","No","Female","2265960.100000024","7987","","","{""product_choice"":""B""}","choice","wbw","catch","null","laptops","70","60","40","30","35","35","2","null","null","null","null","null","null","Processing speed","Memory (RAM)","",""
"","","","","","choice_trial_setup","html-keyboard-response","118","1989959","0.0-5.0-0.17","174","1","2025-04-14 14:29:29","bb671e3ae32f654b8954ea4c4635f915","","Mozilla/5.0 (Windows NT 10.0; Win64; x64) AppleWebKit/537.36 (KHTML, like Gecko) Chrome/121.0.0.0 Safari/537.36","WebKit","Chrome","121.0.0.0","Windows","10.0","https://hz8g1ckzuq.cognition.run/","en,en-US;q=0.9","h1jry861v0oj2uj","49","[""White""]","No","Female","2265960.100000024","null","","<p></p>","null","choice","wwb","catch","null","televisions","75","95","40","35","15","35","1","","","","","","","","","",""
"","","","","","choice_trial","survey-html-form","119","1996483","0.0-5.0-1.17","174","1","2025-04-14 14:29:29","bb671e3ae32f654b8954ea4c4635f915","","Mozilla/5.0 (Windows NT 10.0; Win64; x64) AppleWebKit/537.36 (KHTML, like Gecko) Chrome/121.0.0.0 Safari/537.36","WebKit","Chrome","121.0.0.0","Windows","10.0","https://hz8g1ckzuq.cognition.run/","en,en-US;q=0.9","h1jry861v0oj2uj","49","[""White""]","No","Female","2265960.100000024","6501","","","{""product_choice"":""C""}","choice","wwb","catch","null","televisions","75","95","40","35","15","35","1","null","null","null","null","null","null","Screen size","Average lifespan","",""
"","","","","","choice_trial_setup","html-keyboard-response","120","1996806","0.0-5.0-0.18","174","1","2025-04-14 14:29:29","bb671e3ae32f654b8954ea4c4635f915","","Mozilla/5.0 (Windows NT 10.0; Win64; x64) AppleWebKit/537.36 (KHTML, like Gecko) Chrome/121.0.0.0 Safari/537.36","WebKit","Chrome","121.0.0.0","Windows","10.0","https://hz8g1ckzuq.cognition.run/","en,en-US;q=0.9","h1jry861v0oj2uj","49","[""White""]","No","Female","2265960.100000024","null","","<p></p>","null","choice","ctd","attraction_2","1","televisions","null","null","null","null","null","null","1","","","","","","","","","",""
"","","","","","choice_trial","survey-html-form","121","2002789","0.0-5.0-1.18","174","1","2025-04-14 14:29:29","bb671e3ae32f654b8954ea4c4635f915","","Mozilla/5.0 (Windows NT 10.0; Win64; x64) AppleWebKit/537.36 (KHTML, like Gecko) Chrome/121.0.0.0 Safari/537.36","WebKit","Chrome","121.0.0.0","Windows","10.0","https://hz8g1ckzuq.cognition.run/","en,en-US;q=0.9","h1jry861v0oj2uj","49","[""White""]","No","Female","2265960.100000024","5958","","","{""product_choice"":""B""}","choice","ctd","attraction_2","1","televisions","null","null","null","null","null","null","1","60","50","60","50","60","40","Screen size","Average lifespan","",""
"","","","","","choice_trial_setup","html-keyboard-response","122","2003116","0.0-5.0-0.19","174","1","2025-04-14 14:29:29","bb671e3ae32f654b8954ea4c4635f915","","Mozilla/5.0 (Windows NT 10.0; Win64; x64) AppleWebKit/537.36 (KHTML, like Gecko) Chrome/121.0.0.0 Safari/537.36","WebKit","Chrome","121.0.0.0","Windows","10.0","https://hz8g1ckzuq.cognition.run/","en,en-US;q=0.9","h1jry861v0oj2uj","49","[""White""]","No","Female","2265960.100000024","null","","<p></p>","null","choice","dtc","repulsion_2","2","microwave ovens","null","null","null","null","null","null","2","","","","","","","","","",""
"","","","","","choice_trial","survey-html-form","123","2008599","0.0-5.0-1.19","174","1","2025-04-14 14:29:29","bb671e3ae32f654b8954ea4c4635f915","","Mozilla/5.0 (Windows NT 10.0; Win64; x64) AppleWebKit/537.36 (KHTML, like Gecko) Chrome/121.0.0.0 Safari/537.36","WebKit","Chrome","121.0.0.0","Windows","10.0","https://hz8g1ckzuq.cognition.run/","en,en-US;q=0.9","h1jry861v0oj2uj","49","[""White""]","No","Female","2265960.100000024","5460","","","{""product_choice"":""B""}","choice","dtc","repulsion_2","2","microwave ovens","null","null","null","null","null","null","2","30","40","20","100","90","100","Warranty","Cooking power","",""
"","","","","","choice_trial_setup","html-keyboard-response","124","2008914","0.0-5.0-0.20","174","1","2025-04-14 14:29:29","bb671e3ae32f654b8954ea4c4635f915","","Mozilla/5.0 (Windows NT 10.0; Win64; x64) AppleWebKit/537.36 (KHTML, like Gecko) Chrome/121.0.0.0 Safari/537.36","WebKit","Chrome","121.0.0.0","Windows","10.0","https://hz8g1ckzuq.cognition.run/","en,en-US;q=0.9","h1jry861v0oj2uj","49","[""White""]","No","Female","2265960.100000024","null","","<p></p>","null","choice","ctd","attraction_1","2","televisions","null","null","null","null","null","null","2","","","","","","","","","",""
"","","","","","choice_trial","survey-html-form","125","2016404","0.0-5.0-1.20","174","1","2025-04-14 14:29:29","bb671e3ae32f654b8954ea4c4635f915","","Mozilla/5.0 (Windows NT 10.0; Win64; x64) AppleWebKit/537.36 (KHTML, like Gecko) Chrome/121.0.0.0 Safari/537.36","WebKit","Chrome","121.0.0.0","Windows","10.0","https://hz8g1ckzuq.cognition.run/","en,en-US;q=0.9","h1jry861v0oj2uj","49","[""White""]","No","Female","2265960.100000024","7466","","","{""product_choice"":""A""}","choice","ctd","attraction_1","2","televisions","null","null","null","null","null","null","2","50","60","45","60","50","60","Screen size","Average lifespan","",""
"","","","","","choice_trial_setup","html-keyboard-response","126","2016717","0.0-5.0-0.21","174","1","2025-04-14 14:29:29","bb671e3ae32f654b8954ea4c4635f915","","Mozilla/5.0 (Windows NT 10.0; Win64; x64) AppleWebKit/537.36 (KHTML, like Gecko) Chrome/121.0.0.0 Safari/537.36","WebKit","Chrome","121.0.0.0","Windows","10.0","https://hz8g1ckzuq.cognition.run/","en,en-US;q=0.9","h1jry861v0oj2uj","49","[""White""]","No","Female","2265960.100000024","null","","<p></p>","null","choice","bww","catch","null","washing machines","50","85","45","35","35","20","2","","","","","","","","","",""
"","","","","","choice_trial","survey-html-form","127","2021437","0.0-5.0-1.21","174","1","2025-04-14 14:29:29","bb671e3ae32f654b8954ea4c4635f915","","Mozilla/5.0 (Windows NT 10.0; Win64; x64) AppleWebKit/537.36 (KHTML, like Gecko) Chrome/121.0.0.0 Safari/537.36","WebKit","Chrome","121.0.0.0","Windows","10.0","https://hz8g1ckzuq.cognition.run/","en,en-US;q=0.9","h1jry861v0oj2uj","49","[""White""]","No","Female","2265960.100000024","4696","","","{""product_choice"":""A""}","choice","bww","catch","null","washing machines","50","85","45","35","35","20","2","null","null","null","null","null","null","Average lifespan","Energy savings","",""
"","","","","","choice_trial_setup","html-keyboard-response","128","2021762","0.0-5.0-0.22","174","1","2025-04-14 14:29:29","bb671e3ae32f654b8954ea4c4635f915","","Mozilla/5.0 (Windows NT 10.0; Win64; x64) AppleWebKit/537.36 (KHTML, like Gecko) Chrome/121.0.0.0 Safari/537.36","WebKit","Chrome","121.0.0.0","Windows","10.0","https://hz8g1ckzuq.cognition.run/","en,en-US;q=0.9","h1jry861v0oj2uj","49","[""White""]","No","Female","2265960.100000024","null","","<p></p>","null","choice","dtc","repulsion_1","2","washing machines","null","null","null","null","null","null","1","","","","","","","","","",""
"","","","","","choice_trial","survey-html-form","129","2027440","0.0-5.0-1.22","174","1","2025-04-14 14:29:29","bb671e3ae32f654b8954ea4c4635f915","","Mozilla/5.0 (Windows NT 10.0; Win64; x64) AppleWebKit/537.36 (KHTML, like Gecko) Chrome/121.0.0.0 Safari/537.36","WebKit","Chrome","121.0.0.0","Windows","10.0","https://hz8g1ckzuq.cognition.run/","en,en-US;q=0.9","h1jry861v0oj2uj","49","[""White""]","No","Female","2265960.100000024","5651","","","{""product_choice"":""B""}","choice","dtc","repulsion_1","2","washing machines","null","null","null","null","null","null","1","30","40","25","100","90","100","Average lifespan","Energy savings","",""
"","","","","","choice_trial_setup","html-keyboard-response","130","2027759","0.0-5.0-0.23","174","1","2025-04-14 14:29:29","bb671e3ae32f654b8954ea4c4635f915","","Mozilla/5.0 (Windows NT 10.0; Win64; x64) AppleWebKit/537.36 (KHTML, like Gecko) Chrome/121.0.0.0 Safari/537.36","WebKit","Chrome","121.0.0.0","Windows","10.0","https://hz8g1ckzuq.cognition.run/","en,en-US;q=0.9","h1jry861v0oj2uj","49","[""White""]","No","Female","2265960.100000024","null","","<p></p>","null","choice","tcd","attraction_1","1","laptops","null","null","null","null","null","null","1","","","","","","","","","",""
"","","","","","choice_trial","survey-html-form","131","2035327","0.0-5.0-1.23","174","1","2025-04-14 14:29:29","bb671e3ae32f654b8954ea4c4635f915","","Mozilla/5.0 (Windows NT 10.0; Win64; x64) AppleWebKit/537.36 (KHTML, like Gecko) Chrome/121.0.0.0 Safari/537.36","WebKit","Chrome","121.0.0.0","Windows","10.0","https://hz8g1ckzuq.cognition.run/","en,en-US;q=0.9","h1jry861v0oj2uj","49","[""White""]","No","Female","2265960.100000024","7541","","","{""product_choice"":""B""}","choice","tcd","attraction_1","1","laptops","null","null","null","null","null","null","1","60","50","60","50","60","45","Processing speed","Memory (RAM)","",""
"","","","","","choice_trial_setup","html-keyboard-response","132","2035641","0.0-5.0-0.24","174","1","2025-04-14 14:29:29","bb671e3ae32f654b8954ea4c4635f915","","Mozilla/5.0 (Windows NT 10.0; Win64; x64) AppleWebKit/537.36 (KHTML, like Gecko) Chrome/121.0.0.0 Safari/537.36","WebKit","Chrome","121.0.0.0","Windows","10.0","https://hz8g1ckzuq.cognition.run/","en,en-US;q=0.9","h1jry861v0oj2uj","49","[""White""]","No","Female","2265960.100000024","null","","<p></p>","null","choice","cdt","attraction_2","1","washing machines","null","null","null","null","null","null","1","","","","","","","","","",""
"","","","","","choice_trial","survey-html-form","133","2043637","0.0-5.0-1.24","174","1","2025-04-14 14:29:29","bb671e3ae32f654b8954ea4c4635f915","","Mozilla/5.0 (Windows NT 10.0; Win64; x64) AppleWebKit/537.36 (KHTML, like Gecko) Chrome/121.0.0.0 Safari/537.36","WebKit","Chrome","121.0.0.0","Windows","10.0","https://hz8g1ckzuq.cognition.run/","en,en-US;q=0.9","h1jry861v0oj2uj","49","[""White""]","No","Female","2265960.100000024","7970","","","{""product_choice"":""A""}","choice","cdt","attraction_2","1","washing machines","null","null","null","null","null","null","1","60","50","60","50","60","40","Average lifespan","Energy savings","",""
"","","","","","choice_trial_setup","html-keyboard-response","134","2043959","0.0-5.0-0.25","174","1","2025-04-14 14:29:29","bb671e3ae32f654b8954ea4c4635f915","","Mozilla/5.0 (Windows NT 10.0; Win64; x64) AppleWebKit/537.36 (KHTML, like Gecko) Chrome/121.0.0.0 Safari/537.36","WebKit","Chrome","121.0.0.0","Windows","10.0","https://hz8g1ckzuq.cognition.run/","en,en-US;q=0.9","h1jry861v0oj2uj","49","[""White""]","No","Female","2265960.100000024","null","","<p></p>","null","choice","dtc","repulsion_1","2","televisions","null","null","null","null","null","null","1","","","","","","","","","",""
"","","","","","choice_trial","survey-html-form","135","2052692","0.0-5.0-1.25","174","1","2025-04-14 14:29:29","bb671e3ae32f654b8954ea4c4635f915","","Mozilla/5.0 (Windows NT 10.0; Win64; x64) AppleWebKit/537.36 (KHTML, like Gecko) Chrome/121.0.0.0 Safari/537.36","WebKit","Chrome","121.0.0.0","Windows","10.0","https://hz8g1ckzuq.cognition.run/","en,en-US;q=0.9","h1jry861v0oj2uj","49","[""White""]","No","Female","2265960.100000024","8707","","","{""product_choice"":""C""}","choice","dtc","repulsion_1","2","televisions","null","null","null","null","null","null","1","30","40","25","100","90","100","Screen size","Average lifespan","",""
"","","","","","choice_trial_setup","html-keyboard-response","136","2053014","0.0-5.0-0.26","174","1","2025-04-14 14:29:29","bb671e3ae32f654b8954ea4c4635f915","","Mozilla/5.0 (Windows NT 10.0; Win64; x64) AppleWebKit/537.36 (KHTML, like Gecko) Chrome/121.0.0.0 Safari/537.36","WebKit","Chrome","121.0.0.0","Windows","10.0","https://hz8g1ckzuq.cognition.run/","en,en-US;q=0.9","h1jry861v0oj2uj","49","[""White""]","No","Female","2265960.100000024","null","","<p></p>","null","choice","cdt","attraction_2","1","microwave ovens","null","null","null","null","null","null","1","","","","","","","","","",""
"","","","","","choice_trial","survey-html-form","137","2058884","0.0-5.0-1.26","174","1","2025-04-14 14:29:29","bb671e3ae32f654b8954ea4c4635f915","","Mozilla/5.0 (Windows NT 10.0; Win64; x64) AppleWebKit/537.36 (KHTML, like Gecko) Chrome/121.0.0.0 Safari/537.36","WebKit","Chrome","121.0.0.0","Windows","10.0","https://hz8g1ckzuq.cognition.run/","en,en-US;q=0.9","h1jry861v0oj2uj","49","[""White""]","No","Female","2265960.100000024","5841","","","{""product_choice"":""A""}","choice","cdt","attraction_2","1","microwave ovens","null","null","null","null","null","null","1","60","50","60","50","60","40","Warranty","Cooking power","",""
"","","","","","choice_trial_setup","html-keyboard-response","138","2059208","0.0-5.0-0.27","174","1","2025-04-14 14:29:29","bb671e3ae32f654b8954ea4c4635f915","","Mozilla/5.0 (Windows NT 10.0; Win64; x64) AppleWebKit/537.36 (KHTML, like Gecko) Chrome/121.0.0.0 Safari/537.36","WebKit","Chrome","121.0.0.0","Windows","10.0","https://hz8g1ckzuq.cognition.run/","en,en-US;q=0.9","h1jry861v0oj2uj","49","[""White""]","No","Female","2265960.100000024","null","","<p></p>","null","choice","tcd","attraction_1","2","laptops","null","null","null","null","null","null","1","","","","","","","","","",""
"","","","","","choice_trial","survey-html-form","139","2066157","0.0-5.0-1.27","174","1","2025-04-14 14:29:29","bb671e3ae32f654b8954ea4c4635f915","","Mozilla/5.0 (Windows NT 10.0; Win64; x64) AppleWebKit/537.36 (KHTML, like Gecko) Chrome/121.0.0.0 Safari/537.36","WebKit","Chrome","121.0.0.0","Windows","10.0","https://hz8g1ckzuq.cognition.run/","en,en-US;q=0.9","h1jry861v0oj2uj","49","[""White""]","No","Female","2265960.100000024","6921","","","{""product_choice"":""A""}","choice","tcd","attraction_1","2","laptops","null","null","null","null","null","null","1","50","60","45","60","50","60","Processing speed","Memory (RAM)","",""
"","","","","","choice_trial_setup","html-keyboard-response","140","2066468","0.0-5.0-0.28","174","1","2025-04-14 14:29:29","bb671e3ae32f654b8954ea4c4635f915","","Mozilla/5.0 (Windows NT 10.0; Win64; x64) AppleWebKit/537.36 (KHTML, like Gecko) Chrome/121.0.0.0 Safari/537.36","WebKit","Chrome","121.0.0.0","Windows","10.0","https://hz8g1ckzuq.cognition.run/","en,en-US;q=0.9","h1jry861v0oj2uj","49","[""White""]","No","Female","2265960.100000024","null","","<p></p>","null","choice","dtc","repulsion_2","2","washing machines","null","null","null","null","null","null","2","","","","","","","","","",""
"","","","","","choice_trial","survey-html-form","141","2074782","0.0-5.0-1.28","174","1","2025-04-14 14:29:29","bb671e3ae32f654b8954ea4c4635f915","","Mozilla/5.0 (Windows NT 10.0; Win64; x64) AppleWebKit/537.36 (KHTML, like Gecko) Chrome/121.0.0.0 Safari/537.36","WebKit","Chrome","121.0.0.0","Windows","10.0","https://hz8g1ckzuq.cognition.run/","en,en-US;q=0.9","h1jry861v0oj2uj","49","[""White""]","No","Female","2265960.100000024","8286","","","{""product_choice"":""B""}","choice","dtc","repulsion_2","2","washing machines","null","null","null","null","null","null","2","30","40","20","100","90","100","Average lifespan","Energy savings","",""
"","","","","","choice_trial_setup","html-keyboard-response","142","2075090","0.0-5.0-0.29","174","1","2025-04-14 14:29:29","bb671e3ae32f654b8954ea4c4635f915","","Mozilla/5.0 (Windows NT 10.0; Win64; x64) AppleWebKit/537.36 (KHTML, like Gecko) Chrome/121.0.0.0 Safari/537.36","WebKit","Chrome","121.0.0.0","Windows","10.0","https://hz8g1ckzuq.cognition.run/","en,en-US;q=0.9","h1jry861v0oj2uj","49","[""White""]","No","Female","2265960.100000024","null","","<p></p>","null","choice","dtc","attraction_2","2","microwave ovens","null","null","null","null","null","null","2","","","","","","","","","",""
"","","","","","choice_trial","survey-html-form","143","2085492","0.0-5.0-1.29","174","1","2025-04-14 14:29:29","bb671e3ae32f654b8954ea4c4635f915","","Mozilla/5.0 (Windows NT 10.0; Win64; x64) AppleWebKit/537.36 (KHTML, like Gecko) Chrome/121.0.0.0 Safari/537.36","WebKit","Chrome","121.0.0.0","Windows","10.0","https://hz8g1ckzuq.cognition.run/","en,en-US;q=0.9","h1jry861v0oj2uj","49","[""White""]","No","Female","2265960.100000024","10373","","","{""product_choice"":""B""}","choice","dtc","attraction_2","2","microwave ovens","null","null","null","null","null","null","2","50","60","40","60","50","60","Warranty","Cooking power","",""
"","","","","","choice_trial_setup","html-keyboard-response","144","2085811","0.0-5.0-0.30","174","1","2025-04-14 14:29:29","bb671e3ae32f654b8954ea4c4635f915","","Mozilla/5.0 (Windows NT 10.0; Win64; x64) AppleWebKit/537.36 (KHTML, like Gecko) Chrome/121.0.0.0 Safari/537.36","WebKit","Chrome","121.0.0.0","Windows","10.0","https://hz8g1ckzuq.cognition.run/","en,en-US;q=0.9","h1jry861v0oj2uj","49","[""White""]","No","Female","2265960.100000024","null","","<p></p>","null","choice","ctd","attraction_1","2","microwave ovens","null","null","null","null","null","null","1","","","","","","","","","",""
"","","","","","choice_trial","survey-html-form","145","2091533","0.0-5.0-1.30","174","1","2025-04-14 14:29:29","bb671e3ae32f654b8954ea4c4635f915","","Mozilla/5.0 (Windows NT 10.0; Win64; x64) AppleWebKit/537.36 (KHTML, like Gecko) Chrome/121.0.0.0 Safari/537.36","WebKit","Chrome","121.0.0.0","Windows","10.0","https://hz8g1ckzuq.cognition.run/","en,en-US;q=0.9","h1jry861v0oj2uj","49","[""White""]","No","Female","2265960.100000024","5692","","","{""product_choice"":""B""}","choice","ctd","attraction_1","2","microwave ovens","null","null","null","null","null","null","1","50","60","45","60","50","60","Warranty","Cooking power","",""
"","","","","","choice_trial_setup","html-keyboard-response","146","2091859","0.0-5.0-0.31","174","1","2025-04-14 14:29:29","bb671e3ae32f654b8954ea4c4635f915","","Mozilla/5.0 (Windows NT 10.0; Win64; x64) AppleWebKit/537.36 (KHTML, like Gecko) Chrome/121.0.0.0 Safari/537.36","WebKit","Chrome","121.0.0.0","Windows","10.0","https://hz8g1ckzuq.cognition.run/","en,en-US;q=0.9","h1jry861v0oj2uj","49","[""White""]","No","Female","2265960.100000024","null","","<p></p>","null","choice","tdc","repulsion_1","1","televisions","null","null","null","null","null","null","2","","","","","","","","","",""
"","","","","","choice_trial","survey-html-form","147","2101247","0.0-5.0-1.31","174","1","2025-04-14 14:29:29","bb671e3ae32f654b8954ea4c4635f915","","Mozilla/5.0 (Windows NT 10.0; Win64; x64) AppleWebKit/537.36 (KHTML, like Gecko) Chrome/121.0.0.0 Safari/537.36","WebKit","Chrome","121.0.0.0","Windows","10.0","https://hz8g1ckzuq.cognition.run/","en,en-US;q=0.9","h1jry861v0oj2uj","49","[""White""]","No","Female","2265960.100000024","9374","","","{""product_choice"":""A""}","choice","tdc","repulsion_1","1","televisions","null","null","null","null","null","null","2","100","90","100","30","40","25","Screen size","Average lifespan","",""
"","","","","","choice_trial_setup","html-keyboard-response","148","2101573","0.0-5.0-0.32","174","1","2025-04-14 14:29:29","bb671e3ae32f654b8954ea4c4635f915","","Mozilla/5.0 (Windows NT 10.0; Win64; x64) AppleWebKit/537.36 (KHTML, like Gecko) Chrome/121.0.0.0 Safari/537.36","WebKit","Chrome","121.0.0.0","Windows","10.0","https://hz8g1ckzuq.cognition.run/","en,en-US;q=0.9","h1jry861v0oj2uj","49","[""White""]","No","Female","2265960.100000024","null","","<p></p>","null","choice","ctd","repulsion_2","1","washing machines","null","null","null","null","null","null","1","","","","","","","","","",""
"","","","","","choice_trial","survey-html-form","149","2106568","0.0-5.0-1.32","174","1","2025-04-14 14:29:29","bb671e3ae32f654b8954ea4c4635f915","","Mozilla/5.0 (Windows NT 10.0; Win64; x64) AppleWebKit/537.36 (KHTML, like Gecko) Chrome/121.0.0.0 Safari/537.36","WebKit","Chrome","121.0.0.0","Windows","10.0","https://hz8g1ckzuq.cognition.run/","en,en-US;q=0.9","h1jry861v0oj2uj","49","[""White""]","No","Female","2265960.100000024","4965","","","{""product_choice"":""A""}","choice","ctd","repulsion_2","1","washing machines","null","null","null","null","null","null","1","100","90","100","30","40","20","Average lifespan","Energy savings","",""
"","","","","","choice_trial_setup","html-keyboard-response","150","2106886","0.0-5.0-0.33","174","1","2025-04-14 14:29:29","bb671e3ae32f654b8954ea4c4635f915","","Mozilla/5.0 (Windows NT 10.0; Win64; x64) AppleWebKit/537.36 (KHTML, like Gecko) Chrome/121.0.0.0 Safari/537.36","WebKit","Chrome","121.0.0.0","Windows","10.0","https://hz8g1ckzuq.cognition.run/","en,en-US;q=0.9","h1jry861v0oj2uj","49","[""White""]","No","Female","2265960.100000024","null","","<p></p>","null","choice","bww","catch","null","washing machines","75","60","25","20","5","40","1","","","","","","","","","",""
"","","","","","choice_trial","survey-html-form","151","2111250","0.0-5.0-1.33","174","1","2025-04-14 14:29:29","bb671e3ae32f654b8954ea4c4635f915","","Mozilla/5.0 (Windows NT 10.0; Win64; x64) AppleWebKit/537.36 (KHTML, like Gecko) Chrome/121.0.0.0 Safari/537.36","WebKit","Chrome","121.0.0.0","Windows","10.0","https://hz8g1ckzuq.cognition.run/","en,en-US;q=0.9","h1jry861v0oj2uj","49","[""White""]","No","Female","2265960.100000024","4330","","","{""product_choice"":""A""}","choice","bww","catch","null","washing machines","75","60","25","20","5","40","1","null","null","null","null","null","null","Average lifespan","Energy savings","",""
"","","","","","choice_trial_setup","html-keyboard-response","152","2111567","0.0-5.0-0.34","174","1","2025-04-14 14:29:29","bb671e3ae32f654b8954ea4c4635f915","","Mozilla/5.0 (Windows NT 10.0; Win64; x64) AppleWebKit/537.36 (KHTML, like Gecko) Chrome/121.0.0.0 Safari/537.36","WebKit","Chrome","121.0.0.0","Windows","10.0","https://hz8g1ckzuq.cognition.run/","en,en-US;q=0.9","h1jry861v0oj2uj","49","[""White""]","No","Female","2265960.100000024","null","","<p></p>","null","choice","dtc","attraction_2","1","laptops","null","null","null","null","null","null","2","","","","","","","","","",""
"","","","","","choice_trial","survey-html-form","153","2116547","0.0-5.0-1.34","174","1","2025-04-14 14:29:29","bb671e3ae32f654b8954ea4c4635f915","","Mozilla/5.0 (Windows NT 10.0; Win64; x64) AppleWebKit/537.36 (KHTML, like Gecko) Chrome/121.0.0.0 Safari/537.36","WebKit","Chrome","121.0.0.0","Windows","10.0","https://hz8g1ckzuq.cognition.run/","en,en-US;q=0.9","h1jry861v0oj2uj","49","[""White""]","No","Female","2265960.100000024","4952","","","{""product_choice"":""C""}","choice","dtc","attraction_2","1","laptops","null","null","null","null","null","null","2","60","50","60","50","60","40","Processing speed","Memory (RAM)","",""
"","","","","","choice_trial_setup","html-keyboard-response","154","2116867","0.0-5.0-0.35","174","1","2025-04-14 14:29:29","bb671e3ae32f654b8954ea4c4635f915","","Mozilla/5.0 (Windows NT 10.0; Win64; x64) AppleWebKit/537.36 (KHTML, like Gecko) Chrome/121.0.0.0 Safari/537.36","WebKit","Chrome","121.0.0.0","Windows","10.0","https://hz8g1ckzuq.cognition.run/","en,en-US;q=0.9","h1jry861v0oj2uj","49","[""White""]","No","Female","2265960.100000024","null","","<p></p>","null","choice","dtc","attraction_1","1","washing machines","null","null","null","null","null","null","2","","","","","","","","","",""
"","","","","","choice_trial","survey-html-form","155","2121124","0.0-5.0-1.35","174","1","2025-04-14 14:29:29","bb671e3ae32f654b8954ea4c4635f915","","Mozilla/5.0 (Windows NT 10.0; Win64; x64) AppleWebKit/537.36 (KHTML, like Gecko) Chrome/121.0.0.0 Safari/537.36","WebKit","Chrome","121.0.0.0","Windows","10.0","https://hz8g1ckzuq.cognition.run/","en,en-US;q=0.9","h1jry861v0oj2uj","49","[""White""]","No","Female","2265960.100000024","4226","","","{""product_choice"":""C""}","choice","dtc","attraction_1","1","washing machines","null","null","null","null","null","null","2","60","50","60","50","60","45","Average lifespan","Energy savings","",""
"","","","","","choice_trial_setup","html-keyboard-response","156","2121471","0.0-5.0-0.36","174","1","2025-04-14 14:29:29","bb671e3ae32f654b8954ea4c4635f915","","Mozilla/5.0 (Windows NT 10.0; Win64; x64) AppleWebKit/537.36 (KHTML, like Gecko) Chrome/121.0.0.0 Safari/537.36","WebKit","Chrome","121.0.0.0","Windows","10.0","https://hz8g1ckzuq.cognition.run/","en,en-US;q=0.9","h1jry861v0oj2uj","49","[""White""]","No","Female","2265960.100000024","null","","<p></p>","null","choice","dct","repulsion_1","2","microwave ovens","null","null","null","null","null","null","2","","","","","","","","","",""
"","","","","","choice_trial","survey-html-form","157","2126810","0.0-5.0-1.36","174","1","2025-04-14 14:29:29","bb671e3ae32f654b8954ea4c4635f915","","Mozilla/5.0 (Windows NT 10.0; Win64; x64) AppleWebKit/537.36 (KHTML, like Gecko) Chrome/121.0.0.0 Safari/537.36","WebKit","Chrome","121.0.0.0","Windows","10.0","https://hz8g1ckzuq.cognition.run/","en,en-US;q=0.9","h1jry861v0oj2uj","49","[""White""]","No","Female","2265960.100000024","5306","","","{""product_choice"":""C""}","choice","dct","repulsion_1","2","microwave ovens","null","null","null","null","null","null","2","30","40","25","100","90","100","Warranty","Cooking power","",""
