"success","timeout","failed_images","failed_audio","failed_video","screen_id","trial_type","trial_index","time_elapsed","internal_node_id","run_id","condition","recorded_at","source_code_version","ip","user_agent","device","browser","browser_version","platform","platform_version","referer","accept_language","ppt_id","age","race","ethnicity","gender","exp_duration","rt","view_history","stimulus","response","phase","order","effect","t_high","category","d1_best","d2_best","d1_worst1","d2_worst1","d1_worst2","d2_worst2","first_dim","d1_t","d1_c","d1_d","d2_t","d2_c","d2_d","d1_name","d2_name","strategy_response","question_order"
"true","false","[]","[]","[]","img preload","preload","0","3556","0.0-0.0","177","1","2025-04-14 14:31:19","bb671e3ae32f654b8954ea4c4635f915","","Mozilla/5.0 (Windows NT 10.0; WOW64) AppleWebKit/537.36 (KHTML, like Gecko) Chrome/131.0.0.0 Safari/537.36","WebKit","Chrome","131.0.0.0","Windows","10.0","https://hz8g1ckzuq.cognition.run/","en,en-US;q=0.9","dkvdmjk5gepdn3e","39","[""White""]","No","Female","2098592.1999999993","","","","","","","","","","","","","","","","","","","","","","","","","",""
"true","","","","","","fullscreen","1","14188","0.0-1.0","177","1","2025-04-14 14:31:19","bb671e3ae32f654b8954ea4c4635f915","","Mozilla/5.0 (Windows NT 10.0; WOW64) AppleWebKit/537.36 (KHTML, like Gecko) Chrome/131.0.0.0 Safari/537.36","WebKit","Chrome","131.0.0.0","Windows","10.0","https://hz8g1ckzuq.cognition.run/","en,en-US;q=0.9","dkvdmjk5gepdn3e","39","[""White""]","No","Female","2098592.1999999993","9616","","","","","","","","","","","","","","","","","","","","","","","","",""
"","","","","","","instructions","2","192118","0.0-2.0","177","1","2025-04-14 14:31:19","bb671e3ae32f654b8954ea4c4635f915","","Mozilla/5.0 (Windows NT 10.0; WOW64) AppleWebKit/537.36 (KHTML, like Gecko) Chrome/131.0.0.0 Safari/537.36","WebKit","Chrome","131.0.0.0","Windows","10.0","https://hz8g1ckzuq.cognition.run/","en,en-US;q=0.9","dkvdmjk5gepdn3e","39","[""White""]","No","Female","2098592.1999999993","177927","[{""page_index"":0,""viewing_time"":3767},{""page_index"":1,""viewing_time"":8640},{""page_index"":2,""viewing_time"":10448},{""page_index"":3,""viewing_time"":12800},{""page_index"":4,""viewing_time"":40432},{""page_index"":5,""viewing_time"":17848},{""page_index"":6,""viewing_time"":12952},{""page_index"":7,""viewing_time"":29360},{""page_index"":8,""viewing_time"":28704},{""page_index"":9,""viewing_time"":12976}]","","","","","","","","","","","","","","","","","","","","","","","",""
"","","","","","rating_trial_setup","html-keyboard-response","3","192421","0.0-3.0-0.0","177","1","2025-04-14 14:31:19","bb671e3ae32f654b8954ea4c4635f915","","Mozilla/5.0 (Windows NT 10.0; WOW64) AppleWebKit/537.36 (KHTML, like Gecko) Chrome/131.0.0.0 Safari/537.36","WebKit","Chrome","131.0.0.0","Windows","10.0","https://hz8g1ckzuq.cognition.run/","en,en-US;q=0.9","dkvdmjk5gepdn3e","39","[""White""]","No","Female","2098592.1999999993","null","","<p></p>","null","rating","cdt","repulsion_2","2","washing machines","null","null","null","null","null","null","1","","","","","","","","","",""
"","","","","","rating_trial","survey-html-form","4","323632","0.0-3.0-1.0","177","1","2025-04-14 14:31:19","bb671e3ae32f654b8954ea4c4635f915","","Mozilla/5.0 (Windows NT 10.0; WOW64) AppleWebKit/537.36 (KHTML, like Gecko) Chrome/131.0.0.0 Safari/537.36","WebKit","Chrome","131.0.0.0","Windows","10.0","https://hz8g1ckzuq.cognition.run/","en,en-US;q=0.9","dkvdmjk5gepdn3e","39","[""White""]","No","Female","2098592.1999999993","131207","","","{""price_1"":""320"",""price_2"":""300"",""price_3"":""290""}","rating","cdt","repulsion_2","2","washing machines","null","null","null","null","null","null","1","30","40","20","100","90","100","Average lifespan","Energy savings","",""
"","","","","","rating_trial_setup","html-keyboard-response","5","323934","0.0-3.0-0.1","177","1","2025-04-14 14:31:19","bb671e3ae32f654b8954ea4c4635f915","","Mozilla/5.0 (Windows NT 10.0; WOW64) AppleWebKit/537.36 (KHTML, like Gecko) Chrome/131.0.0.0 Safari/537.36","WebKit","Chrome","131.0.0.0","Windows","10.0","https://hz8g1ckzuq.cognition.run/","en,en-US;q=0.9","dkvdmjk5gepdn3e","39","[""White""]","No","Female","2098592.1999999993","null","","<p></p>","null","rating","ctd","attraction_2","1","laptops","null","null","null","null","null","null","1","","","","","","","","","",""
"","","","","","rating_trial","survey-html-form","6","386976","0.0-3.0-1.1","177","1","2025-04-14 14:31:19","bb671e3ae32f654b8954ea4c4635f915","","Mozilla/5.0 (Windows NT 10.0; WOW64) AppleWebKit/537.36 (KHTML, like Gecko) Chrome/131.0.0.0 Safari/537.36","WebKit","Chrome","131.0.0.0","Windows","10.0","https://hz8g1ckzuq.cognition.run/","en,en-US;q=0.9","dkvdmjk5gepdn3e","39","[""White""]","No","Female","2098592.1999999993","63039","","","{""price_1"":""800"",""price_2"":""900"",""price_3"":""1000""}","rating","ctd","attraction_2","1","laptops","null","null","null","null","null","null","1","60","50","60","50","60","40","Processing speed","Memory (RAM)","",""
"","","","","","rating_trial_setup","html-keyboard-response","7","387279","0.0-3.0-0.2","177","1","2025-04-14 14:31:19","bb671e3ae32f654b8954ea4c4635f915","","Mozilla/5.0 (Windows NT 10.0; WOW64) AppleWebKit/537.36 (KHTML, like Gecko) Chrome/131.0.0.0 Safari/537.36","WebKit","Chrome","131.0.0.0","Windows","10.0","https://hz8g1ckzuq.cognition.run/","en,en-US;q=0.9","dkvdmjk5gepdn3e","39","[""White""]","No","Female","2098592.1999999993","null","","<p></p>","null","rating","cdt","repulsion_1","1","laptops","null","null","null","null","null","null","2","","","","","","","","","",""
"","","","","","rating_trial","survey-html-form","8","421919","0.0-3.0-1.2","177","1","2025-04-14 14:31:19","bb671e3ae32f654b8954ea4c4635f915","","Mozilla/5.0 (Windows NT 10.0; WOW64) AppleWebKit/537.36 (KHTML, like Gecko) Chrome/131.0.0.0 Safari/537.36","WebKit","Chrome","131.0.0.0","Windows","10.0","https://hz8g1ckzuq.cognition.run/","en,en-US;q=0.9","dkvdmjk5gepdn3e","39","[""White""]","No","Female","2098592.1999999993","34637","","","{""price_1"":""500"",""price_2"":""400"",""price_3"":""450""}","rating","cdt","repulsion_1","1","laptops","null","null","null","null","null","null","2","100","90","100","30","40","25","Processing speed","Memory (RAM)","",""
"","","","","","rating_trial_setup","html-keyboard-response","9","422222","0.0-3.0-0.3","177","1","2025-04-14 14:31:19","bb671e3ae32f654b8954ea4c4635f915","","Mozilla/5.0 (Windows NT 10.0; WOW64) AppleWebKit/537.36 (KHTML, like Gecko) Chrome/131.0.0.0 Safari/537.36","WebKit","Chrome","131.0.0.0","Windows","10.0","https://hz8g1ckzuq.cognition.run/","en,en-US;q=0.9","dkvdmjk5gepdn3e","39","[""White""]","No","Female","2098592.1999999993","null","","<p></p>","null","rating","wbw","catch","null","washing machines","75","70","20","50","35","5","1","","","","","","","","","",""
"","","","","","rating_trial","survey-html-form","10","440711","0.0-3.0-1.3","177","1","2025-04-14 14:31:19","bb671e3ae32f654b8954ea4c4635f915","","Mozilla/5.0 (Windows NT 10.0; WOW64) AppleWebKit/537.36 (KHTML, like Gecko) Chrome/131.0.0.0 Safari/537.36","WebKit","Chrome","131.0.0.0","Windows","10.0","https://hz8g1ckzuq.cognition.run/","en,en-US;q=0.9","dkvdmjk5gepdn3e","39","[""White""]","No","Female","2098592.1999999993","18485","","","{""price_1"":""300"",""price_2"":""500"",""price_3"":""400""}","rating","wbw","catch","null","washing machines","75","70","20","50","35","5","1","null","null","null","null","null","null","Average lifespan","Energy savings","",""
"","","","","","rating_trial_setup","html-keyboard-response","11","441014","0.0-3.0-0.4","177","1","2025-04-14 14:31:19","bb671e3ae32f654b8954ea4c4635f915","","Mozilla/5.0 (Windows NT 10.0; WOW64) AppleWebKit/537.36 (KHTML, like Gecko) Chrome/131.0.0.0 Safari/537.36","WebKit","Chrome","131.0.0.0","Windows","10.0","https://hz8g1ckzuq.cognition.run/","en,en-US;q=0.9","dkvdmjk5gepdn3e","39","[""White""]","No","Female","2098592.1999999993","null","","<p></p>","null","rating","ctd","attraction_1","2","televisions","null","null","null","null","null","null","2","","","","","","","","","",""
"","","","","","rating_trial","survey-html-form","12","462279","0.0-3.0-1.4","177","1","2025-04-14 14:31:19","bb671e3ae32f654b8954ea4c4635f915","","Mozilla/5.0 (Windows NT 10.0; WOW64) AppleWebKit/537.36 (KHTML, like Gecko) Chrome/131.0.0.0 Safari/537.36","WebKit","Chrome","131.0.0.0","Windows","10.0","https://hz8g1ckzuq.cognition.run/","en,en-US;q=0.9","dkvdmjk5gepdn3e","39","[""White""]","No","Female","2098592.1999999993","21263","","","{""price_1"":""400"",""price_2"":""450"",""price_3"":""500""}","rating","ctd","attraction_1","2","televisions","null","null","null","null","null","null","2","50","60","45","60","50","60","Screen size","Average lifespan","",""
"","","","","","rating_trial_setup","html-keyboard-response","13","462582","0.0-3.0-0.5","177","1","2025-04-14 14:31:19","bb671e3ae32f654b8954ea4c4635f915","","Mozilla/5.0 (Windows NT 10.0; WOW64) AppleWebKit/537.36 (KHTML, like Gecko) Chrome/131.0.0.0 Safari/537.36","WebKit","Chrome","131.0.0.0","Windows","10.0","https://hz8g1ckzuq.cognition.run/","en,en-US;q=0.9","dkvdmjk5gepdn3e","39","[""White""]","No","Female","2098592.1999999993","null","","<p></p>","null","rating","wbw","catch","null","laptops","95","70","5","35","30","40","1","","","","","","","","","",""
"","","","","","rating_trial","survey-html-form","14","505799","0.0-3.0-1.5","177","1","2025-04-14 14:31:19","bb671e3ae32f654b8954ea4c4635f915","","Mozilla/5.0 (Windows NT 10.0; WOW64) AppleWebKit/537.36 (KHTML, like Gecko) Chrome/131.0.0.0 Safari/537.36","WebKit","Chrome","131.0.0.0","Windows","10.0","https://hz8g1ckzuq.cognition.run/","en,en-US;q=0.9","dkvdmjk5gepdn3e","39","[""White""]","No","Female","2098592.1999999993","43216","","","{""price_1"":""100"",""price_2"":""900"",""price_3"":""300""}","rating","wbw","catch","null","laptops","95","70","5","35","30","40","1","null","null","null","null","null","null","Processing speed","Memory (RAM)","",""
"","","","","","rating_trial_setup","html-keyboard-response","15","506101","0.0-3.0-0.6","177","1","2025-04-14 14:31:19","bb671e3ae32f654b8954ea4c4635f915","","Mozilla/5.0 (Windows NT 10.0; WOW64) AppleWebKit/537.36 (KHTML, like Gecko) Chrome/131.0.0.0 Safari/537.36","WebKit","Chrome","131.0.0.0","Windows","10.0","https://hz8g1ckzuq.cognition.run/","en,en-US;q=0.9","dkvdmjk5gepdn3e","39","[""White""]","No","Female","2098592.1999999993","null","","<p></p>","null","rating","dtc","repulsion_2","2","laptops","null","null","null","null","null","null","1","","","","","","","","","",""
"","","","","","rating_trial","survey-html-form","16","528415","0.0-3.0-1.6","177","1","2025-04-14 14:31:19","bb671e3ae32f654b8954ea4c4635f915","","Mozilla/5.0 (Windows NT 10.0; WOW64) AppleWebKit/537.36 (KHTML, like Gecko) Chrome/131.0.0.0 Safari/537.36","WebKit","Chrome","131.0.0.0","Windows","10.0","https://hz8g1ckzuq.cognition.run/","en,en-US;q=0.9","dkvdmjk5gepdn3e","39","[""White""]","No","Female","2098592.1999999993","22311","","","{""price_1"":""200"",""price_2"":""400"",""price_3"":""500""}","rating","dtc","repulsion_2","2","laptops","null","null","null","null","null","null","1","30","40","20","100","90","100","Processing speed","Memory (RAM)","",""
"","","","","","rating_trial_setup","html-keyboard-response","17","528717","0.0-3.0-0.7","177","1","2025-04-14 14:31:19","bb671e3ae32f654b8954ea4c4635f915","","Mozilla/5.0 (Windows NT 10.0; WOW64) AppleWebKit/537.36 (KHTML, like Gecko) Chrome/131.0.0.0 Safari/537.36","WebKit","Chrome","131.0.0.0","Windows","10.0","https://hz8g1ckzuq.cognition.run/","en,en-US;q=0.9","dkvdmjk5gepdn3e","39","[""White""]","No","Female","2098592.1999999993","null","","<p></p>","null","rating","dct","repulsion_1","2","washing machines","null","null","null","null","null","null","1","","","","","","","","","",""
"","","","","","rating_trial","survey-html-form","18","543407","0.0-3.0-1.7","177","1","2025-04-14 14:31:19","bb671e3ae32f654b8954ea4c4635f915","","Mozilla/5.0 (Windows NT 10.0; WOW64) AppleWebKit/537.36 (KHTML, like Gecko) Chrome/131.0.0.0 Safari/537.36","WebKit","Chrome","131.0.0.0","Windows","10.0","https://hz8g1ckzuq.cognition.run/","en,en-US;q=0.9","dkvdmjk5gepdn3e","39","[""White""]","No","Female","2098592.1999999993","14686","","","{""price_1"":""200"",""price_2"":""400"",""price_3"":""300""}","rating","dct","repulsion_1","2","washing machines","null","null","null","null","null","null","1","30","40","25","100","90","100","Average lifespan","Energy savings","",""
"","","","","","rating_trial_setup","html-keyboard-response","19","543710","0.0-3.0-0.8","177","1","2025-04-14 14:31:19","bb671e3ae32f654b8954ea4c4635f915","","Mozilla/5.0 (Windows NT 10.0; WOW64) AppleWebKit/537.36 (KHTML, like Gecko) Chrome/131.0.0.0 Safari/537.36","WebKit","Chrome","131.0.0.0","Windows","10.0","https://hz8g1ckzuq.cognition.run/","en,en-US;q=0.9","dkvdmjk5gepdn3e","39","[""White""]","No","Female","2098592.1999999993","null","","<p></p>","null","rating","wbw","catch","null","televisions","75","65","50","15","50","15","1","","","","","","","","","",""
"","","","","","rating_trial","survey-html-form","20","569719","0.0-3.0-1.8","177","1","2025-04-14 14:31:19","bb671e3ae32f654b8954ea4c4635f915","","Mozilla/5.0 (Windows NT 10.0; WOW64) AppleWebKit/537.36 (KHTML, like Gecko) Chrome/131.0.0.0 Safari/537.36","WebKit","Chrome","131.0.0.0","Windows","10.0","https://hz8g1ckzuq.cognition.run/","en,en-US;q=0.9","dkvdmjk5gepdn3e","39","[""White""]","No","Female","2098592.1999999993","26004","","","{""price_1"":""400"",""price_2"":""600"",""price_3"":""450""}","rating","wbw","catch","null","televisions","75","65","50","15","50","15","1","null","null","null","null","null","null","Screen size","Average lifespan","",""
"","","","","","rating_trial_setup","html-keyboard-response","21","570023","0.0-3.0-0.9","177","1","2025-04-14 14:31:19","bb671e3ae32f654b8954ea4c4635f915","","Mozilla/5.0 (Windows NT 10.0; WOW64) AppleWebKit/537.36 (KHTML, like Gecko) Chrome/131.0.0.0 Safari/537.36","WebKit","Chrome","131.0.0.0","Windows","10.0","https://hz8g1ckzuq.cognition.run/","en,en-US;q=0.9","dkvdmjk5gepdn3e","39","[""White""]","No","Female","2098592.1999999993","null","","<p></p>","null","rating","dtc","attraction_2","2","microwave ovens","null","null","null","null","null","null","2","","","","","","","","","",""
"","","","","","rating_trial","survey-html-form","22","593368","0.0-3.0-1.9","177","1","2025-04-14 14:31:19","bb671e3ae32f654b8954ea4c4635f915","","Mozilla/5.0 (Windows NT 10.0; WOW64) AppleWebKit/537.36 (KHTML, like Gecko) Chrome/131.0.0.0 Safari/537.36","WebKit","Chrome","131.0.0.0","Windows","10.0","https://hz8g1ckzuq.cognition.run/","en,en-US;q=0.9","dkvdmjk5gepdn3e","39","[""White""]","No","Female","2098592.1999999993","23342","","","{""price_1"":""200"",""price_2"":""250"",""price_3"":""300""}","rating","dtc","attraction_2","2","microwave ovens","null","null","null","null","null","null","2","50","60","40","60","50","60","Warranty","Cooking power","",""
"","","","","","rating_trial_setup","html-keyboard-response","23","593671","0.0-3.0-0.10","177","1","2025-04-14 14:31:19","bb671e3ae32f654b8954ea4c4635f915","","Mozilla/5.0 (Windows NT 10.0; WOW64) AppleWebKit/537.36 (KHTML, like Gecko) Chrome/131.0.0.0 Safari/537.36","WebKit","Chrome","131.0.0.0","Windows","10.0","https://hz8g1ckzuq.cognition.run/","en,en-US;q=0.9","dkvdmjk5gepdn3e","39","[""White""]","No","Female","2098592.1999999993","null","","<p></p>","null","rating","cdt","repulsion_1","1","televisions","null","null","null","null","null","null","1","","","","","","","","","",""
"","","","","","rating_trial","survey-html-form","24","614335","0.0-3.0-1.10","177","1","2025-04-14 14:31:19","bb671e3ae32f654b8954ea4c4635f915","","Mozilla/5.0 (Windows NT 10.0; WOW64) AppleWebKit/537.36 (KHTML, like Gecko) Chrome/131.0.0.0 Safari/537.36","WebKit","Chrome","131.0.0.0","Windows","10.0","https://hz8g1ckzuq.cognition.run/","en,en-US;q=0.9","dkvdmjk5gepdn3e","39","[""White""]","No","Female","2098592.1999999993","20661","","","{""price_1"":""400"",""price_2"":""500"",""price_3"":""600""}","rating","cdt","repulsion_1","1","televisions","null","null","null","null","null","null","1","100","90","100","30","40","25","Screen size","Average lifespan","",""
"","","","","","rating_trial_setup","html-keyboard-response","25","614638","0.0-3.0-0.11","177","1","2025-04-14 14:31:19","bb671e3ae32f654b8954ea4c4635f915","","Mozilla/5.0 (Windows NT 10.0; WOW64) AppleWebKit/537.36 (KHTML, like Gecko) Chrome/131.0.0.0 Safari/537.36","WebKit","Chrome","131.0.0.0","Windows","10.0","https://hz8g1ckzuq.cognition.run/","en,en-US;q=0.9","dkvdmjk5gepdn3e","39","[""White""]","No","Female","2098592.1999999993","null","","<p></p>","null","rating","dct","repulsion_2","1","microwave ovens","null","null","null","null","null","null","2","","","","","","","","","",""
"","","","","","rating_trial","survey-html-form","26","630695","0.0-3.0-1.11","177","1","2025-04-14 14:31:19","bb671e3ae32f654b8954ea4c4635f915","","Mozilla/5.0 (Windows NT 10.0; WOW64) AppleWebKit/537.36 (KHTML, like Gecko) Chrome/131.0.0.0 Safari/537.36","WebKit","Chrome","131.0.0.0","Windows","10.0","https://hz8g1ckzuq.cognition.run/","en,en-US;q=0.9","dkvdmjk5gepdn3e","39","[""White""]","No","Female","2098592.1999999993","16054","","","{""price_1"":""250"",""price_2"":""300"",""price_3"":""400""}","rating","dct","repulsion_2","1","microwave ovens","null","null","null","null","null","null","2","100","90","100","30","40","20","Warranty","Cooking power","",""
"","","","","","rating_trial_setup","html-keyboard-response","27","630997","0.0-3.0-0.12","177","1","2025-04-14 14:31:19","bb671e3ae32f654b8954ea4c4635f915","","Mozilla/5.0 (Windows NT 10.0; WOW64) AppleWebKit/537.36 (KHTML, like Gecko) Chrome/131.0.0.0 Safari/537.36","WebKit","Chrome","131.0.0.0","Windows","10.0","https://hz8g1ckzuq.cognition.run/","en,en-US;q=0.9","dkvdmjk5gepdn3e","39","[""White""]","No","Female","2098592.1999999993","null","","<p></p>","null","rating","dtc","repulsion_1","1","microwave ovens","null","null","null","null","null","null","1","","","","","","","","","",""
"","","","","","rating_trial","survey-html-form","28","659647","0.0-3.0-1.12","177","1","2025-04-14 14:31:19","bb671e3ae32f654b8954ea4c4635f915","","Mozilla/5.0 (Windows NT 10.0; WOW64) AppleWebKit/537.36 (KHTML, like Gecko) Chrome/131.0.0.0 Safari/537.36","WebKit","Chrome","131.0.0.0","Windows","10.0","https://hz8g1ckzuq.cognition.run/","en,en-US;q=0.9","dkvdmjk5gepdn3e","39","[""White""]","No","Female","2098592.1999999993","28647","","","{""price_1"":""200"",""price_2"":""350"",""price_3"":""400""}","rating","dtc","repulsion_1","1","microwave ovens","null","null","null","null","null","null","1","100","90","100","30","40","25","Warranty","Cooking power","",""
"","","","","","rating_trial_setup","html-keyboard-response","29","659949","0.0-3.0-0.13","177","1","2025-04-14 14:31:19","bb671e3ae32f654b8954ea4c4635f915","","Mozilla/5.0 (Windows NT 10.0; WOW64) AppleWebKit/537.36 (KHTML, like Gecko) Chrome/131.0.0.0 Safari/537.36","WebKit","Chrome","131.0.0.0","Windows","10.0","https://hz8g1ckzuq.cognition.run/","en,en-US;q=0.9","dkvdmjk5gepdn3e","39","[""White""]","No","Female","2098592.1999999993","null","","<p></p>","null","rating","tcd","repulsion_2","1","televisions","null","null","null","null","null","null","2","","","","","","","","","",""
"","","","","","rating_trial","survey-html-form","30","689351","0.0-3.0-1.13","177","1","2025-04-14 14:31:19","bb671e3ae32f654b8954ea4c4635f915","","Mozilla/5.0 (Windows NT 10.0; WOW64) AppleWebKit/537.36 (KHTML, like Gecko) Chrome/131.0.0.0 Safari/537.36","WebKit","Chrome","131.0.0.0","Windows","10.0","https://hz8g1ckzuq.cognition.run/","en,en-US;q=0.9","dkvdmjk5gepdn3e","39","[""White""]","No","Female","2098592.1999999993","29400","","","{""price_1"":""200"",""price_2"":""400"",""price_3"":""150""}","rating","tcd","repulsion_2","1","televisions","null","null","null","null","null","null","2","100","90","100","30","40","20","Screen size","Average lifespan","",""
"","","","","","rating_trial_setup","html-keyboard-response","31","689654","0.0-3.0-0.14","177","1","2025-04-14 14:31:19","bb671e3ae32f654b8954ea4c4635f915","","Mozilla/5.0 (Windows NT 10.0; WOW64) AppleWebKit/537.36 (KHTML, like Gecko) Chrome/131.0.0.0 Safari/537.36","WebKit","Chrome","131.0.0.0","Windows","10.0","https://hz8g1ckzuq.cognition.run/","en,en-US;q=0.9","dkvdmjk5gepdn3e","39","[""White""]","No","Female","2098592.1999999993","null","","<p></p>","null","rating","tcd","attraction_2","2","televisions","null","null","null","null","null","null","2","","","","","","","","","",""
"","","","","","rating_trial","survey-html-form","32","708567","0.0-3.0-1.14","177","1","2025-04-14 14:31:19","bb671e3ae32f654b8954ea4c4635f915","","Mozilla/5.0 (Windows NT 10.0; WOW64) AppleWebKit/537.36 (KHTML, like Gecko) Chrome/131.0.0.0 Safari/537.36","WebKit","Chrome","131.0.0.0","Windows","10.0","https://hz8g1ckzuq.cognition.run/","en,en-US;q=0.9","dkvdmjk5gepdn3e","39","[""White""]","No","Female","2098592.1999999993","18909","","","{""price_1"":""300"",""price_2"":""250"",""price_3"":""300""}","rating","tcd","attraction_2","2","televisions","null","null","null","null","null","null","2","50","60","40","60","50","60","Screen size","Average lifespan","",""
"","","","","","rating_trial_setup","html-keyboard-response","33","708869","0.0-3.0-0.15","177","1","2025-04-14 14:31:19","bb671e3ae32f654b8954ea4c4635f915","","Mozilla/5.0 (Windows NT 10.0; WOW64) AppleWebKit/537.36 (KHTML, like Gecko) Chrome/131.0.0.0 Safari/537.36","WebKit","Chrome","131.0.0.0","Windows","10.0","https://hz8g1ckzuq.cognition.run/","en,en-US;q=0.9","dkvdmjk5gepdn3e","39","[""White""]","No","Female","2098592.1999999993","null","","<p></p>","null","rating","wbw","catch","null","laptops","85","90","10","50","20","45","2","","","","","","","","","",""
"","","","","","rating_trial","survey-html-form","34","736119","0.0-3.0-1.15","177","1","2025-04-14 14:31:19","bb671e3ae32f654b8954ea4c4635f915","","Mozilla/5.0 (Windows NT 10.0; WOW64) AppleWebKit/537.36 (KHTML, like Gecko) Chrome/131.0.0.0 Safari/537.36","WebKit","Chrome","131.0.0.0","Windows","10.0","https://hz8g1ckzuq.cognition.run/","en,en-US;q=0.9","dkvdmjk5gepdn3e","39","[""White""]","No","Female","2098592.1999999993","27247","","","{""price_1"":""100"",""price_2"":""350"",""price_3"":""150""}","rating","wbw","catch","null","laptops","85","90","10","50","20","45","2","null","null","null","null","null","null","Processing speed","Memory (RAM)","",""
"","","","","","rating_trial_setup","html-keyboard-response","35","736421","0.0-3.0-0.16","177","1","2025-04-14 14:31:19","bb671e3ae32f654b8954ea4c4635f915","","Mozilla/5.0 (Windows NT 10.0; WOW64) AppleWebKit/537.36 (KHTML, like Gecko) Chrome/131.0.0.0 Safari/537.36","WebKit","Chrome","131.0.0.0","Windows","10.0","https://hz8g1ckzuq.cognition.run/","en,en-US;q=0.9","dkvdmjk5gepdn3e","39","[""White""]","No","Female","2098592.1999999993","null","","<p></p>","null","rating","ctd","repulsion_2","2","televisions","null","null","null","null","null","null","1","","","","","","","","","",""
"","","","","","rating_trial","survey-html-form","36","760231","0.0-3.0-1.16","177","1","2025-04-14 14:31:19","bb671e3ae32f654b8954ea4c4635f915","","Mozilla/5.0 (Windows NT 10.0; WOW64) AppleWebKit/537.36 (KHTML, like Gecko) Chrome/131.0.0.0 Safari/537.36","WebKit","Chrome","131.0.0.0","Windows","10.0","https://hz8g1ckzuq.cognition.run/","en,en-US;q=0.9","dkvdmjk5gepdn3e","39","[""White""]","No","Female","2098592.1999999993","23807","","","{""price_1"":""500"",""price_2"":""400"",""price_3"":""340""}","rating","ctd","repulsion_2","2","televisions","null","null","null","null","null","null","1","30","40","20","100","90","100","Screen size","Average lifespan","",""
"","","","","","rating_trial_setup","html-keyboard-response","37","760534","0.0-3.0-0.17","177","1","2025-04-14 14:31:19","bb671e3ae32f654b8954ea4c4635f915","","Mozilla/5.0 (Windows NT 10.0; WOW64) AppleWebKit/537.36 (KHTML, like Gecko) Chrome/131.0.0.0 Safari/537.36","WebKit","Chrome","131.0.0.0","Windows","10.0","https://hz8g1ckzuq.cognition.run/","en,en-US;q=0.9","dkvdmjk5gepdn3e","39","[""White""]","No","Female","2098592.1999999993","null","","<p></p>","null","rating","wbw","catch","null","microwave ovens","65","80","35","50","50","40","1","","","","","","","","","",""
"","","","","","rating_trial","survey-html-form","38","788263","0.0-3.0-1.17","177","1","2025-04-14 14:31:19","bb671e3ae32f654b8954ea4c4635f915","","Mozilla/5.0 (Windows NT 10.0; WOW64) AppleWebKit/537.36 (KHTML, like Gecko) Chrome/131.0.0.0 Safari/537.36","WebKit","Chrome","131.0.0.0","Windows","10.0","https://hz8g1ckzuq.cognition.run/","en,en-US;q=0.9","dkvdmjk5gepdn3e","39","[""White""]","No","Female","2098592.1999999993","27727","","","{""price_1"":""200"",""price_2"":""300"",""price_3"":""400""}","rating","wbw","catch","null","microwave ovens","65","80","35","50","50","40","1","null","null","null","null","null","null","Warranty","Cooking power","",""
"","","","","","rating_trial_setup","html-keyboard-response","39","788566","0.0-3.0-0.18","177","1","2025-04-14 14:31:19","bb671e3ae32f654b8954ea4c4635f915","","Mozilla/5.0 (Windows NT 10.0; WOW64) AppleWebKit/537.36 (KHTML, like Gecko) Chrome/131.0.0.0 Safari/537.36","WebKit","Chrome","131.0.0.0","Windows","10.0","https://hz8g1ckzuq.cognition.run/","en,en-US;q=0.9","dkvdmjk5gepdn3e","39","[""White""]","No","Female","2098592.1999999993","null","","<p></p>","null","rating","dct","attraction_1","2","washing machines","null","null","null","null","null","null","1","","","","","","","","","",""
"","","","","","rating_trial","survey-html-form","40","811663","0.0-3.0-1.18","177","1","2025-04-14 14:31:19","bb671e3ae32f654b8954ea4c4635f915","","Mozilla/5.0 (Windows NT 10.0; WOW64) AppleWebKit/537.36 (KHTML, like Gecko) Chrome/131.0.0.0 Safari/537.36","WebKit","Chrome","131.0.0.0","Windows","10.0","https://hz8g1ckzuq.cognition.run/","en,en-US;q=0.9","dkvdmjk5gepdn3e","39","[""White""]","No","Female","2098592.1999999993","23095","","","{""price_1"":""300"",""price_2"":""350"",""price_3"":""380""}","rating","dct","attraction_1","2","washing machines","null","null","null","null","null","null","1","50","60","45","60","50","60","Average lifespan","Energy savings","",""
"","","","","","rating_trial_setup","html-keyboard-response","41","811965","0.0-3.0-0.19","177","1","2025-04-14 14:31:19","bb671e3ae32f654b8954ea4c4635f915","","Mozilla/5.0 (Windows NT 10.0; WOW64) AppleWebKit/537.36 (KHTML, like Gecko) Chrome/131.0.0.0 Safari/537.36","WebKit","Chrome","131.0.0.0","Windows","10.0","https://hz8g1ckzuq.cognition.run/","en,en-US;q=0.9","dkvdmjk5gepdn3e","39","[""White""]","No","Female","2098592.1999999993","null","","<p></p>","null","rating","ctd","attraction_1","1","televisions","null","null","null","null","null","null","1","","","","","","","","","",""
"","","","","","rating_trial","survey-html-form","42","947503","0.0-3.0-1.19","177","1","2025-04-14 14:31:19","bb671e3ae32f654b8954ea4c4635f915","","Mozilla/5.0 (Windows NT 10.0; WOW64) AppleWebKit/537.36 (KHTML, like Gecko) Chrome/131.0.0.0 Safari/537.36","WebKit","Chrome","131.0.0.0","Windows","10.0","https://hz8g1ckzuq.cognition.run/","en,en-US;q=0.9","dkvdmjk5gepdn3e","39","[""White""]","No","Female","2098592.1999999993","135534","","","{""price_1"":""300"",""price_2"":""250"",""price_3"":""200""}","rating","ctd","attraction_1","1","televisions","null","null","null","null","null","null","1","60","50","60","50","60","45","Screen size","Average lifespan","",""
"","","","","","rating_trial_setup","html-keyboard-response","43","947814","0.0-3.0-0.20","177","1","2025-04-14 14:31:19","bb671e3ae32f654b8954ea4c4635f915","","Mozilla/5.0 (Windows NT 10.0; WOW64) AppleWebKit/537.36 (KHTML, like Gecko) Chrome/131.0.0.0 Safari/537.36","WebKit","Chrome","131.0.0.0","Windows","10.0","https://hz8g1ckzuq.cognition.run/","en,en-US;q=0.9","dkvdmjk5gepdn3e","39","[""White""]","No","Female","2098592.1999999993","null","","<p></p>","null","rating","dct","repulsion_2","1","washing machines","null","null","null","null","null","null","1","","","","","","","","","",""
"","","","","","rating_trial","survey-html-form","44","978967","0.0-3.0-1.20","177","1","2025-04-14 14:31:19","bb671e3ae32f654b8954ea4c4635f915","","Mozilla/5.0 (Windows NT 10.0; WOW64) AppleWebKit/537.36 (KHTML, like Gecko) Chrome/131.0.0.0 Safari/537.36","WebKit","Chrome","131.0.0.0","Windows","10.0","https://hz8g1ckzuq.cognition.run/","en,en-US;q=0.9","dkvdmjk5gepdn3e","39","[""White""]","No","Female","2098592.1999999993","31148","","","{""price_1"":""55"",""price_2"":""50"",""price_3"":""60""}","rating","dct","repulsion_2","1","washing machines","null","null","null","null","null","null","1","100","90","100","30","40","20","Average lifespan","Energy savings","",""
"","","","","","rating_trial_setup","html-keyboard-response","45","979270","0.0-3.0-0.21","177","1","2025-04-14 14:31:19","bb671e3ae32f654b8954ea4c4635f915","","Mozilla/5.0 (Windows NT 10.0; WOW64) AppleWebKit/537.36 (KHTML, like Gecko) Chrome/131.0.0.0 Safari/537.36","WebKit","Chrome","131.0.0.0","Windows","10.0","https://hz8g1ckzuq.cognition.run/","en,en-US;q=0.9","dkvdmjk5gepdn3e","39","[""White""]","No","Female","2098592.1999999993","null","","<p></p>","null","rating","dct","attraction_1","2","microwave ovens","null","null","null","null","null","null","2","","","","","","","","","",""
"","","","","","rating_trial","survey-html-form","46","1019558","0.0-3.0-1.21","177","1","2025-04-14 14:31:19","bb671e3ae32f654b8954ea4c4635f915","","Mozilla/5.0 (Windows NT 10.0; WOW64) AppleWebKit/537.36 (KHTML, like Gecko) Chrome/131.0.0.0 Safari/537.36","WebKit","Chrome","131.0.0.0","Windows","10.0","https://hz8g1ckzuq.cognition.run/","en,en-US;q=0.9","dkvdmjk5gepdn3e","39","[""White""]","No","Female","2098592.1999999993","40285","","","{""price_1"":""150"",""price_2"":""100"",""price_3"":""120""}","rating","dct","attraction_1","2","microwave ovens","null","null","null","null","null","null","2","50","60","45","60","50","60","Warranty","Cooking power","",""
"","","","","","rating_trial_setup","html-keyboard-response","47","1019861","0.0-3.0-0.22","177","1","2025-04-14 14:31:19","bb671e3ae32f654b8954ea4c4635f915","","Mozilla/5.0 (Windows NT 10.0; WOW64) AppleWebKit/537.36 (KHTML, like Gecko) Chrome/131.0.0.0 Safari/537.36","WebKit","Chrome","131.0.0.0","Windows","10.0","https://hz8g1ckzuq.cognition.run/","en,en-US;q=0.9","dkvdmjk5gepdn3e","39","[""White""]","No","Female","2098592.1999999993","null","","<p></p>","null","rating","dtc","repulsion_2","2","microwave ovens","null","null","null","null","null","null","1","","","","","","","","","",""
"","","","","","rating_trial","survey-html-form","48","1059567","0.0-3.0-1.22","177","1","2025-04-14 14:31:19","bb671e3ae32f654b8954ea4c4635f915","","Mozilla/5.0 (Windows NT 10.0; WOW64) AppleWebKit/537.36 (KHTML, like Gecko) Chrome/131.0.0.0 Safari/537.36","WebKit","Chrome","131.0.0.0","Windows","10.0","https://hz8g1ckzuq.cognition.run/","en,en-US;q=0.9","dkvdmjk5gepdn3e","39","[""White""]","No","Female","2098592.1999999993","39702","","","{""price_1"":""250"",""price_2"":""200"",""price_3"":""180""}","rating","dtc","repulsion_2","2","microwave ovens","null","null","null","null","null","null","1","30","40","20","100","90","100","Warranty","Cooking power","",""
"","","","","","rating_trial_setup","html-keyboard-response","49","1059871","0.0-3.0-0.23","177","1","2025-04-14 14:31:19","bb671e3ae32f654b8954ea4c4635f915","","Mozilla/5.0 (Windows NT 10.0; WOW64) AppleWebKit/537.36 (KHTML, like Gecko) Chrome/131.0.0.0 Safari/537.36","WebKit","Chrome","131.0.0.0","Windows","10.0","https://hz8g1ckzuq.cognition.run/","en,en-US;q=0.9","dkvdmjk5gepdn3e","39","[""White""]","No","Female","2098592.1999999993","null","","<p></p>","null","rating","dtc","attraction_1","2","laptops","null","null","null","null","null","null","1","","","","","","","","","",""
"","","","","","rating_trial","survey-html-form","50","1099583","0.0-3.0-1.23","177","1","2025-04-14 14:31:19","bb671e3ae32f654b8954ea4c4635f915","","Mozilla/5.0 (Windows NT 10.0; WOW64) AppleWebKit/537.36 (KHTML, like Gecko) Chrome/131.0.0.0 Safari/537.36","WebKit","Chrome","131.0.0.0","Windows","10.0","https://hz8g1ckzuq.cognition.run/","en,en-US;q=0.9","dkvdmjk5gepdn3e","39","[""White""]","No","Female","2098592.1999999993","39707","","","{""price_1"":""300"",""price_2"":""280"",""price_3"":""320""}","rating","dtc","attraction_1","2","laptops","null","null","null","null","null","null","1","50","60","45","60","50","60","Processing speed","Memory (RAM)","",""
"","","","","","rating_trial_setup","html-keyboard-response","51","1099887","0.0-3.0-0.24","177","1","2025-04-14 14:31:19","bb671e3ae32f654b8954ea4c4635f915","","Mozilla/5.0 (Windows NT 10.0; WOW64) AppleWebKit/537.36 (KHTML, like Gecko) Chrome/131.0.0.0 Safari/537.36","WebKit","Chrome","131.0.0.0","Windows","10.0","https://hz8g1ckzuq.cognition.run/","en,en-US;q=0.9","dkvdmjk5gepdn3e","39","[""White""]","No","Female","2098592.1999999993","null","","<p></p>","null","rating","wbw","catch","null","washing machines","85","60","30","10","25","25","2","","","","","","","","","",""
"","","","","","rating_trial","survey-html-form","52","1137046","0.0-3.0-1.24","177","1","2025-04-14 14:31:19","bb671e3ae32f654b8954ea4c4635f915","","Mozilla/5.0 (Windows NT 10.0; WOW64) AppleWebKit/537.36 (KHTML, like Gecko) Chrome/131.0.0.0 Safari/537.36","WebKit","Chrome","131.0.0.0","Windows","10.0","https://hz8g1ckzuq.cognition.run/","en,en-US;q=0.9","dkvdmjk5gepdn3e","39","[""White""]","No","Female","2098592.1999999993","37157","","","{""price_1"":""500"",""price_2"":""550"",""price_3"":""300""}","rating","wbw","catch","null","washing machines","85","60","30","10","25","25","2","null","null","null","null","null","null","Average lifespan","Energy savings","",""
"","","","","","rating_trial_setup","html-keyboard-response","53","1137350","0.0-3.0-0.25","177","1","2025-04-14 14:31:19","bb671e3ae32f654b8954ea4c4635f915","","Mozilla/5.0 (Windows NT 10.0; WOW64) AppleWebKit/537.36 (KHTML, like Gecko) Chrome/131.0.0.0 Safari/537.36","WebKit","Chrome","131.0.0.0","Windows","10.0","https://hz8g1ckzuq.cognition.run/","en,en-US;q=0.9","dkvdmjk5gepdn3e","39","[""White""]","No","Female","2098592.1999999993","null","","<p></p>","null","rating","tdc","attraction_2","1","washing machines","null","null","null","null","null","null","1","","","","","","","","","",""
"","","","","","rating_trial","survey-html-form","54","1176975","0.0-3.0-1.25","177","1","2025-04-14 14:31:19","bb671e3ae32f654b8954ea4c4635f915","","Mozilla/5.0 (Windows NT 10.0; WOW64) AppleWebKit/537.36 (KHTML, like Gecko) Chrome/131.0.0.0 Safari/537.36","WebKit","Chrome","131.0.0.0","Windows","10.0","https://hz8g1ckzuq.cognition.run/","en,en-US;q=0.9","dkvdmjk5gepdn3e","39","[""White""]","No","Female","2098592.1999999993","39622","","","{""price_1"":""580"",""price_2"":""550"",""price_3"":""600""}","rating","tdc","attraction_2","1","washing machines","null","null","null","null","null","null","1","60","50","60","50","60","40","Average lifespan","Energy savings","",""
"","","","","","rating_trial_setup","html-keyboard-response","55","1177278","0.0-3.0-0.26","177","1","2025-04-14 14:31:19","bb671e3ae32f654b8954ea4c4635f915","","Mozilla/5.0 (Windows NT 10.0; WOW64) AppleWebKit/537.36 (KHTML, like Gecko) Chrome/131.0.0.0 Safari/537.36","WebKit","Chrome","131.0.0.0","Windows","10.0","https://hz8g1ckzuq.cognition.run/","en,en-US;q=0.9","dkvdmjk5gepdn3e","39","[""White""]","No","Female","2098592.1999999993","null","","<p></p>","null","rating","wwb","catch","null","televisions","65","50","20","20","50","25","2","","","","","","","","","",""
"","","","","","rating_trial","survey-html-form","56","1218839","0.0-3.0-1.26","177","1","2025-04-14 14:31:19","bb671e3ae32f654b8954ea4c4635f915","","Mozilla/5.0 (Windows NT 10.0; WOW64) AppleWebKit/537.36 (KHTML, like Gecko) Chrome/131.0.0.0 Safari/537.36","WebKit","Chrome","131.0.0.0","Windows","10.0","https://hz8g1ckzuq.cognition.run/","en,en-US;q=0.9","dkvdmjk5gepdn3e","39","[""White""]","No","Female","2098592.1999999993","41558","","","{""price_1"":""200"",""price_2"":""250"",""price_3"":""300""}","rating","wwb","catch","null","televisions","65","50","20","20","50","25","2","null","null","null","null","null","null","Screen size","Average lifespan","",""
"","","","","","rating_trial_setup","html-keyboard-response","57","1219143","0.0-3.0-0.27","177","1","2025-04-14 14:31:19","bb671e3ae32f654b8954ea4c4635f915","","Mozilla/5.0 (Windows NT 10.0; WOW64) AppleWebKit/537.36 (KHTML, like Gecko) Chrome/131.0.0.0 Safari/537.36","WebKit","Chrome","131.0.0.0","Windows","10.0","https://hz8g1ckzuq.cognition.run/","en,en-US;q=0.9","dkvdmjk5gepdn3e","39","[""White""]","No","Female","2098592.1999999993","null","","<p></p>","null","rating","tdc","attraction_2","2","laptops","null","null","null","null","null","null","2","","","","","","","","","",""
"","","","","","rating_trial","survey-html-form","58","1261782","0.0-3.0-1.27","177","1","2025-04-14 14:31:19","bb671e3ae32f654b8954ea4c4635f915","","Mozilla/5.0 (Windows NT 10.0; WOW64) AppleWebKit/537.36 (KHTML, like Gecko) Chrome/131.0.0.0 Safari/537.36","WebKit","Chrome","131.0.0.0","Windows","10.0","https://hz8g1ckzuq.cognition.run/","en,en-US;q=0.9","dkvdmjk5gepdn3e","39","[""White""]","No","Female","2098592.1999999993","42636","","","{""price_1"":""280"",""price_2"":""250"",""price_3"":""300""}","rating","tdc","attraction_2","2","laptops","null","null","null","null","null","null","2","50","60","40","60","50","60","Processing speed","Memory (RAM)","",""
"","","","","","rating_trial_setup","html-keyboard-response","59","1262085","0.0-3.0-0.28","177","1","2025-04-14 14:31:19","bb671e3ae32f654b8954ea4c4635f915","","Mozilla/5.0 (Windows NT 10.0; WOW64) AppleWebKit/537.36 (KHTML, like Gecko) Chrome/131.0.0.0 Safari/537.36","WebKit","Chrome","131.0.0.0","Windows","10.0","https://hz8g1ckzuq.cognition.run/","en,en-US;q=0.9","dkvdmjk5gepdn3e","39","[""White""]","No","Female","2098592.1999999993","null","","<p></p>","null","rating","tcd","repulsion_1","2","televisions","null","null","null","null","null","null","2","","","","","","","","","",""
"","","","","","rating_trial","survey-html-form","60","1297023","0.0-3.0-1.28","177","1","2025-04-14 14:31:19","bb671e3ae32f654b8954ea4c4635f915","","Mozilla/5.0 (Windows NT 10.0; WOW64) AppleWebKit/537.36 (KHTML, like Gecko) Chrome/131.0.0.0 Safari/537.36","WebKit","Chrome","131.0.0.0","Windows","10.0","https://hz8g1ckzuq.cognition.run/","en,en-US;q=0.9","dkvdmjk5gepdn3e","39","[""White""]","No","Female","2098592.1999999993","34934","","","{""price_1"":""300"",""price_2"":""250"",""price_3"":""255""}","rating","tcd","repulsion_1","2","televisions","null","null","null","null","null","null","2","30","40","25","100","90","100","Screen size","Average lifespan","",""
"","","","","","rating_trial_setup","html-keyboard-response","61","1297335","0.0-3.0-0.29","177","1","2025-04-14 14:31:19","bb671e3ae32f654b8954ea4c4635f915","","Mozilla/5.0 (Windows NT 10.0; WOW64) AppleWebKit/537.36 (KHTML, like Gecko) Chrome/131.0.0.0 Safari/537.36","WebKit","Chrome","131.0.0.0","Windows","10.0","https://hz8g1ckzuq.cognition.run/","en,en-US;q=0.9","dkvdmjk5gepdn3e","39","[""White""]","No","Female","2098592.1999999993","null","","<p></p>","null","rating","dct","attraction_2","1","microwave ovens","null","null","null","null","null","null","2","","","","","","","","","",""
"","","","","","rating_trial","survey-html-form","62","1329527","0.0-3.0-1.29","177","1","2025-04-14 14:31:19","bb671e3ae32f654b8954ea4c4635f915","","Mozilla/5.0 (Windows NT 10.0; WOW64) AppleWebKit/537.36 (KHTML, like Gecko) Chrome/131.0.0.0 Safari/537.36","WebKit","Chrome","131.0.0.0","Windows","10.0","https://hz8g1ckzuq.cognition.run/","en,en-US;q=0.9","dkvdmjk5gepdn3e","39","[""White""]","No","Female","2098592.1999999993","32183","","","{""price_1"":""200"",""price_2"":""300"",""price_3"":""250""}","rating","dct","attraction_2","1","microwave ovens","null","null","null","null","null","null","2","60","50","60","50","60","40","Warranty","Cooking power","",""
"","","","","","rating_trial_setup","html-keyboard-response","63","1329831","0.0-3.0-0.30","177","1","2025-04-14 14:31:19","bb671e3ae32f654b8954ea4c4635f915","","Mozilla/5.0 (Windows NT 10.0; WOW64) AppleWebKit/537.36 (KHTML, like Gecko) Chrome/131.0.0.0 Safari/537.36","WebKit","Chrome","131.0.0.0","Windows","10.0","https://hz8g1ckzuq.cognition.run/","en,en-US;q=0.9","dkvdmjk5gepdn3e","39","[""White""]","No","Female","2098592.1999999993","null","","<p></p>","null","rating","dct","repulsion_1","1","washing machines","null","null","null","null","null","null","2","","","","","","","","","",""
"","","","","","rating_trial","survey-html-form","64","1363791","0.0-3.0-1.30","177","1","2025-04-14 14:31:19","bb671e3ae32f654b8954ea4c4635f915","","Mozilla/5.0 (Windows NT 10.0; WOW64) AppleWebKit/537.36 (KHTML, like Gecko) Chrome/131.0.0.0 Safari/537.36","WebKit","Chrome","131.0.0.0","Windows","10.0","https://hz8g1ckzuq.cognition.run/","en,en-US;q=0.9","dkvdmjk5gepdn3e","39","[""White""]","No","Female","2098592.1999999993","33955","","","{""price_1"":""500"",""price_2"":""550"",""price_3"":""600""}","rating","dct","repulsion_1","1","washing machines","null","null","null","null","null","null","2","100","90","100","30","40","25","Average lifespan","Energy savings","",""
"","","","","","rating_trial_setup","html-keyboard-response","65","1364094","0.0-3.0-0.31","177","1","2025-04-14 14:31:19","bb671e3ae32f654b8954ea4c4635f915","","Mozilla/5.0 (Windows NT 10.0; WOW64) AppleWebKit/537.36 (KHTML, like Gecko) Chrome/131.0.0.0 Safari/537.36","WebKit","Chrome","131.0.0.0","Windows","10.0","https://hz8g1ckzuq.cognition.run/","en,en-US;q=0.9","dkvdmjk5gepdn3e","39","[""White""]","No","Female","2098592.1999999993","null","","<p></p>","null","rating","dtc","attraction_2","1","televisions","null","null","null","null","null","null","1","","","","","","","","","",""
"","","","","","rating_trial","survey-html-form","66","1391359","0.0-3.0-1.31","177","1","2025-04-14 14:31:19","bb671e3ae32f654b8954ea4c4635f915","","Mozilla/5.0 (Windows NT 10.0; WOW64) AppleWebKit/537.36 (KHTML, like Gecko) Chrome/131.0.0.0 Safari/537.36","WebKit","Chrome","131.0.0.0","Windows","10.0","https://hz8g1ckzuq.cognition.run/","en,en-US;q=0.9","dkvdmjk5gepdn3e","39","[""White""]","No","Female","2098592.1999999993","27261","","","{""price_1"":""300"",""price_2"":""200"",""price_3"":""250""}","rating","dtc","attraction_2","1","televisions","null","null","null","null","null","null","1","60","50","60","50","60","40","Screen size","Average lifespan","",""
"","","","","","rating_trial_setup","html-keyboard-response","67","1391663","0.0-3.0-0.32","177","1","2025-04-14 14:31:19","bb671e3ae32f654b8954ea4c4635f915","","Mozilla/5.0 (Windows NT 10.0; WOW64) AppleWebKit/537.36 (KHTML, like Gecko) Chrome/131.0.0.0 Safari/537.36","WebKit","Chrome","131.0.0.0","Windows","10.0","https://hz8g1ckzuq.cognition.run/","en,en-US;q=0.9","dkvdmjk5gepdn3e","39","[""White""]","No","Female","2098592.1999999993","null","","<p></p>","null","rating","dct","attraction_2","2","washing machines","null","null","null","null","null","null","2","","","","","","","","","",""
"","","","","","rating_trial","survey-html-form","68","1413086","0.0-3.0-1.32","177","1","2025-04-14 14:31:19","bb671e3ae32f654b8954ea4c4635f915","","Mozilla/5.0 (Windows NT 10.0; WOW64) AppleWebKit/537.36 (KHTML, like Gecko) Chrome/131.0.0.0 Safari/537.36","WebKit","Chrome","131.0.0.0","Windows","10.0","https://hz8g1ckzuq.cognition.run/","en,en-US;q=0.9","dkvdmjk5gepdn3e","39","[""White""]","No","Female","2098592.1999999993","21421","","","{""price_1"":""600"",""price_2"":""500"",""price_3"":""550""}","rating","dct","attraction_2","2","washing machines","null","null","null","null","null","null","2","50","60","40","60","50","60","Average lifespan","Energy savings","",""
"","","","","","rating_trial_setup","html-keyboard-response","69","1413390","0.0-3.0-0.33","177","1","2025-04-14 14:31:19","bb671e3ae32f654b8954ea4c4635f915","","Mozilla/5.0 (Windows NT 10.0; WOW64) AppleWebKit/537.36 (KHTML, like Gecko) Chrome/131.0.0.0 Safari/537.36","WebKit","Chrome","131.0.0.0","Windows","10.0","https://hz8g1ckzuq.cognition.run/","en,en-US;q=0.9","dkvdmjk5gepdn3e","39","[""White""]","No","Female","2098592.1999999993","null","","<p></p>","null","rating","cdt","attraction_1","1","microwave ovens","null","null","null","null","null","null","2","","","","","","","","","",""
"","","","","","rating_trial","survey-html-form","70","1428182","0.0-3.0-1.33","177","1","2025-04-14 14:31:19","bb671e3ae32f654b8954ea4c4635f915","","Mozilla/5.0 (Windows NT 10.0; WOW64) AppleWebKit/537.36 (KHTML, like Gecko) Chrome/131.0.0.0 Safari/537.36","WebKit","Chrome","131.0.0.0","Windows","10.0","https://hz8g1ckzuq.cognition.run/","en,en-US;q=0.9","dkvdmjk5gepdn3e","39","[""White""]","No","Female","2098592.1999999993","14787","","","{""price_1"":""200"",""price_2"":""280"",""price_3"":""250""}","rating","cdt","attraction_1","1","microwave ovens","null","null","null","null","null","null","2","60","50","60","50","60","45","Warranty","Cooking power","",""
"","","","","","rating_trial_setup","html-keyboard-response","71","1428486","0.0-3.0-0.34","177","1","2025-04-14 14:31:19","bb671e3ae32f654b8954ea4c4635f915","","Mozilla/5.0 (Windows NT 10.0; WOW64) AppleWebKit/537.36 (KHTML, like Gecko) Chrome/131.0.0.0 Safari/537.36","WebKit","Chrome","131.0.0.0","Windows","10.0","https://hz8g1ckzuq.cognition.run/","en,en-US;q=0.9","dkvdmjk5gepdn3e","39","[""White""]","No","Female","2098592.1999999993","null","","<p></p>","null","rating","dct","repulsion_1","2","laptops","null","null","null","null","null","null","1","","","","","","","","","",""
"","","","","","rating_trial","survey-html-form","72","1445606","0.0-3.0-1.34","177","1","2025-04-14 14:31:19","bb671e3ae32f654b8954ea4c4635f915","","Mozilla/5.0 (Windows NT 10.0; WOW64) AppleWebKit/537.36 (KHTML, like Gecko) Chrome/131.0.0.0 Safari/537.36","WebKit","Chrome","131.0.0.0","Windows","10.0","https://hz8g1ckzuq.cognition.run/","en,en-US;q=0.9","dkvdmjk5gepdn3e","39","[""White""]","No","Female","2098592.1999999993","17115","","","{""price_1"":""300"",""price_2"":""250"",""price_3"":""280""}","rating","dct","repulsion_1","2","laptops","null","null","null","null","null","null","1","30","40","25","100","90","100","Processing speed","Memory (RAM)","",""
"","","","","","rating_trial_setup","html-keyboard-response","73","1445911","0.0-3.0-0.35","177","1","2025-04-14 14:31:19","bb671e3ae32f654b8954ea4c4635f915","","Mozilla/5.0 (Windows NT 10.0; WOW64) AppleWebKit/537.36 (KHTML, like Gecko) Chrome/131.0.0.0 Safari/537.36","WebKit","Chrome","131.0.0.0","Windows","10.0","https://hz8g1ckzuq.cognition.run/","en,en-US;q=0.9","dkvdmjk5gepdn3e","39","[""White""]","No","Female","2098592.1999999993","null","","<p></p>","null","rating","dct","attraction_1","1","washing machines","null","null","null","null","null","null","2","","","","","","","","","",""
"","","","","","rating_trial","survey-html-form","74","1472207","0.0-3.0-1.35","177","1","2025-04-14 14:31:19","bb671e3ae32f654b8954ea4c4635f915","","Mozilla/5.0 (Windows NT 10.0; WOW64) AppleWebKit/537.36 (KHTML, like Gecko) Chrome/131.0.0.0 Safari/537.36","WebKit","Chrome","131.0.0.0","Windows","10.0","https://hz8g1ckzuq.cognition.run/","en,en-US;q=0.9","dkvdmjk5gepdn3e","39","[""White""]","No","Female","2098592.1999999993","26292","","","{""price_1"":""600"",""price_2"":""500"",""price_3"":""550""}","rating","dct","attraction_1","1","washing machines","null","null","null","null","null","null","2","60","50","60","50","60","45","Average lifespan","Energy savings","",""
"","","","","","rating_trial_setup","html-keyboard-response","75","1472512","0.0-3.0-0.36","177","1","2025-04-14 14:31:19","bb671e3ae32f654b8954ea4c4635f915","","Mozilla/5.0 (Windows NT 10.0; WOW64) AppleWebKit/537.36 (KHTML, like Gecko) Chrome/131.0.0.0 Safari/537.36","WebKit","Chrome","131.0.0.0","Windows","10.0","https://hz8g1ckzuq.cognition.run/","en,en-US;q=0.9","dkvdmjk5gepdn3e","39","[""White""]","No","Female","2098592.1999999993","null","","<p></p>","null","rating","wbw","catch","null","microwave ovens","70","70","25","35","40","35","1","","","","","","","","","",""
"","","","","","rating_trial","survey-html-form","76","1497575","0.0-3.0-1.36","177","1","2025-04-14 14:31:19","bb671e3ae32f654b8954ea4c4635f915","","Mozilla/5.0 (Windows NT 10.0; WOW64) AppleWebKit/537.36 (KHTML, like Gecko) Chrome/131.0.0.0 Safari/537.36","WebKit","Chrome","131.0.0.0","Windows","10.0","https://hz8g1ckzuq.cognition.run/","en,en-US;q=0.9","dkvdmjk5gepdn3e","39","[""White""]","No","Female","2098592.1999999993","25058","","","{""price_1"":""200"",""price_2"":""150"",""price_3"":""180""}","rating","wbw","catch","null","microwave ovens","70","70","25","35","40","35","1","null","null","null","null","null","null","Warranty","Cooking power","",""
"","","","","","rating_trial_setup","html-keyboard-response","77","1497879","0.0-3.0-0.37","177","1","2025-04-14 14:31:19","bb671e3ae32f654b8954ea4c4635f915","","Mozilla/5.0 (Windows NT 10.0; WOW64) AppleWebKit/537.36 (KHTML, like Gecko) Chrome/131.0.0.0 Safari/537.36","WebKit","Chrome","131.0.0.0","Windows","10.0","https://hz8g1ckzuq.cognition.run/","en,en-US;q=0.9","dkvdmjk5gepdn3e","39","[""White""]","No","Female","2098592.1999999993","null","","<p></p>","null","rating","ctd","repulsion_1","2","microwave ovens","null","null","null","null","null","null","1","","","","","","","","","",""
"","","","","","rating_trial","survey-html-form","78","1529158","0.0-3.0-1.37","177","1","2025-04-14 14:31:19","bb671e3ae32f654b8954ea4c4635f915","","Mozilla/5.0 (Windows NT 10.0; WOW64) AppleWebKit/537.36 (KHTML, like Gecko) Chrome/131.0.0.0 Safari/537.36","WebKit","Chrome","131.0.0.0","Windows","10.0","https://hz8g1ckzuq.cognition.run/","en,en-US;q=0.9","dkvdmjk5gepdn3e","39","[""White""]","No","Female","2098592.1999999993","31277","","","{""price_1"":""200"",""price_2"":""250"",""price_3"":""230""}","rating","ctd","repulsion_1","2","microwave ovens","null","null","null","null","null","null","1","30","40","25","100","90","100","Warranty","Cooking power","",""
"","","","","","rating_trial_setup","html-keyboard-response","79","1529462","0.0-3.0-0.38","177","1","2025-04-14 14:31:19","bb671e3ae32f654b8954ea4c4635f915","","Mozilla/5.0 (Windows NT 10.0; WOW64) AppleWebKit/537.36 (KHTML, like Gecko) Chrome/131.0.0.0 Safari/537.36","WebKit","Chrome","131.0.0.0","Windows","10.0","https://hz8g1ckzuq.cognition.run/","en,en-US;q=0.9","dkvdmjk5gepdn3e","39","[""White""]","No","Female","2098592.1999999993","null","","<p></p>","null","rating","cdt","attraction_1","1","laptops","null","null","null","null","null","null","1","","","","","","","","","",""
"","","","","","rating_trial","survey-html-form","80","1563990","0.0-3.0-1.38","177","1","2025-04-14 14:31:19","bb671e3ae32f654b8954ea4c4635f915","","Mozilla/5.0 (Windows NT 10.0; WOW64) AppleWebKit/537.36 (KHTML, like Gecko) Chrome/131.0.0.0 Safari/537.36","WebKit","Chrome","131.0.0.0","Windows","10.0","https://hz8g1ckzuq.cognition.run/","en,en-US;q=0.9","dkvdmjk5gepdn3e","39","[""White""]","No","Female","2098592.1999999993","34525","","","{""price_1"":""300"",""price_2"":""350"",""price_3"":""380""}","rating","cdt","attraction_1","1","laptops","null","null","null","null","null","null","1","60","50","60","50","60","45","Processing speed","Memory (RAM)","",""
"","","","","","rating_trial_setup","html-keyboard-response","81","1564294","0.0-3.0-0.39","177","1","2025-04-14 14:31:19","bb671e3ae32f654b8954ea4c4635f915","","Mozilla/5.0 (Windows NT 10.0; WOW64) AppleWebKit/537.36 (KHTML, like Gecko) Chrome/131.0.0.0 Safari/537.36","WebKit","Chrome","131.0.0.0","Windows","10.0","https://hz8g1ckzuq.cognition.run/","en,en-US;q=0.9","dkvdmjk5gepdn3e","39","[""White""]","No","Female","2098592.1999999993","null","","<p></p>","null","rating","dtc","repulsion_2","1","laptops","null","null","null","null","null","null","2","","","","","","","","","",""
"","","","","","rating_trial","survey-html-form","82","1582742","0.0-3.0-1.39","177","1","2025-04-14 14:31:19","bb671e3ae32f654b8954ea4c4635f915","","Mozilla/5.0 (Windows NT 10.0; WOW64) AppleWebKit/537.36 (KHTML, like Gecko) Chrome/131.0.0.0 Safari/537.36","WebKit","Chrome","131.0.0.0","Windows","10.0","https://hz8g1ckzuq.cognition.run/","en,en-US;q=0.9","dkvdmjk5gepdn3e","39","[""White""]","No","Female","2098592.1999999993","18444","","","{""price_1"":""300"",""price_2"":""350"",""price_3"":""290""}","rating","dtc","repulsion_2","1","laptops","null","null","null","null","null","null","2","100","90","100","30","40","20","Processing speed","Memory (RAM)","",""
"","","","","","","instructions","83","1664398","0.0-4.0","177","1","2025-04-14 14:31:19","bb671e3ae32f654b8954ea4c4635f915","","Mozilla/5.0 (Windows NT 10.0; WOW64) AppleWebKit/537.36 (KHTML, like Gecko) Chrome/131.0.0.0 Safari/537.36","WebKit","Chrome","131.0.0.0","Windows","10.0","https://hz8g1ckzuq.cognition.run/","en,en-US;q=0.9","dkvdmjk5gepdn3e","39","[""White""]","No","Female","2098592.1999999993","81652","[{""page_index"":0,""viewing_time"":2636},{""page_index"":1,""viewing_time"":3568},{""page_index"":2,""viewing_time"":4072},{""page_index"":3,""viewing_time"":5496},{""page_index"":4,""viewing_time"":8120},{""page_index"":5,""viewing_time"":6800},{""page_index"":6,""viewing_time"":47704},{""page_index"":7,""viewing_time"":3256}]","","","","","","","","","","","","","","","","","","","","","","","",""
"","","","","","choice_trial_setup","html-keyboard-response","84","1664702","0.0-5.0-0.0","177","1","2025-04-14 14:31:19","bb671e3ae32f654b8954ea4c4635f915","","Mozilla/5.0 (Windows NT 10.0; WOW64) AppleWebKit/537.36 (KHTML, like Gecko) Chrome/131.0.0.0 Safari/537.36","WebKit","Chrome","131.0.0.0","Windows","10.0","https://hz8g1ckzuq.cognition.run/","en,en-US;q=0.9","dkvdmjk5gepdn3e","39","[""White""]","No","Female","2098592.1999999993","null","","<p></p>","null","choice","wbw","catch","null","televisions","80","70","50","30","20","10","1","","","","","","","","","",""
"","","","","","choice_trial","survey-html-form","85","1679606","0.0-5.0-1.0","177","1","2025-04-14 14:31:19","bb671e3ae32f654b8954ea4c4635f915","","Mozilla/5.0 (Windows NT 10.0; WOW64) AppleWebKit/537.36 (KHTML, like Gecko) Chrome/131.0.0.0 Safari/537.36","WebKit","Chrome","131.0.0.0","Windows","10.0","https://hz8g1ckzuq.cognition.run/","en,en-US;q=0.9","dkvdmjk5gepdn3e","39","[""White""]","No","Female","2098592.1999999993","14898","","","{""product_choice"":""B""}","choice","wbw","catch","null","televisions","80","70","50","30","20","10","1","null","null","null","null","null","null","Screen size","Average lifespan","",""
"","","","","","choice_trial_setup","html-keyboard-response","86","1679910","0.0-5.0-0.1","177","1","2025-04-14 14:31:19","bb671e3ae32f654b8954ea4c4635f915","","Mozilla/5.0 (Windows NT 10.0; WOW64) AppleWebKit/537.36 (KHTML, like Gecko) Chrome/131.0.0.0 Safari/537.36","WebKit","Chrome","131.0.0.0","Windows","10.0","https://hz8g1ckzuq.cognition.run/","en,en-US;q=0.9","dkvdmjk5gepdn3e","39","[""White""]","No","Female","2098592.1999999993","null","","<p></p>","null","choice","dct","attraction_2","2","washing machines","null","null","null","null","null","null","2","","","","","","","","","",""
"","","","","","choice_trial","survey-html-form","87","1690135","0.0-5.0-1.1","177","1","2025-04-14 14:31:19","bb671e3ae32f654b8954ea4c4635f915","","Mozilla/5.0 (Windows NT 10.0; WOW64) AppleWebKit/537.36 (KHTML, like Gecko) Chrome/131.0.0.0 Safari/537.36","WebKit","Chrome","131.0.0.0","Windows","10.0","https://hz8g1ckzuq.cognition.run/","en,en-US;q=0.9","dkvdmjk5gepdn3e","39","[""White""]","No","Female","2098592.1999999993","10222","","","{""product_choice"":""C""}","choice","dct","attraction_2","2","washing machines","null","null","null","null","null","null","2","50","60","40","60","50","60","Average lifespan","Energy savings","",""
"","","","","","choice_trial_setup","html-keyboard-response","88","1690438","0.0-5.0-0.2","177","1","2025-04-14 14:31:19","bb671e3ae32f654b8954ea4c4635f915","","Mozilla/5.0 (Windows NT 10.0; WOW64) AppleWebKit/537.36 (KHTML, like Gecko) Chrome/131.0.0.0 Safari/537.36","WebKit","Chrome","131.0.0.0","Windows","10.0","https://hz8g1ckzuq.cognition.run/","en,en-US;q=0.9","dkvdmjk5gepdn3e","39","[""White""]","No","Female","2098592.1999999993","null","","<p></p>","null","choice","cdt","attraction_2","1","microwave ovens","null","null","null","null","null","null","2","","","","","","","","","",""
"","","","","","choice_trial","survey-html-form","89","1703823","0.0-5.0-1.2","177","1","2025-04-14 14:31:19","bb671e3ae32f654b8954ea4c4635f915","","Mozilla/5.0 (Windows NT 10.0; WOW64) AppleWebKit/537.36 (KHTML, like Gecko) Chrome/131.0.0.0 Safari/537.36","WebKit","Chrome","131.0.0.0","Windows","10.0","https://hz8g1ckzuq.cognition.run/","en,en-US;q=0.9","dkvdmjk5gepdn3e","39","[""White""]","No","Female","2098592.1999999993","13380","","","{""product_choice"":""A""}","choice","cdt","attraction_2","1","microwave ovens","null","null","null","null","null","null","2","60","50","60","50","60","40","Warranty","Cooking power","",""
"","","","","","choice_trial_setup","html-keyboard-response","90","1704126","0.0-5.0-0.3","177","1","2025-04-14 14:31:19","bb671e3ae32f654b8954ea4c4635f915","","Mozilla/5.0 (Windows NT 10.0; WOW64) AppleWebKit/537.36 (KHTML, like Gecko) Chrome/131.0.0.0 Safari/537.36","WebKit","Chrome","131.0.0.0","Windows","10.0","https://hz8g1ckzuq.cognition.run/","en,en-US;q=0.9","dkvdmjk5gepdn3e","39","[""White""]","No","Female","2098592.1999999993","null","","<p></p>","null","choice","bww","catch","null","laptops","55","80","40","45","30","40","1","","","","","","","","","",""
"","","","","","choice_trial","survey-html-form","91","1711022","0.0-5.0-1.3","177","1","2025-04-14 14:31:19","bb671e3ae32f654b8954ea4c4635f915","","Mozilla/5.0 (Windows NT 10.0; WOW64) AppleWebKit/537.36 (KHTML, like Gecko) Chrome/131.0.0.0 Safari/537.36","WebKit","Chrome","131.0.0.0","Windows","10.0","https://hz8g1ckzuq.cognition.run/","en,en-US;q=0.9","dkvdmjk5gepdn3e","39","[""White""]","No","Female","2098592.1999999993","6892","","","{""product_choice"":""A""}","choice","bww","catch","null","laptops","55","80","40","45","30","40","1","null","null","null","null","null","null","Processing speed","Memory (RAM)","",""
"","","","","","choice_trial_setup","html-keyboard-response","92","1711326","0.0-5.0-0.4","177","1","2025-04-14 14:31:19","bb671e3ae32f654b8954ea4c4635f915","","Mozilla/5.0 (Windows NT 10.0; WOW64) AppleWebKit/537.36 (KHTML, like Gecko) Chrome/131.0.0.0 Safari/537.36","WebKit","Chrome","131.0.0.0","Windows","10.0","https://hz8g1ckzuq.cognition.run/","en,en-US;q=0.9","dkvdmjk5gepdn3e","39","[""White""]","No","Female","2098592.1999999993","null","","<p></p>","null","choice","bww","catch","null","televisions","95","65","25","35","15","5","2","","","","","","","","","",""
"","","","","","choice_trial","survey-html-form","93","1718382","0.0-5.0-1.4","177","1","2025-04-14 14:31:19","bb671e3ae32f654b8954ea4c4635f915","","Mozilla/5.0 (Windows NT 10.0; WOW64) AppleWebKit/537.36 (KHTML, like Gecko) Chrome/131.0.0.0 Safari/537.36","WebKit","Chrome","131.0.0.0","Windows","10.0","https://hz8g1ckzuq.cognition.run/","en,en-US;q=0.9","dkvdmjk5gepdn3e","39","[""White""]","No","Female","2098592.1999999993","7052","","","{""product_choice"":""A""}","choice","bww","catch","null","televisions","95","65","25","35","15","5","2","null","null","null","null","null","null","Screen size","Average lifespan","",""
"","","","","","choice_trial_setup","html-keyboard-response","94","1718686","0.0-5.0-0.5","177","1","2025-04-14 14:31:19","bb671e3ae32f654b8954ea4c4635f915","","Mozilla/5.0 (Windows NT 10.0; WOW64) AppleWebKit/537.36 (KHTML, like Gecko) Chrome/131.0.0.0 Safari/537.36","WebKit","Chrome","131.0.0.0","Windows","10.0","https://hz8g1ckzuq.cognition.run/","en,en-US;q=0.9","dkvdmjk5gepdn3e","39","[""White""]","No","Female","2098592.1999999993","null","","<p></p>","null","choice","dct","repulsion_1","2","televisions","null","null","null","null","null","null","2","","","","","","","","","",""
"","","","","","choice_trial","survey-html-form","95","1729654","0.0-5.0-1.5","177","1","2025-04-14 14:31:19","bb671e3ae32f654b8954ea4c4635f915","","Mozilla/5.0 (Windows NT 10.0; WOW64) AppleWebKit/537.36 (KHTML, like Gecko) Chrome/131.0.0.0 Safari/537.36","WebKit","Chrome","131.0.0.0","Windows","10.0","https://hz8g1ckzuq.cognition.run/","en,en-US;q=0.9","dkvdmjk5gepdn3e","39","[""White""]","No","Female","2098592.1999999993","10965","","","{""product_choice"":""C""}","choice","dct","repulsion_1","2","televisions","null","null","null","null","null","null","2","30","40","25","100","90","100","Screen size","Average lifespan","",""
"","","","","","choice_trial_setup","html-keyboard-response","96","1729958","0.0-5.0-0.6","177","1","2025-04-14 14:31:19","bb671e3ae32f654b8954ea4c4635f915","","Mozilla/5.0 (Windows NT 10.0; WOW64) AppleWebKit/537.36 (KHTML, like Gecko) Chrome/131.0.0.0 Safari/537.36","WebKit","Chrome","131.0.0.0","Windows","10.0","https://hz8g1ckzuq.cognition.run/","en,en-US;q=0.9","dkvdmjk5gepdn3e","39","[""White""]","No","Female","2098592.1999999993","null","","<p></p>","null","choice","dtc","repulsion_2","2","washing machines","null","null","null","null","null","null","1","","","","","","","","","",""
"","","","","","choice_trial","survey-html-form","97","1739126","0.0-5.0-1.6","177","1","2025-04-14 14:31:19","bb671e3ae32f654b8954ea4c4635f915","","Mozilla/5.0 (Windows NT 10.0; WOW64) AppleWebKit/537.36 (KHTML, like Gecko) Chrome/131.0.0.0 Safari/537.36","WebKit","Chrome","131.0.0.0","Windows","10.0","https://hz8g1ckzuq.cognition.run/","en,en-US;q=0.9","dkvdmjk5gepdn3e","39","[""White""]","No","Female","2098592.1999999993","9164","","","{""product_choice"":""B""}","choice","dtc","repulsion_2","2","washing machines","null","null","null","null","null","null","1","30","40","20","100","90","100","Average lifespan","Energy savings","",""
"","","","","","choice_trial_setup","html-keyboard-response","98","1739432","0.0-5.0-0.7","177","1","2025-04-14 14:31:19","bb671e3ae32f654b8954ea4c4635f915","","Mozilla/5.0 (Windows NT 10.0; WOW64) AppleWebKit/537.36 (KHTML, like Gecko) Chrome/131.0.0.0 Safari/537.36","WebKit","Chrome","131.0.0.0","Windows","10.0","https://hz8g1ckzuq.cognition.run/","en,en-US;q=0.9","dkvdmjk5gepdn3e","39","[""White""]","No","Female","2098592.1999999993","null","","<p></p>","null","choice","wbw","catch","null","laptops","60","50","25","15","45","10","1","","","","","","","","","",""
"","","","","","choice_trial","survey-html-form","99","1750174","0.0-5.0-1.7","177","1","2025-04-14 14:31:19","bb671e3ae32f654b8954ea4c4635f915","","Mozilla/5.0 (Windows NT 10.0; WOW64) AppleWebKit/537.36 (KHTML, like Gecko) Chrome/131.0.0.0 Safari/537.36","WebKit","Chrome","131.0.0.0","Windows","10.0","https://hz8g1ckzuq.cognition.run/","en,en-US;q=0.9","dkvdmjk5gepdn3e","39","[""White""]","No","Female","2098592.1999999993","10736","","","{""product_choice"":""B""}","choice","wbw","catch","null","laptops","60","50","25","15","45","10","1","null","null","null","null","null","null","Processing speed","Memory (RAM)","",""
"","","","","","choice_trial_setup","html-keyboard-response","100","1750478","0.0-5.0-0.8","177","1","2025-04-14 14:31:19","bb671e3ae32f654b8954ea4c4635f915","","Mozilla/5.0 (Windows NT 10.0; WOW64) AppleWebKit/537.36 (KHTML, like Gecko) Chrome/131.0.0.0 Safari/537.36","WebKit","Chrome","131.0.0.0","Windows","10.0","https://hz8g1ckzuq.cognition.run/","en,en-US;q=0.9","dkvdmjk5gepdn3e","39","[""White""]","No","Female","2098592.1999999993","null","","<p></p>","null","choice","tdc","attraction_2","1","televisions","null","null","null","null","null","null","1","","","","","","","","","",""
"","","","","","choice_trial","survey-html-form","101","1759566","0.0-5.0-1.8","177","1","2025-04-14 14:31:19","bb671e3ae32f654b8954ea4c4635f915","","Mozilla/5.0 (Windows NT 10.0; WOW64) AppleWebKit/537.36 (KHTML, like Gecko) Chrome/131.0.0.0 Safari/537.36","WebKit","Chrome","131.0.0.0","Windows","10.0","https://hz8g1ckzuq.cognition.run/","en,en-US;q=0.9","dkvdmjk5gepdn3e","39","[""White""]","No","Female","2098592.1999999993","9079","","","{""product_choice"":""A""}","choice","tdc","attraction_2","1","televisions","null","null","null","null","null","null","1","60","50","60","50","60","40","Screen size","Average lifespan","",""
"","","","","","choice_trial_setup","html-keyboard-response","102","1759872","0.0-5.0-0.9","177","1","2025-04-14 14:31:19","bb671e3ae32f654b8954ea4c4635f915","","Mozilla/5.0 (Windows NT 10.0; WOW64) AppleWebKit/537.36 (KHTML, like Gecko) Chrome/131.0.0.0 Safari/537.36","WebKit","Chrome","131.0.0.0","Windows","10.0","https://hz8g1ckzuq.cognition.run/","en,en-US;q=0.9","dkvdmjk5gepdn3e","39","[""White""]","No","Female","2098592.1999999993","null","","<p></p>","null","choice","ctd","attraction_2","1","laptops","null","null","null","null","null","null","2","","","","","","","","","",""
"","","","","","choice_trial","survey-html-form","103","1770223","0.0-5.0-1.9","177","1","2025-04-14 14:31:19","bb671e3ae32f654b8954ea4c4635f915","","Mozilla/5.0 (Windows NT 10.0; WOW64) AppleWebKit/537.36 (KHTML, like Gecko) Chrome/131.0.0.0 Safari/537.36","WebKit","Chrome","131.0.0.0","Windows","10.0","https://hz8g1ckzuq.cognition.run/","en,en-US;q=0.9","dkvdmjk5gepdn3e","39","[""White""]","No","Female","2098592.1999999993","10341","","","{""product_choice"":""B""}","choice","ctd","attraction_2","1","laptops","null","null","null","null","null","null","2","60","50","60","50","60","40","Processing speed","Memory (RAM)","",""
"","","","","","choice_trial_setup","html-keyboard-response","104","1770526","0.0-5.0-0.10","177","1","2025-04-14 14:31:19","bb671e3ae32f654b8954ea4c4635f915","","Mozilla/5.0 (Windows NT 10.0; WOW64) AppleWebKit/537.36 (KHTML, like Gecko) Chrome/131.0.0.0 Safari/537.36","WebKit","Chrome","131.0.0.0","Windows","10.0","https://hz8g1ckzuq.cognition.run/","en,en-US;q=0.9","dkvdmjk5gepdn3e","39","[""White""]","No","Female","2098592.1999999993","null","","<p></p>","null","choice","tdc","repulsion_1","1","televisions","null","null","null","null","null","null","2","","","","","","","","","",""
"","","","","","choice_trial","survey-html-form","105","1778982","0.0-5.0-1.10","177","1","2025-04-14 14:31:19","bb671e3ae32f654b8954ea4c4635f915","","Mozilla/5.0 (Windows NT 10.0; WOW64) AppleWebKit/537.36 (KHTML, like Gecko) Chrome/131.0.0.0 Safari/537.36","WebKit","Chrome","131.0.0.0","Windows","10.0","https://hz8g1ckzuq.cognition.run/","en,en-US;q=0.9","dkvdmjk5gepdn3e","39","[""White""]","No","Female","2098592.1999999993","8449","","","{""product_choice"":""A""}","choice","tdc","repulsion_1","1","televisions","null","null","null","null","null","null","2","100","90","100","30","40","25","Screen size","Average lifespan","",""
"","","","","","choice_trial_setup","html-keyboard-response","106","1779287","0.0-5.0-0.11","177","1","2025-04-14 14:31:19","bb671e3ae32f654b8954ea4c4635f915","","Mozilla/5.0 (Windows NT 10.0; WOW64) AppleWebKit/537.36 (KHTML, like Gecko) Chrome/131.0.0.0 Safari/537.36","WebKit","Chrome","131.0.0.0","Windows","10.0","https://hz8g1ckzuq.cognition.run/","en,en-US;q=0.9","dkvdmjk5gepdn3e","39","[""White""]","No","Female","2098592.1999999993","null","","<p></p>","null","choice","cdt","repulsion_1","1","washing machines","null","null","null","null","null","null","1","","","","","","","","","",""
"","","","","","choice_trial","survey-html-form","107","1784926","0.0-5.0-1.11","177","1","2025-04-14 14:31:19","bb671e3ae32f654b8954ea4c4635f915","","Mozilla/5.0 (Windows NT 10.0; WOW64) AppleWebKit/537.36 (KHTML, like Gecko) Chrome/131.0.0.0 Safari/537.36","WebKit","Chrome","131.0.0.0","Windows","10.0","https://hz8g1ckzuq.cognition.run/","en,en-US;q=0.9","dkvdmjk5gepdn3e","39","[""White""]","No","Female","2098592.1999999993","5635","","","{""product_choice"":""C""}","choice","cdt","repulsion_1","1","washing machines","null","null","null","null","null","null","1","100","90","100","30","40","25","Average lifespan","Energy savings","",""
"","","","","","choice_trial_setup","html-keyboard-response","108","1785231","0.0-5.0-0.12","177","1","2025-04-14 14:31:19","bb671e3ae32f654b8954ea4c4635f915","","Mozilla/5.0 (Windows NT 10.0; WOW64) AppleWebKit/537.36 (KHTML, like Gecko) Chrome/131.0.0.0 Safari/537.36","WebKit","Chrome","131.0.0.0","Windows","10.0","https://hz8g1ckzuq.cognition.run/","en,en-US;q=0.9","dkvdmjk5gepdn3e","39","[""White""]","No","Female","2098592.1999999993","null","","<p></p>","null","choice","tdc","repulsion_1","2","washing machines","null","null","null","null","null","null","2","","","","","","","","","",""
"","","","","","choice_trial","survey-html-form","109","1791334","0.0-5.0-1.12","177","1","2025-04-14 14:31:19","bb671e3ae32f654b8954ea4c4635f915","","Mozilla/5.0 (Windows NT 10.0; WOW64) AppleWebKit/537.36 (KHTML, like Gecko) Chrome/131.0.0.0 Safari/537.36","WebKit","Chrome","131.0.0.0","Windows","10.0","https://hz8g1ckzuq.cognition.run/","en,en-US;q=0.9","dkvdmjk5gepdn3e","39","[""White""]","No","Female","2098592.1999999993","6098","","","{""product_choice"":""A""}","choice","tdc","repulsion_1","2","washing machines","null","null","null","null","null","null","2","30","40","25","100","90","100","Average lifespan","Energy savings","",""
"","","","","","choice_trial_setup","html-keyboard-response","110","1791650","0.0-5.0-0.13","177","1","2025-04-14 14:31:19","bb671e3ae32f654b8954ea4c4635f915","","Mozilla/5.0 (Windows NT 10.0; WOW64) AppleWebKit/537.36 (KHTML, like Gecko) Chrome/131.0.0.0 Safari/537.36","WebKit","Chrome","131.0.0.0","Windows","10.0","https://hz8g1ckzuq.cognition.run/","en,en-US;q=0.9","dkvdmjk5gepdn3e","39","[""White""]","No","Female","2098592.1999999993","null","","<p></p>","null","choice","dct","repulsion_1","2","laptops","null","null","null","null","null","null","1","","","","","","","","","",""
"","","","","","choice_trial","survey-html-form","111","1795735","0.0-5.0-1.13","177","1","2025-04-14 14:31:19","bb671e3ae32f654b8954ea4c4635f915","","Mozilla/5.0 (Windows NT 10.0; WOW64) AppleWebKit/537.36 (KHTML, like Gecko) Chrome/131.0.0.0 Safari/537.36","WebKit","Chrome","131.0.0.0","Windows","10.0","https://hz8g1ckzuq.cognition.run/","en,en-US;q=0.9","dkvdmjk5gepdn3e","39","[""White""]","No","Female","2098592.1999999993","4081","","","{""product_choice"":""C""}","choice","dct","repulsion_1","2","laptops","null","null","null","null","null","null","1","30","40","25","100","90","100","Processing speed","Memory (RAM)","",""
"","","","","","choice_trial_setup","html-keyboard-response","112","1796039","0.0-5.0-0.14","177","1","2025-04-14 14:31:19","bb671e3ae32f654b8954ea4c4635f915","","Mozilla/5.0 (Windows NT 10.0; WOW64) AppleWebKit/537.36 (KHTML, like Gecko) Chrome/131.0.0.0 Safari/537.36","WebKit","Chrome","131.0.0.0","Windows","10.0","https://hz8g1ckzuq.cognition.run/","en,en-US;q=0.9","dkvdmjk5gepdn3e","39","[""White""]","No","Female","2098592.1999999993","null","","<p></p>","null","choice","dtc","repulsion_2","1","microwave ovens","null","null","null","null","null","null","1","","","","","","","","","",""
"","","","","","choice_trial","survey-html-form","113","1799854","0.0-5.0-1.14","177","1","2025-04-14 14:31:19","bb671e3ae32f654b8954ea4c4635f915","","Mozilla/5.0 (Windows NT 10.0; WOW64) AppleWebKit/537.36 (KHTML, like Gecko) Chrome/131.0.0.0 Safari/537.36","WebKit","Chrome","131.0.0.0","Windows","10.0","https://hz8g1ckzuq.cognition.run/","en,en-US;q=0.9","dkvdmjk5gepdn3e","39","[""White""]","No","Female","2098592.1999999993","3805","","","{""product_choice"":""B""}","choice","dtc","repulsion_2","1","microwave ovens","null","null","null","null","null","null","1","100","90","100","30","40","20","Warranty","Cooking power","",""
"","","","","","choice_trial_setup","html-keyboard-response","114","1800159","0.0-5.0-0.15","177","1","2025-04-14 14:31:19","bb671e3ae32f654b8954ea4c4635f915","","Mozilla/5.0 (Windows NT 10.0; WOW64) AppleWebKit/537.36 (KHTML, like Gecko) Chrome/131.0.0.0 Safari/537.36","WebKit","Chrome","131.0.0.0","Windows","10.0","https://hz8g1ckzuq.cognition.run/","en,en-US;q=0.9","dkvdmjk5gepdn3e","39","[""White""]","No","Female","2098592.1999999993","null","","<p></p>","null","choice","tcd","attraction_1","2","microwave ovens","null","null","null","null","null","null","2","","","","","","","","","",""
"","","","","","choice_trial","survey-html-form","115","1805230","0.0-5.0-1.15","177","1","2025-04-14 14:31:19","bb671e3ae32f654b8954ea4c4635f915","","Mozilla/5.0 (Windows NT 10.0; WOW64) AppleWebKit/537.36 (KHTML, like Gecko) Chrome/131.0.0.0 Safari/537.36","WebKit","Chrome","131.0.0.0","Windows","10.0","https://hz8g1ckzuq.cognition.run/","en,en-US;q=0.9","dkvdmjk5gepdn3e","39","[""White""]","No","Female","2098592.1999999993","5065","","","{""product_choice"":""A""}","choice","tcd","attraction_1","2","microwave ovens","null","null","null","null","null","null","2","50","60","45","60","50","60","Warranty","Cooking power","",""
"","","","","","choice_trial_setup","html-keyboard-response","116","1805535","0.0-5.0-0.16","177","1","2025-04-14 14:31:19","bb671e3ae32f654b8954ea4c4635f915","","Mozilla/5.0 (Windows NT 10.0; WOW64) AppleWebKit/537.36 (KHTML, like Gecko) Chrome/131.0.0.0 Safari/537.36","WebKit","Chrome","131.0.0.0","Windows","10.0","https://hz8g1ckzuq.cognition.run/","en,en-US;q=0.9","dkvdmjk5gepdn3e","39","[""White""]","No","Female","2098592.1999999993","null","","<p></p>","null","choice","bww","catch","null","microwave ovens","55","80","10","15","30","5","1","","","","","","","","","",""
"","","","","","choice_trial","survey-html-form","117","1813583","0.0-5.0-1.16","177","1","2025-04-14 14:31:19","bb671e3ae32f654b8954ea4c4635f915","","Mozilla/5.0 (Windows NT 10.0; WOW64) AppleWebKit/537.36 (KHTML, like Gecko) Chrome/131.0.0.0 Safari/537.36","WebKit","Chrome","131.0.0.0","Windows","10.0","https://hz8g1ckzuq.cognition.run/","en,en-US;q=0.9","dkvdmjk5gepdn3e","39","[""White""]","No","Female","2098592.1999999993","8034","","","{""product_choice"":""A""}","choice","bww","catch","null","microwave ovens","55","80","10","15","30","5","1","null","null","null","null","null","null","Warranty","Cooking power","",""
"","","","","","choice_trial_setup","html-keyboard-response","118","1813887","0.0-5.0-0.17","177","1","2025-04-14 14:31:19","bb671e3ae32f654b8954ea4c4635f915","","Mozilla/5.0 (Windows NT 10.0; WOW64) AppleWebKit/537.36 (KHTML, like Gecko) Chrome/131.0.0.0 Safari/537.36","WebKit","Chrome","131.0.0.0","Windows","10.0","https://hz8g1ckzuq.cognition.run/","en,en-US;q=0.9","dkvdmjk5gepdn3e","39","[""White""]","No","Female","2098592.1999999993","null","","<p></p>","null","choice","bww","catch","null","washing machines","90","90","20","45","45","15","1","","","","","","","","","",""
"","","","","","choice_trial","survey-html-form","119","1821038","0.0-5.0-1.17","177","1","2025-04-14 14:31:19","bb671e3ae32f654b8954ea4c4635f915","","Mozilla/5.0 (Windows NT 10.0; WOW64) AppleWebKit/537.36 (KHTML, like Gecko) Chrome/131.0.0.0 Safari/537.36","WebKit","Chrome","131.0.0.0","Windows","10.0","https://hz8g1ckzuq.cognition.run/","en,en-US;q=0.9","dkvdmjk5gepdn3e","39","[""White""]","No","Female","2098592.1999999993","7145","","","{""product_choice"":""A""}","choice","bww","catch","null","washing machines","90","90","20","45","45","15","1","null","null","null","null","null","null","Average lifespan","Energy savings","",""
"","","","","","choice_trial_setup","html-keyboard-response","120","1821343","0.0-5.0-0.18","177","1","2025-04-14 14:31:19","bb671e3ae32f654b8954ea4c4635f915","","Mozilla/5.0 (Windows NT 10.0; WOW64) AppleWebKit/537.36 (KHTML, like Gecko) Chrome/131.0.0.0 Safari/537.36","WebKit","Chrome","131.0.0.0","Windows","10.0","https://hz8g1ckzuq.cognition.run/","en,en-US;q=0.9","dkvdmjk5gepdn3e","39","[""White""]","No","Female","2098592.1999999993","null","","<p></p>","null","choice","cdt","attraction_1","1","televisions","null","null","null","null","null","null","2","","","","","","","","","",""
"","","","","","choice_trial","survey-html-form","121","1830070","0.0-5.0-1.18","177","1","2025-04-14 14:31:19","bb671e3ae32f654b8954ea4c4635f915","","Mozilla/5.0 (Windows NT 10.0; WOW64) AppleWebKit/537.36 (KHTML, like Gecko) Chrome/131.0.0.0 Safari/537.36","WebKit","Chrome","131.0.0.0","Windows","10.0","https://hz8g1ckzuq.cognition.run/","en,en-US;q=0.9","dkvdmjk5gepdn3e","39","[""White""]","No","Female","2098592.1999999993","8723","","","{""product_choice"":""C""}","choice","cdt","attraction_1","1","televisions","null","null","null","null","null","null","2","60","50","60","50","60","45","Screen size","Average lifespan","",""
"","","","","","choice_trial_setup","html-keyboard-response","122","1830375","0.0-5.0-0.19","177","1","2025-04-14 14:31:19","bb671e3ae32f654b8954ea4c4635f915","","Mozilla/5.0 (Windows NT 10.0; WOW64) AppleWebKit/537.36 (KHTML, like Gecko) Chrome/131.0.0.0 Safari/537.36","WebKit","Chrome","131.0.0.0","Windows","10.0","https://hz8g1ckzuq.cognition.run/","en,en-US;q=0.9","dkvdmjk5gepdn3e","39","[""White""]","No","Female","2098592.1999999993","null","","<p></p>","null","choice","tcd","repulsion_1","1","microwave ovens","null","null","null","null","null","null","1","","","","","","","","","",""
"","","","","","choice_trial","survey-html-form","123","1834766","0.0-5.0-1.19","177","1","2025-04-14 14:31:19","bb671e3ae32f654b8954ea4c4635f915","","Mozilla/5.0 (Windows NT 10.0; WOW64) AppleWebKit/537.36 (KHTML, like Gecko) Chrome/131.0.0.0 Safari/537.36","WebKit","Chrome","131.0.0.0","Windows","10.0","https://hz8g1ckzuq.cognition.run/","en,en-US;q=0.9","dkvdmjk5gepdn3e","39","[""White""]","No","Female","2098592.1999999993","4387","","","{""product_choice"":""A""}","choice","tcd","repulsion_1","1","microwave ovens","null","null","null","null","null","null","1","100","90","100","30","40","25","Warranty","Cooking power","",""
"","","","","","choice_trial_setup","html-keyboard-response","124","1835072","0.0-5.0-0.20","177","1","2025-04-14 14:31:19","bb671e3ae32f654b8954ea4c4635f915","","Mozilla/5.0 (Windows NT 10.0; WOW64) AppleWebKit/537.36 (KHTML, like Gecko) Chrome/131.0.0.0 Safari/537.36","WebKit","Chrome","131.0.0.0","Windows","10.0","https://hz8g1ckzuq.cognition.run/","en,en-US;q=0.9","dkvdmjk5gepdn3e","39","[""White""]","No","Female","2098592.1999999993","null","","<p></p>","null","choice","bww","catch","null","washing machines","60","90","45","15","20","10","1","","","","","","","","","",""
"","","","","","choice_trial","survey-html-form","125","1840382","0.0-5.0-1.20","177","1","2025-04-14 14:31:19","bb671e3ae32f654b8954ea4c4635f915","","Mozilla/5.0 (Windows NT 10.0; WOW64) AppleWebKit/537.36 (KHTML, like Gecko) Chrome/131.0.0.0 Safari/537.36","WebKit","Chrome","131.0.0.0","Windows","10.0","https://hz8g1ckzuq.cognition.run/","en,en-US;q=0.9","dkvdmjk5gepdn3e","39","[""White""]","No","Female","2098592.1999999993","5294","","","{""product_choice"":""A""}","choice","bww","catch","null","washing machines","60","90","45","15","20","10","1","null","null","null","null","null","null","Average lifespan","Energy savings","",""
"","","","","","choice_trial_setup","html-keyboard-response","126","1840690","0.0-5.0-0.21","177","1","2025-04-14 14:31:19","bb671e3ae32f654b8954ea4c4635f915","","Mozilla/5.0 (Windows NT 10.0; WOW64) AppleWebKit/537.36 (KHTML, like Gecko) Chrome/131.0.0.0 Safari/537.36","WebKit","Chrome","131.0.0.0","Windows","10.0","https://hz8g1ckzuq.cognition.run/","en,en-US;q=0.9","dkvdmjk5gepdn3e","39","[""White""]","No","Female","2098592.1999999993","null","","<p></p>","null","choice","tdc","attraction_2","2","microwave ovens","null","null","null","null","null","null","2","","","","","","","","","",""
"","","","","","choice_trial","survey-html-form","127","1847950","0.0-5.0-1.21","177","1","2025-04-14 14:31:19","bb671e3ae32f654b8954ea4c4635f915","","Mozilla/5.0 (Windows NT 10.0; WOW64) AppleWebKit/537.36 (KHTML, like Gecko) Chrome/131.0.0.0 Safari/537.36","WebKit","Chrome","131.0.0.0","Windows","10.0","https://hz8g1ckzuq.cognition.run/","en,en-US;q=0.9","dkvdmjk5gepdn3e","39","[""White""]","No","Female","2098592.1999999993","7256","","","{""product_choice"":""A""}","choice","tdc","attraction_2","2","microwave ovens","null","null","null","null","null","null","2","50","60","40","60","50","60","Warranty","Cooking power","",""
"","","","","","choice_trial_setup","html-keyboard-response","128","1848254","0.0-5.0-0.22","177","1","2025-04-14 14:31:19","bb671e3ae32f654b8954ea4c4635f915","","Mozilla/5.0 (Windows NT 10.0; WOW64) AppleWebKit/537.36 (KHTML, like Gecko) Chrome/131.0.0.0 Safari/537.36","WebKit","Chrome","131.0.0.0","Windows","10.0","https://hz8g1ckzuq.cognition.run/","en,en-US;q=0.9","dkvdmjk5gepdn3e","39","[""White""]","No","Female","2098592.1999999993","null","","<p></p>","null","choice","dct","attraction_2","1","washing machines","null","null","null","null","null","null","1","","","","","","","","","",""
"","","","","","choice_trial","survey-html-form","129","1853494","0.0-5.0-1.22","177","1","2025-04-14 14:31:19","bb671e3ae32f654b8954ea4c4635f915","","Mozilla/5.0 (Windows NT 10.0; WOW64) AppleWebKit/537.36 (KHTML, like Gecko) Chrome/131.0.0.0 Safari/537.36","WebKit","Chrome","131.0.0.0","Windows","10.0","https://hz8g1ckzuq.cognition.run/","en,en-US;q=0.9","dkvdmjk5gepdn3e","39","[""White""]","No","Female","2098592.1999999993","5232","","","{""product_choice"":""C""}","choice","dct","attraction_2","1","washing machines","null","null","null","null","null","null","1","60","50","60","50","60","40","Average lifespan","Energy savings","",""
"","","","","","choice_trial_setup","html-keyboard-response","130","1853799","0.0-5.0-0.23","177","1","2025-04-14 14:31:19","bb671e3ae32f654b8954ea4c4635f915","","Mozilla/5.0 (Windows NT 10.0; WOW64) AppleWebKit/537.36 (KHTML, like Gecko) Chrome/131.0.0.0 Safari/537.36","WebKit","Chrome","131.0.0.0","Windows","10.0","https://hz8g1ckzuq.cognition.run/","en,en-US;q=0.9","dkvdmjk5gepdn3e","39","[""White""]","No","Female","2098592.1999999993","null","","<p></p>","null","choice","cdt","attraction_2","2","televisions","null","null","null","null","null","null","1","","","","","","","","","",""
"","","","","","choice_trial","survey-html-form","131","1861254","0.0-5.0-1.23","177","1","2025-04-14 14:31:19","bb671e3ae32f654b8954ea4c4635f915","","Mozilla/5.0 (Windows NT 10.0; WOW64) AppleWebKit/537.36 (KHTML, like Gecko) Chrome/131.0.0.0 Safari/537.36","WebKit","Chrome","131.0.0.0","Windows","10.0","https://hz8g1ckzuq.cognition.run/","en,en-US;q=0.9","dkvdmjk5gepdn3e","39","[""White""]","No","Female","2098592.1999999993","7446","","","{""product_choice"":""C""}","choice","cdt","attraction_2","2","televisions","null","null","null","null","null","null","1","50","60","40","60","50","60","Screen size","Average lifespan","",""
"","","","","","choice_trial_setup","html-keyboard-response","132","1861558","0.0-5.0-0.24","177","1","2025-04-14 14:31:19","bb671e3ae32f654b8954ea4c4635f915","","Mozilla/5.0 (Windows NT 10.0; WOW64) AppleWebKit/537.36 (KHTML, like Gecko) Chrome/131.0.0.0 Safari/537.36","WebKit","Chrome","131.0.0.0","Windows","10.0","https://hz8g1ckzuq.cognition.run/","en,en-US;q=0.9","dkvdmjk5gepdn3e","39","[""White""]","No","Female","2098592.1999999993","null","","<p></p>","null","choice","dtc","attraction_1","1","washing machines","null","null","null","null","null","null","2","","","","","","","","","",""
"","","","","","choice_trial","survey-html-form","133","1866342","0.0-5.0-1.24","177","1","2025-04-14 14:31:19","bb671e3ae32f654b8954ea4c4635f915","","Mozilla/5.0 (Windows NT 10.0; WOW64) AppleWebKit/537.36 (KHTML, like Gecko) Chrome/131.0.0.0 Safari/537.36","WebKit","Chrome","131.0.0.0","Windows","10.0","https://hz8g1ckzuq.cognition.run/","en,en-US;q=0.9","dkvdmjk5gepdn3e","39","[""White""]","No","Female","2098592.1999999993","4775","","","{""product_choice"":""B""}","choice","dtc","attraction_1","1","washing machines","null","null","null","null","null","null","2","60","50","60","50","60","45","Average lifespan","Energy savings","",""
"","","","","","choice_trial_setup","html-keyboard-response","134","1866650","0.0-5.0-0.25","177","1","2025-04-14 14:31:19","bb671e3ae32f654b8954ea4c4635f915","","Mozilla/5.0 (Windows NT 10.0; WOW64) AppleWebKit/537.36 (KHTML, like Gecko) Chrome/131.0.0.0 Safari/537.36","WebKit","Chrome","131.0.0.0","Windows","10.0","https://hz8g1ckzuq.cognition.run/","en,en-US;q=0.9","dkvdmjk5gepdn3e","39","[""White""]","No","Female","2098592.1999999993","null","","<p></p>","null","choice","ctd","repulsion_1","1","laptops","null","null","null","null","null","null","1","","","","","","","","","",""
"","","","","","choice_trial","survey-html-form","135","1873646","0.0-5.0-1.25","177","1","2025-04-14 14:31:19","bb671e3ae32f654b8954ea4c4635f915","","Mozilla/5.0 (Windows NT 10.0; WOW64) AppleWebKit/537.36 (KHTML, like Gecko) Chrome/131.0.0.0 Safari/537.36","WebKit","Chrome","131.0.0.0","Windows","10.0","https://hz8g1ckzuq.cognition.run/","en,en-US;q=0.9","dkvdmjk5gepdn3e","39","[""White""]","No","Female","2098592.1999999993","6990","","","{""product_choice"":""B""}","choice","ctd","repulsion_1","1","laptops","null","null","null","null","null","null","1","100","90","100","30","40","25","Processing speed","Memory (RAM)","",""
"","","","","","choice_trial_setup","html-keyboard-response","136","1873951","0.0-5.0-0.26","177","1","2025-04-14 14:31:19","bb671e3ae32f654b8954ea4c4635f915","","Mozilla/5.0 (Windows NT 10.0; WOW64) AppleWebKit/537.36 (KHTML, like Gecko) Chrome/131.0.0.0 Safari/537.36","WebKit","Chrome","131.0.0.0","Windows","10.0","https://hz8g1ckzuq.cognition.run/","en,en-US;q=0.9","dkvdmjk5gepdn3e","39","[""White""]","No","Female","2098592.1999999993","null","","<p></p>","null","choice","dct","attraction_1","1","laptops","null","null","null","null","null","null","1","","","","","","","","","",""
"","","","","","choice_trial","survey-html-form","137","1881110","0.0-5.0-1.26","177","1","2025-04-14 14:31:19","bb671e3ae32f654b8954ea4c4635f915","","Mozilla/5.0 (Windows NT 10.0; WOW64) AppleWebKit/537.36 (KHTML, like Gecko) Chrome/131.0.0.0 Safari/537.36","WebKit","Chrome","131.0.0.0","Windows","10.0","https://hz8g1ckzuq.cognition.run/","en,en-US;q=0.9","dkvdmjk5gepdn3e","39","[""White""]","No","Female","2098592.1999999993","7153","","","{""product_choice"":""C""}","choice","dct","attraction_1","1","laptops","null","null","null","null","null","null","1","60","50","60","50","60","45","Processing speed","Memory (RAM)","",""
"","","","","","choice_trial_setup","html-keyboard-response","138","1881416","0.0-5.0-0.27","177","1","2025-04-14 14:31:19","bb671e3ae32f654b8954ea4c4635f915","","Mozilla/5.0 (Windows NT 10.0; WOW64) AppleWebKit/537.36 (KHTML, like Gecko) Chrome/131.0.0.0 Safari/537.36","WebKit","Chrome","131.0.0.0","Windows","10.0","https://hz8g1ckzuq.cognition.run/","en,en-US;q=0.9","dkvdmjk5gepdn3e","39","[""White""]","No","Female","2098592.1999999993","null","","<p></p>","null","choice","tdc","attraction_1","1","microwave ovens","null","null","null","null","null","null","2","","","","","","","","","",""
"","","","","","choice_trial","survey-html-form","139","1889382","0.0-5.0-1.27","177","1","2025-04-14 14:31:19","bb671e3ae32f654b8954ea4c4635f915","","Mozilla/5.0 (Windows NT 10.0; WOW64) AppleWebKit/537.36 (KHTML, like Gecko) Chrome/131.0.0.0 Safari/537.36","WebKit","Chrome","131.0.0.0","Windows","10.0","https://hz8g1ckzuq.cognition.run/","en,en-US;q=0.9","dkvdmjk5gepdn3e","39","[""White""]","No","Female","2098592.1999999993","7958","","","{""product_choice"":""A""}","choice","tdc","attraction_1","1","microwave ovens","null","null","null","null","null","null","2","60","50","60","50","60","45","Warranty","Cooking power","",""
"","","","","","choice_trial_setup","html-keyboard-response","140","1889688","0.0-5.0-0.28","177","1","2025-04-14 14:31:19","bb671e3ae32f654b8954ea4c4635f915","","Mozilla/5.0 (Windows NT 10.0; WOW64) AppleWebKit/537.36 (KHTML, like Gecko) Chrome/131.0.0.0 Safari/537.36","WebKit","Chrome","131.0.0.0","Windows","10.0","https://hz8g1ckzuq.cognition.run/","en,en-US;q=0.9","dkvdmjk5gepdn3e","39","[""White""]","No","Female","2098592.1999999993","null","","<p></p>","null","choice","tcd","attraction_1","2","washing machines","null","null","null","null","null","null","2","","","","","","","","","",""
"","","","","","choice_trial","survey-html-form","141","1894294","0.0-5.0-1.28","177","1","2025-04-14 14:31:19","bb671e3ae32f654b8954ea4c4635f915","","Mozilla/5.0 (Windows NT 10.0; WOW64) AppleWebKit/537.36 (KHTML, like Gecko) Chrome/131.0.0.0 Safari/537.36","WebKit","Chrome","131.0.0.0","Windows","10.0","https://hz8g1ckzuq.cognition.run/","en,en-US;q=0.9","dkvdmjk5gepdn3e","39","[""White""]","No","Female","2098592.1999999993","4599","","","{""product_choice"":""A""}","choice","tcd","attraction_1","2","washing machines","null","null","null","null","null","null","2","50","60","45","60","50","60","Average lifespan","Energy savings","",""
"","","","","","choice_trial_setup","html-keyboard-response","142","1894599","0.0-5.0-0.29","177","1","2025-04-14 14:31:19","bb671e3ae32f654b8954ea4c4635f915","","Mozilla/5.0 (Windows NT 10.0; WOW64) AppleWebKit/537.36 (KHTML, like Gecko) Chrome/131.0.0.0 Safari/537.36","WebKit","Chrome","131.0.0.0","Windows","10.0","https://hz8g1ckzuq.cognition.run/","en,en-US;q=0.9","dkvdmjk5gepdn3e","39","[""White""]","No","Female","2098592.1999999993","null","","<p></p>","null","choice","tdc","repulsion_2","2","microwave ovens","null","null","null","null","null","null","1","","","","","","","","","",""
"","","","","","choice_trial","survey-html-form","143","1899326","0.0-5.0-1.29","177","1","2025-04-14 14:31:19","bb671e3ae32f654b8954ea4c4635f915","","Mozilla/5.0 (Windows NT 10.0; WOW64) AppleWebKit/537.36 (KHTML, like Gecko) Chrome/131.0.0.0 Safari/537.36","WebKit","Chrome","131.0.0.0","Windows","10.0","https://hz8g1ckzuq.cognition.run/","en,en-US;q=0.9","dkvdmjk5gepdn3e","39","[""White""]","No","Female","2098592.1999999993","4722","","","{""product_choice"":""A""}","choice","tdc","repulsion_2","2","microwave ovens","null","null","null","null","null","null","1","30","40","20","100","90","100","Warranty","Cooking power","",""
"","","","","","choice_trial_setup","html-keyboard-response","144","1899631","0.0-5.0-0.30","177","1","2025-04-14 14:31:19","bb671e3ae32f654b8954ea4c4635f915","","Mozilla/5.0 (Windows NT 10.0; WOW64) AppleWebKit/537.36 (KHTML, like Gecko) Chrome/131.0.0.0 Safari/537.36","WebKit","Chrome","131.0.0.0","Windows","10.0","https://hz8g1ckzuq.cognition.run/","en,en-US;q=0.9","dkvdmjk5gepdn3e","39","[""White""]","No","Female","2098592.1999999993","null","","<p></p>","null","choice","tcd","attraction_1","2","laptops","null","null","null","null","null","null","1","","","","","","","","","",""
"","","","","","choice_trial","survey-html-form","145","1911150","0.0-5.0-1.30","177","1","2025-04-14 14:31:19","bb671e3ae32f654b8954ea4c4635f915","","Mozilla/5.0 (Windows NT 10.0; WOW64) AppleWebKit/537.36 (KHTML, like Gecko) Chrome/131.0.0.0 Safari/537.36","WebKit","Chrome","131.0.0.0","Windows","10.0","https://hz8g1ckzuq.cognition.run/","en,en-US;q=0.9","dkvdmjk5gepdn3e","39","[""White""]","No","Female","2098592.1999999993","11515","","","{""product_choice"":""A""}","choice","tcd","attraction_1","2","laptops","null","null","null","null","null","null","1","50","60","45","60","50","60","Processing speed","Memory (RAM)","",""
"","","","","","choice_trial_setup","html-keyboard-response","146","1911460","0.0-5.0-0.31","177","1","2025-04-14 14:31:19","bb671e3ae32f654b8954ea4c4635f915","","Mozilla/5.0 (Windows NT 10.0; WOW64) AppleWebKit/537.36 (KHTML, like Gecko) Chrome/131.0.0.0 Safari/537.36","WebKit","Chrome","131.0.0.0","Windows","10.0","https://hz8g1ckzuq.cognition.run/","en,en-US;q=0.9","dkvdmjk5gepdn3e","39","[""White""]","No","Female","2098592.1999999993","null","","<p></p>","null","choice","dtc","repulsion_2","2","laptops","null","null","null","null","null","null","2","","","","","","","","","",""
"","","","","","choice_trial","survey-html-form","147","1916126","0.0-5.0-1.31","177","1","2025-04-14 14:31:19","bb671e3ae32f654b8954ea4c4635f915","","Mozilla/5.0 (Windows NT 10.0; WOW64) AppleWebKit/537.36 (KHTML, like Gecko) Chrome/131.0.0.0 Safari/537.36","WebKit","Chrome","131.0.0.0","Windows","10.0","https://hz8g1ckzuq.cognition.run/","en,en-US;q=0.9","dkvdmjk5gepdn3e","39","[""White""]","No","Female","2098592.1999999993","4660","","","{""product_choice"":""B""}","choice","dtc","repulsion_2","2","laptops","null","null","null","null","null","null","2","30","40","20","100","90","100","Processing speed","Memory (RAM)","",""
"","","","","","choice_trial_setup","html-keyboard-response","148","1916432","0.0-5.0-0.32","177","1","2025-04-14 14:31:19","bb671e3ae32f654b8954ea4c4635f915","","Mozilla/5.0 (Windows NT 10.0; WOW64) AppleWebKit/537.36 (KHTML, like Gecko) Chrome/131.0.0.0 Safari/537.36","WebKit","Chrome","131.0.0.0","Windows","10.0","https://hz8g1ckzuq.cognition.run/","en,en-US;q=0.9","dkvdmjk5gepdn3e","39","[""White""]","No","Female","2098592.1999999993","null","","<p></p>","null","choice","cdt","attraction_2","2","laptops","null","null","null","null","null","null","1","","","","","","","","","",""
"","","","","","choice_trial","survey-html-form","149","1924279","0.0-5.0-1.32","177","1","2025-04-14 14:31:19","bb671e3ae32f654b8954ea4c4635f915","","Mozilla/5.0 (Windows NT 10.0; WOW64) AppleWebKit/537.36 (KHTML, like Gecko) Chrome/131.0.0.0 Safari/537.36","WebKit","Chrome","131.0.0.0","Windows","10.0","https://hz8g1ckzuq.cognition.run/","en,en-US;q=0.9","dkvdmjk5gepdn3e","39","[""White""]","No","Female","2098592.1999999993","7836","","","{""product_choice"":""C""}","choice","cdt","attraction_2","2","laptops","null","null","null","null","null","null","1","50","60","40","60","50","60","Processing speed","Memory (RAM)","",""
"","","","","","choice_trial_setup","html-keyboard-response","150","1924583","0.0-5.0-0.33","177","1","2025-04-14 14:31:19","bb671e3ae32f654b8954ea4c4635f915","","Mozilla/5.0 (Windows NT 10.0; WOW64) AppleWebKit/537.36 (KHTML, like Gecko) Chrome/131.0.0.0 Safari/537.36","WebKit","Chrome","131.0.0.0","Windows","10.0","https://hz8g1ckzuq.cognition.run/","en,en-US;q=0.9","dkvdmjk5gepdn3e","39","[""White""]","No","Female","2098592.1999999993","null","","<p></p>","null","choice","cdt","repulsion_1","2","microwave ovens","null","null","null","null","null","null","2","","","","","","","","","",""
"","","","","","choice_trial","survey-html-form","151","1928734","0.0-5.0-1.33","177","1","2025-04-14 14:31:19","bb671e3ae32f654b8954ea4c4635f915","","Mozilla/5.0 (Windows NT 10.0; WOW64) AppleWebKit/537.36 (KHTML, like Gecko) Chrome/131.0.0.0 Safari/537.36","WebKit","Chrome","131.0.0.0","Windows","10.0","https://hz8g1ckzuq.cognition.run/","en,en-US;q=0.9","dkvdmjk5gepdn3e","39","[""White""]","No","Female","2098592.1999999993","4146","","","{""product_choice"":""C""}","choice","cdt","repulsion_1","2","microwave ovens","null","null","null","null","null","null","2","30","40","25","100","90","100","Warranty","Cooking power","",""
"","","","","","choice_trial_setup","html-keyboard-response","152","1929040","0.0-5.0-0.34","177","1","2025-04-14 14:31:19","bb671e3ae32f654b8954ea4c4635f915","","Mozilla/5.0 (Windows NT 10.0; WOW64) AppleWebKit/537.36 (KHTML, like Gecko) Chrome/131.0.0.0 Safari/537.36","WebKit","Chrome","131.0.0.0","Windows","10.0","https://hz8g1ckzuq.cognition.run/","en,en-US;q=0.9","dkvdmjk5gepdn3e","39","[""White""]","No","Female","2098592.1999999993","null","","<p></p>","null","choice","cdt","repulsion_2","1","washing machines","null","null","null","null","null","null","1","","","","","","","","","",""
"","","","","","choice_trial","survey-html-form","153","1933102","0.0-5.0-1.34","177","1","2025-04-14 14:31:19","bb671e3ae32f654b8954ea4c4635f915","","Mozilla/5.0 (Windows NT 10.0; WOW64) AppleWebKit/537.36 (KHTML, like Gecko) Chrome/131.0.0.0 Safari/537.36","WebKit","Chrome","131.0.0.0","Windows","10.0","https://hz8g1ckzuq.cognition.run/","en,en-US;q=0.9","dkvdmjk5gepdn3e","39","[""White""]","No","Female","2098592.1999999993","4058","","","{""product_choice"":""C""}","choice","cdt","repulsion_2","1","washing machines","null","null","null","null","null","null","1","100","90","100","30","40","20","Average lifespan","Energy savings","",""
"","","","","","choice_trial_setup","html-keyboard-response","154","1933411","0.0-5.0-0.35","177","1","2025-04-14 14:31:19","bb671e3ae32f654b8954ea4c4635f915","","Mozilla/5.0 (Windows NT 10.0; WOW64) AppleWebKit/537.36 (KHTML, like Gecko) Chrome/131.0.0.0 Safari/537.36","WebKit","Chrome","131.0.0.0","Windows","10.0","https://hz8g1ckzuq.cognition.run/","en,en-US;q=0.9","dkvdmjk5gepdn3e","39","[""White""]","No","Female","2098592.1999999993","null","","<p></p>","null","choice","dct","repulsion_2","1","televisions","null","null","null","null","null","null","1","","","","","","","","","",""
"","","","","","choice_trial","survey-html-form","155","1940071","0.0-5.0-1.35","177","1","2025-04-14 14:31:19","bb671e3ae32f654b8954ea4c4635f915","","Mozilla/5.0 (Windows NT 10.0; WOW64) AppleWebKit/537.36 (KHTML, like Gecko) Chrome/131.0.0.0 Safari/537.36","WebKit","Chrome","131.0.0.0","Windows","10.0","https://hz8g1ckzuq.cognition.run/","en,en-US;q=0.9","dkvdmjk5gepdn3e","39","[""White""]","No","Female","2098592.1999999993","6652","","","{""product_choice"":""C""}","choice","dct","repulsion_2","1","televisions","null","null","null","null","null","null","1","100","90","100","30","40","20","Screen size","Average lifespan","",""
"","","","","","choice_trial_setup","html-keyboard-response","156","1940381","0.0-5.0-0.36","177","1","2025-04-14 14:31:19","bb671e3ae32f654b8954ea4c4635f915","","Mozilla/5.0 (Windows NT 10.0; WOW64) AppleWebKit/537.36 (KHTML, like Gecko) Chrome/131.0.0.0 Safari/537.36","WebKit","Chrome","131.0.0.0","Windows","10.0","https://hz8g1ckzuq.cognition.run/","en,en-US;q=0.9","dkvdmjk5gepdn3e","39","[""White""]","No","Female","2098592.1999999993","null","","<p></p>","null","choice","cdt","attraction_1","2","televisions","null","null","null","null","null","null","2","","","","","","","","","",""
"","","","","","choice_trial","survey-html-form","157","1947070","0.0-5.0-1.36","177","1","2025-04-14 14:31:19","bb671e3ae32f654b8954ea4c4635f915","","Mozilla/5.0 (Windows NT 10.0; WOW64) AppleWebKit/537.36 (KHTML, like Gecko) Chrome/131.0.0.0 Safari/537.36","WebKit","Chrome","131.0.0.0","Windows","10.0","https://hz8g1ckzuq.cognition.run/","en,en-US;q=0.9","dkvdmjk5gepdn3e","39","[""White""]","No","Female","2098592.1999999993","6683","","","{""product_choice"":""C""}","choice","cdt","attraction_1","2","televisions","null","null","null","null","null","null","2","50","60","45","60","50","60","Screen size","Average lifespan","",""
"","","","","","choice_trial_setup","html-keyboard-response","158","1947376","0.0-5.0-0.37","177","1","2025-04-14 14:31:19","bb671e3ae32f654b8954ea4c4635f915","","Mozilla/5.0 (Windows NT 10.0; WOW64) AppleWebKit/537.36 (KHTML, like Gecko) Chrome/131.0.0.0 Safari/537.36","WebKit","Chrome","131.0.0.0","Windows","10.0","https://hz8g1ckzuq.cognition.run/","en,en-US;q=0.9","dkvdmjk5gepdn3e","39","[""White""]","No","Female","2098592.1999999993","null","","<p></p>","null","choice","ctd","repulsion_2","1","laptops","null","null","null","null","null","null","1","","","","","","","","","",""
