"success","timeout","failed_images","failed_audio","failed_video","screen_id","trial_type","trial_index","time_elapsed","internal_node_id","run_id","condition","recorded_at","source_code_version","ip","user_agent","device","browser","browser_version","platform","platform_version","referer","accept_language","ppt_id","age","race","ethnicity","gender","exp_duration","rt","view_history","stimulus","response","phase","order","effect","t_high","category","d1_best","d2_best","d1_worst1","d2_worst1","d1_worst2","d2_worst2","first_dim","d1_t","d1_c","d1_d","d2_t","d2_c","d2_d","d1_name","d2_name","strategy_response","question_order"
"true","false","[]","[]","[]","img preload","preload","0","153","0.0-0.0","178","1","2025-04-14 14:32:02","bb671e3ae32f654b8954ea4c4635f915","","Mozilla/5.0 (Windows NT 10.0; Win64; x64) AppleWebKit/537.36 (KHTML, like Gecko) Chrome/135.0.0.0 Safari/537.36","WebKit","Chrome","135.0.0.0","Windows","10.0","https://hz8g1ckzuq.cognition.run/","en-US,en;q=0.9","x933b51h6rpmzx4","29","[""White""]","No","Female","1154703.2000000477","","","","","","","","","","","","","","","","","","","","","","","","","",""
"true","","","","","","fullscreen","1","6628","0.0-1.0","178","1","2025-04-14 14:32:02","bb671e3ae32f654b8954ea4c4635f915","","Mozilla/5.0 (Windows NT 10.0; Win64; x64) AppleWebKit/537.36 (KHTML, like Gecko) Chrome/135.0.0.0 Safari/537.36","WebKit","Chrome","135.0.0.0","Windows","10.0","https://hz8g1ckzuq.cognition.run/","en-US,en;q=0.9","x933b51h6rpmzx4","29","[""White""]","No","Female","1154703.2000000477","5468","","","","","","","","","","","","","","","","","","","","","","","","",""
"","","","","","","instructions","2","60326","0.0-2.0","178","1","2025-04-14 14:32:02","bb671e3ae32f654b8954ea4c4635f915","","Mozilla/5.0 (Windows NT 10.0; Win64; x64) AppleWebKit/537.36 (KHTML, like Gecko) Chrome/135.0.0.0 Safari/537.36","WebKit","Chrome","135.0.0.0","Windows","10.0","https://hz8g1ckzuq.cognition.run/","en-US,en;q=0.9","x933b51h6rpmzx4","29","[""White""]","No","Female","1154703.2000000477","53696","[{""page_index"":0,""viewing_time"":1359},{""page_index"":1,""viewing_time"":3776},{""page_index"":2,""viewing_time"":3688},{""page_index"":3,""viewing_time"":3864},{""page_index"":4,""viewing_time"":5504},{""page_index"":5,""viewing_time"":4584},{""page_index"":6,""viewing_time"":5249},{""page_index"":7,""viewing_time"":20079},{""page_index"":8,""viewing_time"":2376},{""page_index"":9,""viewing_time"":3216}]","","","","","","","","","","","","","","","","","","","","","","","",""
"","","","","","rating_trial_setup","html-keyboard-response","3","60629","0.0-3.0-0.0","178","1","2025-04-14 14:32:02","bb671e3ae32f654b8954ea4c4635f915","","Mozilla/5.0 (Windows NT 10.0; Win64; x64) AppleWebKit/537.36 (KHTML, like Gecko) Chrome/135.0.0.0 Safari/537.36","WebKit","Chrome","135.0.0.0","Windows","10.0","https://hz8g1ckzuq.cognition.run/","en-US,en;q=0.9","x933b51h6rpmzx4","29","[""White""]","No","Female","1154703.2000000477","null","","<p></p>","null","rating","cdt","repulsion_1","1","laptops","null","null","null","null","null","null","2","","","","","","","","","",""
"","","","","","rating_trial","survey-html-form","4","120479","0.0-3.0-1.0","178","1","2025-04-14 14:32:02","bb671e3ae32f654b8954ea4c4635f915","","Mozilla/5.0 (Windows NT 10.0; Win64; x64) AppleWebKit/537.36 (KHTML, like Gecko) Chrome/135.0.0.0 Safari/537.36","WebKit","Chrome","135.0.0.0","Windows","10.0","https://hz8g1ckzuq.cognition.run/","en-US,en;q=0.9","x933b51h6rpmzx4","29","[""White""]","No","Female","1154703.2000000477","59844","","","{""price_1"":""840"",""price_2"":""640"",""price_3"":""725""}","rating","cdt","repulsion_1","1","laptops","null","null","null","null","null","null","2","100","90","100","30","40","25","Processing speed","Memory (RAM)","",""
"","","","","","rating_trial_setup","html-keyboard-response","5","120781","0.0-3.0-0.1","178","1","2025-04-14 14:32:02","bb671e3ae32f654b8954ea4c4635f915","","Mozilla/5.0 (Windows NT 10.0; Win64; x64) AppleWebKit/537.36 (KHTML, like Gecko) Chrome/135.0.0.0 Safari/537.36","WebKit","Chrome","135.0.0.0","Windows","10.0","https://hz8g1ckzuq.cognition.run/","en-US,en;q=0.9","x933b51h6rpmzx4","29","[""White""]","No","Female","1154703.2000000477","null","","<p></p>","null","rating","tcd","repulsion_2","1","microwave ovens","null","null","null","null","null","null","1","","","","","","","","","",""
"","","","","","rating_trial","survey-html-form","6","156663","0.0-3.0-1.1","178","1","2025-04-14 14:32:02","bb671e3ae32f654b8954ea4c4635f915","","Mozilla/5.0 (Windows NT 10.0; Win64; x64) AppleWebKit/537.36 (KHTML, like Gecko) Chrome/135.0.0.0 Safari/537.36","WebKit","Chrome","135.0.0.0","Windows","10.0","https://hz8g1ckzuq.cognition.run/","en-US,en;q=0.9","x933b51h6rpmzx4","29","[""White""]","No","Female","1154703.2000000477","35881","","","{""price_1"":""50"",""price_2"":""70"",""price_3"":""40""}","rating","tcd","repulsion_2","1","microwave ovens","null","null","null","null","null","null","1","100","90","100","30","40","20","Warranty","Cooking power","",""
"","","","","","rating_trial_setup","html-keyboard-response","7","156965","0.0-3.0-0.2","178","1","2025-04-14 14:32:02","bb671e3ae32f654b8954ea4c4635f915","","Mozilla/5.0 (Windows NT 10.0; Win64; x64) AppleWebKit/537.36 (KHTML, like Gecko) Chrome/135.0.0.0 Safari/537.36","WebKit","Chrome","135.0.0.0","Windows","10.0","https://hz8g1ckzuq.cognition.run/","en-US,en;q=0.9","x933b51h6rpmzx4","29","[""White""]","No","Female","1154703.2000000477","null","","<p></p>","null","rating","tcd","repulsion_1","1","washing machines","null","null","null","null","null","null","1","","","","","","","","","",""
"","","","","","rating_trial","survey-html-form","8","209295","0.0-3.0-1.2","178","1","2025-04-14 14:32:02","bb671e3ae32f654b8954ea4c4635f915","","Mozilla/5.0 (Windows NT 10.0; Win64; x64) AppleWebKit/537.36 (KHTML, like Gecko) Chrome/135.0.0.0 Safari/537.36","WebKit","Chrome","135.0.0.0","Windows","10.0","https://hz8g1ckzuq.cognition.run/","en-US,en;q=0.9","x933b51h6rpmzx4","29","[""White""]","No","Female","1154703.2000000477","52328","","","{""price_1"":""800"",""price_2"":""1000"",""price_3"":""800""}","rating","tcd","repulsion_1","1","washing machines","null","null","null","null","null","null","1","100","90","100","30","40","25","Average lifespan","Energy savings","",""
"","","","","","rating_trial_setup","html-keyboard-response","9","209596","0.0-3.0-0.3","178","1","2025-04-14 14:32:02","bb671e3ae32f654b8954ea4c4635f915","","Mozilla/5.0 (Windows NT 10.0; Win64; x64) AppleWebKit/537.36 (KHTML, like Gecko) Chrome/135.0.0.0 Safari/537.36","WebKit","Chrome","135.0.0.0","Windows","10.0","https://hz8g1ckzuq.cognition.run/","en-US,en;q=0.9","x933b51h6rpmzx4","29","[""White""]","No","Female","1154703.2000000477","null","","<p></p>","null","rating","wbw","catch","null","laptops","90","55","50","25","40","35","1","","","","","","","","","",""
"","","","","","rating_trial","survey-html-form","10","235614","0.0-3.0-1.3","178","1","2025-04-14 14:32:02","bb671e3ae32f654b8954ea4c4635f915","","Mozilla/5.0 (Windows NT 10.0; Win64; x64) AppleWebKit/537.36 (KHTML, like Gecko) Chrome/135.0.0.0 Safari/537.36","WebKit","Chrome","135.0.0.0","Windows","10.0","https://hz8g1ckzuq.cognition.run/","en-US,en;q=0.9","x933b51h6rpmzx4","29","[""White""]","No","Female","1154703.2000000477","26017","","","{""price_1"":""900"",""price_2"":""1200"",""price_3"":""800""}","rating","wbw","catch","null","laptops","90","55","50","25","40","35","1","null","null","null","null","null","null","Processing speed","Memory (RAM)","",""
"","","","","","rating_trial_setup","html-keyboard-response","11","235917","0.0-3.0-0.4","178","1","2025-04-14 14:32:02","bb671e3ae32f654b8954ea4c4635f915","","Mozilla/5.0 (Windows NT 10.0; Win64; x64) AppleWebKit/537.36 (KHTML, like Gecko) Chrome/135.0.0.0 Safari/537.36","WebKit","Chrome","135.0.0.0","Windows","10.0","https://hz8g1ckzuq.cognition.run/","en-US,en;q=0.9","x933b51h6rpmzx4","29","[""White""]","No","Female","1154703.2000000477","null","","<p></p>","null","rating","tdc","repulsion_1","2","televisions","null","null","null","null","null","null","2","","","","","","","","","",""
"","","","","","rating_trial","survey-html-form","12","255806","0.0-3.0-1.4","178","1","2025-04-14 14:32:02","bb671e3ae32f654b8954ea4c4635f915","","Mozilla/5.0 (Windows NT 10.0; Win64; x64) AppleWebKit/537.36 (KHTML, like Gecko) Chrome/135.0.0.0 Safari/537.36","WebKit","Chrome","135.0.0.0","Windows","10.0","https://hz8g1ckzuq.cognition.run/","en-US,en;q=0.9","x933b51h6rpmzx4","29","[""White""]","No","Female","1154703.2000000477","19889","","","{""price_1"":""500"",""price_2"":""300"",""price_3"":""600""}","rating","tdc","repulsion_1","2","televisions","null","null","null","null","null","null","2","30","40","25","100","90","100","Screen size","Average lifespan","",""
"","","","","","rating_trial_setup","html-keyboard-response","13","256108","0.0-3.0-0.5","178","1","2025-04-14 14:32:02","bb671e3ae32f654b8954ea4c4635f915","","Mozilla/5.0 (Windows NT 10.0; Win64; x64) AppleWebKit/537.36 (KHTML, like Gecko) Chrome/135.0.0.0 Safari/537.36","WebKit","Chrome","135.0.0.0","Windows","10.0","https://hz8g1ckzuq.cognition.run/","en-US,en;q=0.9","x933b51h6rpmzx4","29","[""White""]","No","Female","1154703.2000000477","null","","<p></p>","null","rating","cdt","repulsion_1","2","laptops","null","null","null","null","null","null","2","","","","","","","","","",""
"","","","","","rating_trial","survey-html-form","14","275663","0.0-3.0-1.5","178","1","2025-04-14 14:32:02","bb671e3ae32f654b8954ea4c4635f915","","Mozilla/5.0 (Windows NT 10.0; Win64; x64) AppleWebKit/537.36 (KHTML, like Gecko) Chrome/135.0.0.0 Safari/537.36","WebKit","Chrome","135.0.0.0","Windows","10.0","https://hz8g1ckzuq.cognition.run/","en-US,en;q=0.9","x933b51h6rpmzx4","29","[""White""]","No","Female","1154703.2000000477","19553","","","{""price_1"":""700"",""price_2"":""500"",""price_3"":""500""}","rating","cdt","repulsion_1","2","laptops","null","null","null","null","null","null","2","30","40","25","100","90","100","Processing speed","Memory (RAM)","",""
"","","","","","rating_trial_setup","html-keyboard-response","15","275965","0.0-3.0-0.6","178","1","2025-04-14 14:32:02","bb671e3ae32f654b8954ea4c4635f915","","Mozilla/5.0 (Windows NT 10.0; Win64; x64) AppleWebKit/537.36 (KHTML, like Gecko) Chrome/135.0.0.0 Safari/537.36","WebKit","Chrome","135.0.0.0","Windows","10.0","https://hz8g1ckzuq.cognition.run/","en-US,en;q=0.9","x933b51h6rpmzx4","29","[""White""]","No","Female","1154703.2000000477","null","","<p></p>","null","rating","ctd","attraction_1","2","laptops","null","null","null","null","null","null","2","","","","","","","","","",""
"","","","","","rating_trial","survey-html-form","16","300286","0.0-3.0-1.6","178","1","2025-04-14 14:32:02","bb671e3ae32f654b8954ea4c4635f915","","Mozilla/5.0 (Windows NT 10.0; Win64; x64) AppleWebKit/537.36 (KHTML, like Gecko) Chrome/135.0.0.0 Safari/537.36","WebKit","Chrome","135.0.0.0","Windows","10.0","https://hz8g1ckzuq.cognition.run/","en-US,en;q=0.9","x933b51h6rpmzx4","29","[""White""]","No","Female","1154703.2000000477","24318","","","{""price_1"":""600"",""price_2"":""700"",""price_3"":""700""}","rating","ctd","attraction_1","2","laptops","null","null","null","null","null","null","2","50","60","45","60","50","60","Processing speed","Memory (RAM)","",""
"","","","","","rating_trial_setup","html-keyboard-response","17","300589","0.0-3.0-0.7","178","1","2025-04-14 14:32:02","bb671e3ae32f654b8954ea4c4635f915","","Mozilla/5.0 (Windows NT 10.0; Win64; x64) AppleWebKit/537.36 (KHTML, like Gecko) Chrome/135.0.0.0 Safari/537.36","WebKit","Chrome","135.0.0.0","Windows","10.0","https://hz8g1ckzuq.cognition.run/","en-US,en;q=0.9","x933b51h6rpmzx4","29","[""White""]","No","Female","1154703.2000000477","null","","<p></p>","null","rating","tdc","repulsion_2","2","washing machines","null","null","null","null","null","null","2","","","","","","","","","",""
"","","","","","rating_trial","survey-html-form","18","327182","0.0-3.0-1.7","178","1","2025-04-14 14:32:02","bb671e3ae32f654b8954ea4c4635f915","","Mozilla/5.0 (Windows NT 10.0; Win64; x64) AppleWebKit/537.36 (KHTML, like Gecko) Chrome/135.0.0.0 Safari/537.36","WebKit","Chrome","135.0.0.0","Windows","10.0","https://hz8g1ckzuq.cognition.run/","en-US,en;q=0.9","x933b51h6rpmzx4","29","[""White""]","No","Female","1154703.2000000477","26592","","","{""price_1"":""700"",""price_2"":""600"",""price_3"":""800""}","rating","tdc","repulsion_2","2","washing machines","null","null","null","null","null","null","2","30","40","20","100","90","100","Average lifespan","Energy savings","",""
"","","","","","rating_trial_setup","html-keyboard-response","19","327484","0.0-3.0-0.8","178","1","2025-04-14 14:32:02","bb671e3ae32f654b8954ea4c4635f915","","Mozilla/5.0 (Windows NT 10.0; Win64; x64) AppleWebKit/537.36 (KHTML, like Gecko) Chrome/135.0.0.0 Safari/537.36","WebKit","Chrome","135.0.0.0","Windows","10.0","https://hz8g1ckzuq.cognition.run/","en-US,en;q=0.9","x933b51h6rpmzx4","29","[""White""]","No","Female","1154703.2000000477","null","","<p></p>","null","rating","ctd","attraction_1","2","washing machines","null","null","null","null","null","null","1","","","","","","","","","",""
"","","","","","rating_trial","survey-html-form","20","348086","0.0-3.0-1.8","178","1","2025-04-14 14:32:02","bb671e3ae32f654b8954ea4c4635f915","","Mozilla/5.0 (Windows NT 10.0; Win64; x64) AppleWebKit/537.36 (KHTML, like Gecko) Chrome/135.0.0.0 Safari/537.36","WebKit","Chrome","135.0.0.0","Windows","10.0","https://hz8g1ckzuq.cognition.run/","en-US,en;q=0.9","x933b51h6rpmzx4","29","[""White""]","No","Female","1154703.2000000477","20598","","","{""price_1"":""650"",""price_2"":""700"",""price_3"":""500""}","rating","ctd","attraction_1","2","washing machines","null","null","null","null","null","null","1","50","60","45","60","50","60","Average lifespan","Energy savings","",""
"","","","","","rating_trial_setup","html-keyboard-response","21","348388","0.0-3.0-0.9","178","1","2025-04-14 14:32:02","bb671e3ae32f654b8954ea4c4635f915","","Mozilla/5.0 (Windows NT 10.0; Win64; x64) AppleWebKit/537.36 (KHTML, like Gecko) Chrome/135.0.0.0 Safari/537.36","WebKit","Chrome","135.0.0.0","Windows","10.0","https://hz8g1ckzuq.cognition.run/","en-US,en;q=0.9","x933b51h6rpmzx4","29","[""White""]","No","Female","1154703.2000000477","null","","<p></p>","null","rating","cdt","attraction_2","1","laptops","null","null","null","null","null","null","2","","","","","","","","","",""
"","","","","","rating_trial","survey-html-form","22","377662","0.0-3.0-1.9","178","1","2025-04-14 14:32:02","bb671e3ae32f654b8954ea4c4635f915","","Mozilla/5.0 (Windows NT 10.0; Win64; x64) AppleWebKit/537.36 (KHTML, like Gecko) Chrome/135.0.0.0 Safari/537.36","WebKit","Chrome","135.0.0.0","Windows","10.0","https://hz8g1ckzuq.cognition.run/","en-US,en;q=0.9","x933b51h6rpmzx4","29","[""White""]","No","Female","1154703.2000000477","29271","","","{""price_1"":""700"",""price_2"":""550"",""price_3"":""650""}","rating","cdt","attraction_2","1","laptops","null","null","null","null","null","null","2","60","50","60","50","60","40","Processing speed","Memory (RAM)","",""
"","","","","","rating_trial_setup","html-keyboard-response","23","377964","0.0-3.0-0.10","178","1","2025-04-14 14:32:02","bb671e3ae32f654b8954ea4c4635f915","","Mozilla/5.0 (Windows NT 10.0; Win64; x64) AppleWebKit/537.36 (KHTML, like Gecko) Chrome/135.0.0.0 Safari/537.36","WebKit","Chrome","135.0.0.0","Windows","10.0","https://hz8g1ckzuq.cognition.run/","en-US,en;q=0.9","x933b51h6rpmzx4","29","[""White""]","No","Female","1154703.2000000477","null","","<p></p>","null","rating","wbw","catch","null","microwave ovens","80","65","50","30","25","25","1","","","","","","","","","",""
"","","","","","rating_trial","survey-html-form","24","404630","0.0-3.0-1.10","178","1","2025-04-14 14:32:02","bb671e3ae32f654b8954ea4c4635f915","","Mozilla/5.0 (Windows NT 10.0; Win64; x64) AppleWebKit/537.36 (KHTML, like Gecko) Chrome/135.0.0.0 Safari/537.36","WebKit","Chrome","135.0.0.0","Windows","10.0","https://hz8g1ckzuq.cognition.run/","en-US,en;q=0.9","x933b51h6rpmzx4","29","[""White""]","No","Female","1154703.2000000477","26664","","","{""price_1"":""80"",""price_2"":""100"",""price_3"":""40""}","rating","wbw","catch","null","microwave ovens","80","65","50","30","25","25","1","null","null","null","null","null","null","Warranty","Cooking power","",""
"","","","","","rating_trial_setup","html-keyboard-response","25","404933","0.0-3.0-0.11","178","1","2025-04-14 14:32:02","bb671e3ae32f654b8954ea4c4635f915","","Mozilla/5.0 (Windows NT 10.0; Win64; x64) AppleWebKit/537.36 (KHTML, like Gecko) Chrome/135.0.0.0 Safari/537.36","WebKit","Chrome","135.0.0.0","Windows","10.0","https://hz8g1ckzuq.cognition.run/","en-US,en;q=0.9","x933b51h6rpmzx4","29","[""White""]","No","Female","1154703.2000000477","null","","<p></p>","null","rating","wbw","catch","null","washing machines","65","65","45","35","15","40","2","","","","","","","","","",""
"","","","","","rating_trial","survey-html-form","26","433062","0.0-3.0-1.11","178","1","2025-04-14 14:32:02","bb671e3ae32f654b8954ea4c4635f915","","Mozilla/5.0 (Windows NT 10.0; Win64; x64) AppleWebKit/537.36 (KHTML, like Gecko) Chrome/135.0.0.0 Safari/537.36","WebKit","Chrome","135.0.0.0","Windows","10.0","https://hz8g1ckzuq.cognition.run/","en-US,en;q=0.9","x933b51h6rpmzx4","29","[""White""]","No","Female","1154703.2000000477","28125","","","{""price_1"":""500"",""price_2"":""800"",""price_3"":""400""}","rating","wbw","catch","null","washing machines","65","65","45","35","15","40","2","null","null","null","null","null","null","Average lifespan","Energy savings","",""
"","","","","","rating_trial_setup","html-keyboard-response","27","433364","0.0-3.0-0.12","178","1","2025-04-14 14:32:02","bb671e3ae32f654b8954ea4c4635f915","","Mozilla/5.0 (Windows NT 10.0; Win64; x64) AppleWebKit/537.36 (KHTML, like Gecko) Chrome/135.0.0.0 Safari/537.36","WebKit","Chrome","135.0.0.0","Windows","10.0","https://hz8g1ckzuq.cognition.run/","en-US,en;q=0.9","x933b51h6rpmzx4","29","[""White""]","No","Female","1154703.2000000477","null","","<p></p>","null","rating","tdc","repulsion_1","1","televisions","null","null","null","null","null","null","1","","","","","","","","","",""
"","","","","","rating_trial","survey-html-form","28","466670","0.0-3.0-1.12","178","1","2025-04-14 14:32:02","bb671e3ae32f654b8954ea4c4635f915","","Mozilla/5.0 (Windows NT 10.0; Win64; x64) AppleWebKit/537.36 (KHTML, like Gecko) Chrome/135.0.0.0 Safari/537.36","WebKit","Chrome","135.0.0.0","Windows","10.0","https://hz8g1ckzuq.cognition.run/","en-US,en;q=0.9","x933b51h6rpmzx4","29","[""White""]","No","Female","1154703.2000000477","33302","","","{""price_1"":""500"",""price_2"":""400"",""price_3"":""650""}","rating","tdc","repulsion_1","1","televisions","null","null","null","null","null","null","1","100","90","100","30","40","25","Screen size","Average lifespan","",""
"","","","","","rating_trial_setup","html-keyboard-response","29","466980","0.0-3.0-0.13","178","1","2025-04-14 14:32:02","bb671e3ae32f654b8954ea4c4635f915","","Mozilla/5.0 (Windows NT 10.0; Win64; x64) AppleWebKit/537.36 (KHTML, like Gecko) Chrome/135.0.0.0 Safari/537.36","WebKit","Chrome","135.0.0.0","Windows","10.0","https://hz8g1ckzuq.cognition.run/","en-US,en;q=0.9","x933b51h6rpmzx4","29","[""White""]","No","Female","1154703.2000000477","null","","<p></p>","null","rating","dtc","attraction_1","2","televisions","null","null","null","null","null","null","2","","","","","","","","","",""
"","","","","","rating_trial","survey-html-form","30","494062","0.0-3.0-1.13","178","1","2025-04-14 14:32:02","bb671e3ae32f654b8954ea4c4635f915","","Mozilla/5.0 (Windows NT 10.0; Win64; x64) AppleWebKit/537.36 (KHTML, like Gecko) Chrome/135.0.0.0 Safari/537.36","WebKit","Chrome","135.0.0.0","Windows","10.0","https://hz8g1ckzuq.cognition.run/","en-US,en;q=0.9","x933b51h6rpmzx4","29","[""White""]","No","Female","1154703.2000000477","27077","","","{""price_1"":""400"",""price_2"":""450"",""price_3"":""500""}","rating","dtc","attraction_1","2","televisions","null","null","null","null","null","null","2","50","60","45","60","50","60","Screen size","Average lifespan","",""
"","","","","","rating_trial_setup","html-keyboard-response","31","494364","0.0-3.0-0.14","178","1","2025-04-14 14:32:02","bb671e3ae32f654b8954ea4c4635f915","","Mozilla/5.0 (Windows NT 10.0; Win64; x64) AppleWebKit/537.36 (KHTML, like Gecko) Chrome/135.0.0.0 Safari/537.36","WebKit","Chrome","135.0.0.0","Windows","10.0","https://hz8g1ckzuq.cognition.run/","en-US,en;q=0.9","x933b51h6rpmzx4","29","[""White""]","No","Female","1154703.2000000477","null","","<p></p>","null","rating","cdt","repulsion_2","2","microwave ovens","null","null","null","null","null","null","2","","","","","","","","","",""
"","","","","","rating_trial","survey-html-form","32","510222","0.0-3.0-1.14","178","1","2025-04-14 14:32:02","bb671e3ae32f654b8954ea4c4635f915","","Mozilla/5.0 (Windows NT 10.0; Win64; x64) AppleWebKit/537.36 (KHTML, like Gecko) Chrome/135.0.0.0 Safari/537.36","WebKit","Chrome","135.0.0.0","Windows","10.0","https://hz8g1ckzuq.cognition.run/","en-US,en;q=0.9","x933b51h6rpmzx4","29","[""White""]","No","Female","1154703.2000000477","15853","","","{""price_1"":""125"",""price_2"":""100"",""price_3"":""100""}","rating","cdt","repulsion_2","2","microwave ovens","null","null","null","null","null","null","2","30","40","20","100","90","100","Warranty","Cooking power","",""
"","","","","","rating_trial_setup","html-keyboard-response","33","510525","0.0-3.0-0.15","178","1","2025-04-14 14:32:02","bb671e3ae32f654b8954ea4c4635f915","","Mozilla/5.0 (Windows NT 10.0; Win64; x64) AppleWebKit/537.36 (KHTML, like Gecko) Chrome/135.0.0.0 Safari/537.36","WebKit","Chrome","135.0.0.0","Windows","10.0","https://hz8g1ckzuq.cognition.run/","en-US,en;q=0.9","x933b51h6rpmzx4","29","[""White""]","No","Female","1154703.2000000477","null","","<p></p>","null","rating","dtc","attraction_1","2","microwave ovens","null","null","null","null","null","null","2","","","","","","","","","",""
"","","","","","rating_trial","survey-html-form","34","536582","0.0-3.0-1.15","178","1","2025-04-14 14:32:02","bb671e3ae32f654b8954ea4c4635f915","","Mozilla/5.0 (Windows NT 10.0; Win64; x64) AppleWebKit/537.36 (KHTML, like Gecko) Chrome/135.0.0.0 Safari/537.36","WebKit","Chrome","135.0.0.0","Windows","10.0","https://hz8g1ckzuq.cognition.run/","en-US,en;q=0.9","x933b51h6rpmzx4","29","[""White""]","No","Female","1154703.2000000477","26054","","","{""price_1"":""80"",""price_2"":""70"",""price_3"":""60""}","rating","dtc","attraction_1","2","microwave ovens","null","null","null","null","null","null","2","50","60","45","60","50","60","Warranty","Cooking power","",""
"","","","","","rating_trial_setup","html-keyboard-response","35","536884","0.0-3.0-0.16","178","1","2025-04-14 14:32:02","bb671e3ae32f654b8954ea4c4635f915","","Mozilla/5.0 (Windows NT 10.0; Win64; x64) AppleWebKit/537.36 (KHTML, like Gecko) Chrome/135.0.0.0 Safari/537.36","WebKit","Chrome","135.0.0.0","Windows","10.0","https://hz8g1ckzuq.cognition.run/","en-US,en;q=0.9","x933b51h6rpmzx4","29","[""White""]","No","Female","1154703.2000000477","null","","<p></p>","null","rating","dtc","attraction_1","1","microwave ovens","null","null","null","null","null","null","2","","","","","","","","","",""
"","","","","","rating_trial","survey-html-form","36","549910","0.0-3.0-1.16","178","1","2025-04-14 14:32:02","bb671e3ae32f654b8954ea4c4635f915","","Mozilla/5.0 (Windows NT 10.0; Win64; x64) AppleWebKit/537.36 (KHTML, like Gecko) Chrome/135.0.0.0 Safari/537.36","WebKit","Chrome","135.0.0.0","Windows","10.0","https://hz8g1ckzuq.cognition.run/","en-US,en;q=0.9","x933b51h6rpmzx4","29","[""White""]","No","Female","1154703.2000000477","13024","","","{""price_1"":""50"",""price_2"":""66"",""price_3"":""70""}","rating","dtc","attraction_1","1","microwave ovens","null","null","null","null","null","null","2","60","50","60","50","60","45","Warranty","Cooking power","",""
"","","","","","rating_trial_setup","html-keyboard-response","37","550212","0.0-3.0-0.17","178","1","2025-04-14 14:32:02","bb671e3ae32f654b8954ea4c4635f915","","Mozilla/5.0 (Windows NT 10.0; Win64; x64) AppleWebKit/537.36 (KHTML, like Gecko) Chrome/135.0.0.0 Safari/537.36","WebKit","Chrome","135.0.0.0","Windows","10.0","https://hz8g1ckzuq.cognition.run/","en-US,en;q=0.9","x933b51h6rpmzx4","29","[""White""]","No","Female","1154703.2000000477","null","","<p></p>","null","rating","ctd","attraction_2","2","televisions","null","null","null","null","null","null","2","","","","","","","","","",""
"","","","","","rating_trial","survey-html-form","38","564158","0.0-3.0-1.17","178","1","2025-04-14 14:32:02","bb671e3ae32f654b8954ea4c4635f915","","Mozilla/5.0 (Windows NT 10.0; Win64; x64) AppleWebKit/537.36 (KHTML, like Gecko) Chrome/135.0.0.0 Safari/537.36","WebKit","Chrome","135.0.0.0","Windows","10.0","https://hz8g1ckzuq.cognition.run/","en-US,en;q=0.9","x933b51h6rpmzx4","29","[""White""]","No","Female","1154703.2000000477","13945","","","{""price_1"":""500"",""price_2"":""400"",""price_3"":""670""}","rating","ctd","attraction_2","2","televisions","null","null","null","null","null","null","2","50","60","40","60","50","60","Screen size","Average lifespan","",""
"","","","","","rating_trial_setup","html-keyboard-response","39","564461","0.0-3.0-0.18","178","1","2025-04-14 14:32:02","bb671e3ae32f654b8954ea4c4635f915","","Mozilla/5.0 (Windows NT 10.0; Win64; x64) AppleWebKit/537.36 (KHTML, like Gecko) Chrome/135.0.0.0 Safari/537.36","WebKit","Chrome","135.0.0.0","Windows","10.0","https://hz8g1ckzuq.cognition.run/","en-US,en;q=0.9","x933b51h6rpmzx4","29","[""White""]","No","Female","1154703.2000000477","null","","<p></p>","null","rating","bww","catch","null","washing machines","70","80","50","25","45","20","1","","","","","","","","","",""
"","","","","","rating_trial","survey-html-form","40","575470","0.0-3.0-1.18","178","1","2025-04-14 14:32:02","bb671e3ae32f654b8954ea4c4635f915","","Mozilla/5.0 (Windows NT 10.0; Win64; x64) AppleWebKit/537.36 (KHTML, like Gecko) Chrome/135.0.0.0 Safari/537.36","WebKit","Chrome","135.0.0.0","Windows","10.0","https://hz8g1ckzuq.cognition.run/","en-US,en;q=0.9","x933b51h6rpmzx4","29","[""White""]","No","Female","1154703.2000000477","11008","","","{""price_1"":""700"",""price_2"":""500"",""price_3"":""400""}","rating","bww","catch","null","washing machines","70","80","50","25","45","20","1","null","null","null","null","null","null","Average lifespan","Energy savings","",""
"","","","","","rating_trial_setup","html-keyboard-response","41","575773","0.0-3.0-0.19","178","1","2025-04-14 14:32:02","bb671e3ae32f654b8954ea4c4635f915","","Mozilla/5.0 (Windows NT 10.0; Win64; x64) AppleWebKit/537.36 (KHTML, like Gecko) Chrome/135.0.0.0 Safari/537.36","WebKit","Chrome","135.0.0.0","Windows","10.0","https://hz8g1ckzuq.cognition.run/","en-US,en;q=0.9","x933b51h6rpmzx4","29","[""White""]","No","Female","1154703.2000000477","null","","<p></p>","null","rating","ctd","attraction_1","1","washing machines","null","null","null","null","null","null","2","","","","","","","","","",""
"","","","","","rating_trial","survey-html-form","42","594870","0.0-3.0-1.19","178","1","2025-04-14 14:32:02","bb671e3ae32f654b8954ea4c4635f915","","Mozilla/5.0 (Windows NT 10.0; Win64; x64) AppleWebKit/537.36 (KHTML, like Gecko) Chrome/135.0.0.0 Safari/537.36","WebKit","Chrome","135.0.0.0","Windows","10.0","https://hz8g1ckzuq.cognition.run/","en-US,en;q=0.9","x933b51h6rpmzx4","29","[""White""]","No","Female","1154703.2000000477","19096","","","{""price_1"":""600"",""price_2"":""700"",""price_3"":""640""}","rating","ctd","attraction_1","1","washing machines","null","null","null","null","null","null","2","60","50","60","50","60","45","Average lifespan","Energy savings","",""
"","","","","","rating_trial_setup","html-keyboard-response","43","595173","0.0-3.0-0.20","178","1","2025-04-14 14:32:02","bb671e3ae32f654b8954ea4c4635f915","","Mozilla/5.0 (Windows NT 10.0; Win64; x64) AppleWebKit/537.36 (KHTML, like Gecko) Chrome/135.0.0.0 Safari/537.36","WebKit","Chrome","135.0.0.0","Windows","10.0","https://hz8g1ckzuq.cognition.run/","en-US,en;q=0.9","x933b51h6rpmzx4","29","[""White""]","No","Female","1154703.2000000477","null","","<p></p>","null","rating","cdt","attraction_2","2","microwave ovens","null","null","null","null","null","null","1","","","","","","","","","",""
"","","","","","rating_trial","survey-html-form","44","615215","0.0-3.0-1.20","178","1","2025-04-14 14:32:02","bb671e3ae32f654b8954ea4c4635f915","","Mozilla/5.0 (Windows NT 10.0; Win64; x64) AppleWebKit/537.36 (KHTML, like Gecko) Chrome/135.0.0.0 Safari/537.36","WebKit","Chrome","135.0.0.0","Windows","10.0","https://hz8g1ckzuq.cognition.run/","en-US,en;q=0.9","x933b51h6rpmzx4","29","[""White""]","No","Female","1154703.2000000477","20036","","","{""price_1"":""75"",""price_2"":""80"",""price_3"":""77""}","rating","cdt","attraction_2","2","microwave ovens","null","null","null","null","null","null","1","50","60","40","60","50","60","Warranty","Cooking power","",""
"","","","","","rating_trial_setup","html-keyboard-response","45","615517","0.0-3.0-0.21","178","1","2025-04-14 14:32:02","bb671e3ae32f654b8954ea4c4635f915","","Mozilla/5.0 (Windows NT 10.0; Win64; x64) AppleWebKit/537.36 (KHTML, like Gecko) Chrome/135.0.0.0 Safari/537.36","WebKit","Chrome","135.0.0.0","Windows","10.0","https://hz8g1ckzuq.cognition.run/","en-US,en;q=0.9","x933b51h6rpmzx4","29","[""White""]","No","Female","1154703.2000000477","null","","<p></p>","null","rating","dtc","repulsion_2","1","washing machines","null","null","null","null","null","null","1","","","","","","","","","",""
"","","","","","rating_trial","survey-html-form","46","633646","0.0-3.0-1.21","178","1","2025-04-14 14:32:02","bb671e3ae32f654b8954ea4c4635f915","","Mozilla/5.0 (Windows NT 10.0; Win64; x64) AppleWebKit/537.36 (KHTML, like Gecko) Chrome/135.0.0.0 Safari/537.36","WebKit","Chrome","135.0.0.0","Windows","10.0","https://hz8g1ckzuq.cognition.run/","en-US,en;q=0.9","x933b51h6rpmzx4","29","[""White""]","No","Female","1154703.2000000477","18127","","","{""price_1"":""900"",""price_2"":""600"",""price_3"":""700""}","rating","dtc","repulsion_2","1","washing machines","null","null","null","null","null","null","1","100","90","100","30","40","20","Average lifespan","Energy savings","",""
"","","","","","rating_trial_setup","html-keyboard-response","47","633949","0.0-3.0-0.22","178","1","2025-04-14 14:32:02","bb671e3ae32f654b8954ea4c4635f915","","Mozilla/5.0 (Windows NT 10.0; Win64; x64) AppleWebKit/537.36 (KHTML, like Gecko) Chrome/135.0.0.0 Safari/537.36","WebKit","Chrome","135.0.0.0","Windows","10.0","https://hz8g1ckzuq.cognition.run/","en-US,en;q=0.9","x933b51h6rpmzx4","29","[""White""]","No","Female","1154703.2000000477","null","","<p></p>","null","rating","cdt","repulsion_2","1","televisions","null","null","null","null","null","null","1","","","","","","","","","",""
"","","","","","rating_trial","survey-html-form","48","664406","0.0-3.0-1.22","178","1","2025-04-14 14:32:02","bb671e3ae32f654b8954ea4c4635f915","","Mozilla/5.0 (Windows NT 10.0; Win64; x64) AppleWebKit/537.36 (KHTML, like Gecko) Chrome/135.0.0.0 Safari/537.36","WebKit","Chrome","135.0.0.0","Windows","10.0","https://hz8g1ckzuq.cognition.run/","en-US,en;q=0.9","x933b51h6rpmzx4","29","[""White""]","No","Female","1154703.2000000477","30452","","","{""price_1"":""700"",""price_2"":""600"",""price_3"":""650""}","rating","cdt","repulsion_2","1","televisions","null","null","null","null","null","null","1","100","90","100","30","40","20","Screen size","Average lifespan","",""
"","","","","","rating_trial_setup","html-keyboard-response","49","664708","0.0-3.0-0.23","178","1","2025-04-14 14:32:02","bb671e3ae32f654b8954ea4c4635f915","","Mozilla/5.0 (Windows NT 10.0; Win64; x64) AppleWebKit/537.36 (KHTML, like Gecko) Chrome/135.0.0.0 Safari/537.36","WebKit","Chrome","135.0.0.0","Windows","10.0","https://hz8g1ckzuq.cognition.run/","en-US,en;q=0.9","x933b51h6rpmzx4","29","[""White""]","No","Female","1154703.2000000477","null","","<p></p>","null","rating","dtc","attraction_2","2","laptops","null","null","null","null","null","null","2","","","","","","","","","",""
"","","","","","rating_trial","survey-html-form","50","678214","0.0-3.0-1.23","178","1","2025-04-14 14:32:02","bb671e3ae32f654b8954ea4c4635f915","","Mozilla/5.0 (Windows NT 10.0; Win64; x64) AppleWebKit/537.36 (KHTML, like Gecko) Chrome/135.0.0.0 Safari/537.36","WebKit","Chrome","135.0.0.0","Windows","10.0","https://hz8g1ckzuq.cognition.run/","en-US,en;q=0.9","x933b51h6rpmzx4","29","[""White""]","No","Female","1154703.2000000477","13501","","","{""price_1"":""500"",""price_2"":""550"",""price_3"":""600""}","rating","dtc","attraction_2","2","laptops","null","null","null","null","null","null","2","50","60","40","60","50","60","Processing speed","Memory (RAM)","",""
"","","","","","rating_trial_setup","html-keyboard-response","51","678517","0.0-3.0-0.24","178","1","2025-04-14 14:32:02","bb671e3ae32f654b8954ea4c4635f915","","Mozilla/5.0 (Windows NT 10.0; Win64; x64) AppleWebKit/537.36 (KHTML, like Gecko) Chrome/135.0.0.0 Safari/537.36","WebKit","Chrome","135.0.0.0","Windows","10.0","https://hz8g1ckzuq.cognition.run/","en-US,en;q=0.9","x933b51h6rpmzx4","29","[""White""]","No","Female","1154703.2000000477","null","","<p></p>","null","rating","dct","repulsion_2","2","laptops","null","null","null","null","null","null","1","","","","","","","","","",""
"","","","","","rating_trial","survey-html-form","52","695310","0.0-3.0-1.24","178","1","2025-04-14 14:32:02","bb671e3ae32f654b8954ea4c4635f915","","Mozilla/5.0 (Windows NT 10.0; Win64; x64) AppleWebKit/537.36 (KHTML, like Gecko) Chrome/135.0.0.0 Safari/537.36","WebKit","Chrome","135.0.0.0","Windows","10.0","https://hz8g1ckzuq.cognition.run/","en-US,en;q=0.9","x933b51h6rpmzx4","29","[""White""]","No","Female","1154703.2000000477","16787","","","{""price_1"":""1000"",""price_2"":""800"",""price_3"":""1100""}","rating","dct","repulsion_2","2","laptops","null","null","null","null","null","null","1","30","40","20","100","90","100","Processing speed","Memory (RAM)","",""
"","","","","","rating_trial_setup","html-keyboard-response","53","695613","0.0-3.0-0.25","178","1","2025-04-14 14:32:02","bb671e3ae32f654b8954ea4c4635f915","","Mozilla/5.0 (Windows NT 10.0; Win64; x64) AppleWebKit/537.36 (KHTML, like Gecko) Chrome/135.0.0.0 Safari/537.36","WebKit","Chrome","135.0.0.0","Windows","10.0","https://hz8g1ckzuq.cognition.run/","en-US,en;q=0.9","x933b51h6rpmzx4","29","[""White""]","No","Female","1154703.2000000477","null","","<p></p>","null","rating","bww","catch","null","televisions","55","65","15","45","5","20","1","","","","","","","","","",""
"","","","","","rating_trial","survey-html-form","54","710950","0.0-3.0-1.25","178","1","2025-04-14 14:32:02","bb671e3ae32f654b8954ea4c4635f915","","Mozilla/5.0 (Windows NT 10.0; Win64; x64) AppleWebKit/537.36 (KHTML, like Gecko) Chrome/135.0.0.0 Safari/537.36","WebKit","Chrome","135.0.0.0","Windows","10.0","https://hz8g1ckzuq.cognition.run/","en-US,en;q=0.9","x933b51h6rpmzx4","29","[""White""]","No","Female","1154703.2000000477","15332","","","{""price_1"":""500"",""price_2"":""240"",""price_3"":""170""}","rating","bww","catch","null","televisions","55","65","15","45","5","20","1","null","null","null","null","null","null","Screen size","Average lifespan","",""
"","","","","","rating_trial_setup","html-keyboard-response","55","711253","0.0-3.0-0.26","178","1","2025-04-14 14:32:02","bb671e3ae32f654b8954ea4c4635f915","","Mozilla/5.0 (Windows NT 10.0; Win64; x64) AppleWebKit/537.36 (KHTML, like Gecko) Chrome/135.0.0.0 Safari/537.36","WebKit","Chrome","135.0.0.0","Windows","10.0","https://hz8g1ckzuq.cognition.run/","en-US,en;q=0.9","x933b51h6rpmzx4","29","[""White""]","No","Female","1154703.2000000477","null","","<p></p>","null","rating","bww","catch","null","televisions","65","50","50","50","10","25","1","","","","","","","","","",""
"","","","","","rating_trial","survey-html-form","56","721246","0.0-3.0-1.26","178","1","2025-04-14 14:32:02","bb671e3ae32f654b8954ea4c4635f915","","Mozilla/5.0 (Windows NT 10.0; Win64; x64) AppleWebKit/537.36 (KHTML, like Gecko) Chrome/135.0.0.0 Safari/537.36","WebKit","Chrome","135.0.0.0","Windows","10.0","https://hz8g1ckzuq.cognition.run/","en-US,en;q=0.9","x933b51h6rpmzx4","29","[""White""]","No","Female","1154703.2000000477","9988","","","{""price_1"":""500"",""price_2"":""300"",""price_3"":""120""}","rating","bww","catch","null","televisions","65","50","50","50","10","25","1","null","null","null","null","null","null","Screen size","Average lifespan","",""
"","","","","","rating_trial_setup","html-keyboard-response","57","721549","0.0-3.0-0.27","178","1","2025-04-14 14:32:02","bb671e3ae32f654b8954ea4c4635f915","","Mozilla/5.0 (Windows NT 10.0; Win64; x64) AppleWebKit/537.36 (KHTML, like Gecko) Chrome/135.0.0.0 Safari/537.36","WebKit","Chrome","135.0.0.0","Windows","10.0","https://hz8g1ckzuq.cognition.run/","en-US,en;q=0.9","x933b51h6rpmzx4","29","[""White""]","No","Female","1154703.2000000477","null","","<p></p>","null","rating","wwb","catch","null","laptops","80","90","20","45","25","50","2","","","","","","","","","",""
"","","","","","rating_trial","survey-html-form","58","732870","0.0-3.0-1.27","178","1","2025-04-14 14:32:02","bb671e3ae32f654b8954ea4c4635f915","","Mozilla/5.0 (Windows NT 10.0; Win64; x64) AppleWebKit/537.36 (KHTML, like Gecko) Chrome/135.0.0.0 Safari/537.36","WebKit","Chrome","135.0.0.0","Windows","10.0","https://hz8g1ckzuq.cognition.run/","en-US,en;q=0.9","x933b51h6rpmzx4","29","[""White""]","No","Female","1154703.2000000477","11320","","","{""price_1"":""705"",""price_2"":""800"",""price_3"":""1500""}","rating","wwb","catch","null","laptops","80","90","20","45","25","50","2","null","null","null","null","null","null","Processing speed","Memory (RAM)","",""
"","","","","","rating_trial_setup","html-keyboard-response","59","733174","0.0-3.0-0.28","178","1","2025-04-14 14:32:02","bb671e3ae32f654b8954ea4c4635f915","","Mozilla/5.0 (Windows NT 10.0; Win64; x64) AppleWebKit/537.36 (KHTML, like Gecko) Chrome/135.0.0.0 Safari/537.36","WebKit","Chrome","135.0.0.0","Windows","10.0","https://hz8g1ckzuq.cognition.run/","en-US,en;q=0.9","x933b51h6rpmzx4","29","[""White""]","No","Female","1154703.2000000477","null","","<p></p>","null","rating","tdc","attraction_2","1","microwave ovens","null","null","null","null","null","null","1","","","","","","","","","",""
"","","","","","rating_trial","survey-html-form","60","741902","0.0-3.0-1.28","178","1","2025-04-14 14:32:02","bb671e3ae32f654b8954ea4c4635f915","","Mozilla/5.0 (Windows NT 10.0; Win64; x64) AppleWebKit/537.36 (KHTML, like Gecko) Chrome/135.0.0.0 Safari/537.36","WebKit","Chrome","135.0.0.0","Windows","10.0","https://hz8g1ckzuq.cognition.run/","en-US,en;q=0.9","x933b51h6rpmzx4","29","[""White""]","No","Female","1154703.2000000477","8726","","","{""price_1"":""50"",""price_2"":""77"",""price_3"":""90""}","rating","tdc","attraction_2","1","microwave ovens","null","null","null","null","null","null","1","60","50","60","50","60","40","Warranty","Cooking power","",""
"","","","","","rating_trial_setup","html-keyboard-response","61","742205","0.0-3.0-0.29","178","1","2025-04-14 14:32:02","bb671e3ae32f654b8954ea4c4635f915","","Mozilla/5.0 (Windows NT 10.0; Win64; x64) AppleWebKit/537.36 (KHTML, like Gecko) Chrome/135.0.0.0 Safari/537.36","WebKit","Chrome","135.0.0.0","Windows","10.0","https://hz8g1ckzuq.cognition.run/","en-US,en;q=0.9","x933b51h6rpmzx4","29","[""White""]","No","Female","1154703.2000000477","null","","<p></p>","null","rating","cdt","attraction_1","1","laptops","null","null","null","null","null","null","1","","","","","","","","","",""
"","","","","","rating_trial","survey-html-form","62","749958","0.0-3.0-1.29","178","1","2025-04-14 14:32:02","bb671e3ae32f654b8954ea4c4635f915","","Mozilla/5.0 (Windows NT 10.0; Win64; x64) AppleWebKit/537.36 (KHTML, like Gecko) Chrome/135.0.0.0 Safari/537.36","WebKit","Chrome","135.0.0.0","Windows","10.0","https://hz8g1ckzuq.cognition.run/","en-US,en;q=0.9","x933b51h6rpmzx4","29","[""White""]","No","Female","1154703.2000000477","7751","","","{""price_1"":""700"",""price_2"":""800"",""price_3"":""699""}","rating","cdt","attraction_1","1","laptops","null","null","null","null","null","null","1","60","50","60","50","60","45","Processing speed","Memory (RAM)","",""
"","","","","","rating_trial_setup","html-keyboard-response","63","750262","0.0-3.0-0.30","178","1","2025-04-14 14:32:02","bb671e3ae32f654b8954ea4c4635f915","","Mozilla/5.0 (Windows NT 10.0; Win64; x64) AppleWebKit/537.36 (KHTML, like Gecko) Chrome/135.0.0.0 Safari/537.36","WebKit","Chrome","135.0.0.0","Windows","10.0","https://hz8g1ckzuq.cognition.run/","en-US,en;q=0.9","x933b51h6rpmzx4","29","[""White""]","No","Female","1154703.2000000477","null","","<p></p>","null","rating","dtc","repulsion_1","2","washing machines","null","null","null","null","null","null","1","","","","","","","","","",""
"","","","","","rating_trial","survey-html-form","64","763862","0.0-3.0-1.30","178","1","2025-04-14 14:32:02","bb671e3ae32f654b8954ea4c4635f915","","Mozilla/5.0 (Windows NT 10.0; Win64; x64) AppleWebKit/537.36 (KHTML, like Gecko) Chrome/135.0.0.0 Safari/537.36","WebKit","Chrome","135.0.0.0","Windows","10.0","https://hz8g1ckzuq.cognition.run/","en-US,en;q=0.9","x933b51h6rpmzx4","29","[""White""]","No","Female","1154703.2000000477","13595","","","{""price_1"":""600"",""price_2"":""400"",""price_3"":""500""}","rating","dtc","repulsion_1","2","washing machines","null","null","null","null","null","null","1","30","40","25","100","90","100","Average lifespan","Energy savings","",""
"","","","","","rating_trial_setup","html-keyboard-response","65","764165","0.0-3.0-0.31","178","1","2025-04-14 14:32:02","bb671e3ae32f654b8954ea4c4635f915","","Mozilla/5.0 (Windows NT 10.0; Win64; x64) AppleWebKit/537.36 (KHTML, like Gecko) Chrome/135.0.0.0 Safari/537.36","WebKit","Chrome","135.0.0.0","Windows","10.0","https://hz8g1ckzuq.cognition.run/","en-US,en;q=0.9","x933b51h6rpmzx4","29","[""White""]","No","Female","1154703.2000000477","null","","<p></p>","null","rating","cdt","repulsion_1","1","microwave ovens","null","null","null","null","null","null","2","","","","","","","","","",""
"","","","","","rating_trial","survey-html-form","66","775678","0.0-3.0-1.31","178","1","2025-04-14 14:32:02","bb671e3ae32f654b8954ea4c4635f915","","Mozilla/5.0 (Windows NT 10.0; Win64; x64) AppleWebKit/537.36 (KHTML, like Gecko) Chrome/135.0.0.0 Safari/537.36","WebKit","Chrome","135.0.0.0","Windows","10.0","https://hz8g1ckzuq.cognition.run/","en-US,en;q=0.9","x933b51h6rpmzx4","29","[""White""]","No","Female","1154703.2000000477","11510","","","{""price_1"":""70"",""price_2"":""40"",""price_3"":""50""}","rating","cdt","repulsion_1","1","microwave ovens","null","null","null","null","null","null","2","100","90","100","30","40","25","Warranty","Cooking power","",""
"","","","","","rating_trial_setup","html-keyboard-response","67","775981","0.0-3.0-0.32","178","1","2025-04-14 14:32:02","bb671e3ae32f654b8954ea4c4635f915","","Mozilla/5.0 (Windows NT 10.0; Win64; x64) AppleWebKit/537.36 (KHTML, like Gecko) Chrome/135.0.0.0 Safari/537.36","WebKit","Chrome","135.0.0.0","Windows","10.0","https://hz8g1ckzuq.cognition.run/","en-US,en;q=0.9","x933b51h6rpmzx4","29","[""White""]","No","Female","1154703.2000000477","null","","<p></p>","null","rating","ctd","attraction_2","1","televisions","null","null","null","null","null","null","1","","","","","","","","","",""
"","","","","","rating_trial","survey-html-form","68","786647","0.0-3.0-1.32","178","1","2025-04-14 14:32:02","bb671e3ae32f654b8954ea4c4635f915","","Mozilla/5.0 (Windows NT 10.0; Win64; x64) AppleWebKit/537.36 (KHTML, like Gecko) Chrome/135.0.0.0 Safari/537.36","WebKit","Chrome","135.0.0.0","Windows","10.0","https://hz8g1ckzuq.cognition.run/","en-US,en;q=0.9","x933b51h6rpmzx4","29","[""White""]","No","Female","1154703.2000000477","10661","","","{""price_1"":""140"",""price_2"":""500"",""price_3"":""200""}","rating","ctd","attraction_2","1","televisions","null","null","null","null","null","null","1","60","50","60","50","60","40","Screen size","Average lifespan","",""
"","","","","","rating_trial_setup","html-keyboard-response","69","786949","0.0-3.0-0.33","178","1","2025-04-14 14:32:02","bb671e3ae32f654b8954ea4c4635f915","","Mozilla/5.0 (Windows NT 10.0; Win64; x64) AppleWebKit/537.36 (KHTML, like Gecko) Chrome/135.0.0.0 Safari/537.36","WebKit","Chrome","135.0.0.0","Windows","10.0","https://hz8g1ckzuq.cognition.run/","en-US,en;q=0.9","x933b51h6rpmzx4","29","[""White""]","No","Female","1154703.2000000477","null","","<p></p>","null","rating","cdt","attraction_2","1","washing machines","null","null","null","null","null","null","1","","","","","","","","","",""
"","","","","","rating_trial","survey-html-form","70","797286","0.0-3.0-1.33","178","1","2025-04-14 14:32:02","bb671e3ae32f654b8954ea4c4635f915","","Mozilla/5.0 (Windows NT 10.0; Win64; x64) AppleWebKit/537.36 (KHTML, like Gecko) Chrome/135.0.0.0 Safari/537.36","WebKit","Chrome","135.0.0.0","Windows","10.0","https://hz8g1ckzuq.cognition.run/","en-US,en;q=0.9","x933b51h6rpmzx4","29","[""White""]","No","Female","1154703.2000000477","10328","","","{""price_1"":""207"",""price_2"":""800"",""price_3"":""400""}","rating","cdt","attraction_2","1","washing machines","null","null","null","null","null","null","1","60","50","60","50","60","40","Average lifespan","Energy savings","",""
"","","","","","rating_trial_setup","html-keyboard-response","71","797589","0.0-3.0-0.34","178","1","2025-04-14 14:32:02","bb671e3ae32f654b8954ea4c4635f915","","Mozilla/5.0 (Windows NT 10.0; Win64; x64) AppleWebKit/537.36 (KHTML, like Gecko) Chrome/135.0.0.0 Safari/537.36","WebKit","Chrome","135.0.0.0","Windows","10.0","https://hz8g1ckzuq.cognition.run/","en-US,en;q=0.9","x933b51h6rpmzx4","29","[""White""]","No","Female","1154703.2000000477","null","","<p></p>","null","rating","wbw","catch","null","microwave ovens","80","60","40","50","20","20","1","","","","","","","","","",""
"","","","","","rating_trial","survey-html-form","72","808310","0.0-3.0-1.34","178","1","2025-04-14 14:32:02","bb671e3ae32f654b8954ea4c4635f915","","Mozilla/5.0 (Windows NT 10.0; Win64; x64) AppleWebKit/537.36 (KHTML, like Gecko) Chrome/135.0.0.0 Safari/537.36","WebKit","Chrome","135.0.0.0","Windows","10.0","https://hz8g1ckzuq.cognition.run/","en-US,en;q=0.9","x933b51h6rpmzx4","29","[""White""]","No","Female","1154703.2000000477","10719","","","{""price_1"":""40"",""price_2"":""50"",""price_3"":""10""}","rating","wbw","catch","null","microwave ovens","80","60","40","50","20","20","1","null","null","null","null","null","null","Warranty","Cooking power","",""
"","","","","","rating_trial_setup","html-keyboard-response","73","808613","0.0-3.0-0.35","178","1","2025-04-14 14:32:02","bb671e3ae32f654b8954ea4c4635f915","","Mozilla/5.0 (Windows NT 10.0; Win64; x64) AppleWebKit/537.36 (KHTML, like Gecko) Chrome/135.0.0.0 Safari/537.36","WebKit","Chrome","135.0.0.0","Windows","10.0","https://hz8g1ckzuq.cognition.run/","en-US,en;q=0.9","x933b51h6rpmzx4","29","[""White""]","No","Female","1154703.2000000477","null","","<p></p>","null","rating","tdc","attraction_1","1","televisions","null","null","null","null","null","null","1","","","","","","","","","",""
"","","","","","rating_trial","survey-html-form","74","825206","0.0-3.0-1.35","178","1","2025-04-14 14:32:02","bb671e3ae32f654b8954ea4c4635f915","","Mozilla/5.0 (Windows NT 10.0; Win64; x64) AppleWebKit/537.36 (KHTML, like Gecko) Chrome/135.0.0.0 Safari/537.36","WebKit","Chrome","135.0.0.0","Windows","10.0","https://hz8g1ckzuq.cognition.run/","en-US,en;q=0.9","x933b51h6rpmzx4","29","[""White""]","No","Female","1154703.2000000477","16591","","","{""price_1"":""500"",""price_2"":""300"",""price_3"":""400""}","rating","tdc","attraction_1","1","televisions","null","null","null","null","null","null","1","60","50","60","50","60","45","Screen size","Average lifespan","",""
"","","","","","rating_trial_setup","html-keyboard-response","75","825509","0.0-3.0-0.36","178","1","2025-04-14 14:32:02","bb671e3ae32f654b8954ea4c4635f915","","Mozilla/5.0 (Windows NT 10.0; Win64; x64) AppleWebKit/537.36 (KHTML, like Gecko) Chrome/135.0.0.0 Safari/537.36","WebKit","Chrome","135.0.0.0","Windows","10.0","https://hz8g1ckzuq.cognition.run/","en-US,en;q=0.9","x933b51h6rpmzx4","29","[""White""]","No","Female","1154703.2000000477","null","","<p></p>","null","rating","ctd","repulsion_2","2","televisions","null","null","null","null","null","null","2","","","","","","","","","",""
"","","","","","rating_trial","survey-html-form","76","848014","0.0-3.0-1.36","178","1","2025-04-14 14:32:02","bb671e3ae32f654b8954ea4c4635f915","","Mozilla/5.0 (Windows NT 10.0; Win64; x64) AppleWebKit/537.36 (KHTML, like Gecko) Chrome/135.0.0.0 Safari/537.36","WebKit","Chrome","135.0.0.0","Windows","10.0","https://hz8g1ckzuq.cognition.run/","en-US,en;q=0.9","x933b51h6rpmzx4","29","[""White""]","No","Female","1154703.2000000477","22502","","","{""price_1"":""400"",""price_2"":""200"",""price_3"":""179""}","rating","ctd","repulsion_2","2","televisions","null","null","null","null","null","null","2","30","40","20","100","90","100","Screen size","Average lifespan","",""
"","","","","","rating_trial_setup","html-keyboard-response","77","848318","0.0-3.0-0.37","178","1","2025-04-14 14:32:02","bb671e3ae32f654b8954ea4c4635f915","","Mozilla/5.0 (Windows NT 10.0; Win64; x64) AppleWebKit/537.36 (KHTML, like Gecko) Chrome/135.0.0.0 Safari/537.36","WebKit","Chrome","135.0.0.0","Windows","10.0","https://hz8g1ckzuq.cognition.run/","en-US,en;q=0.9","x933b51h6rpmzx4","29","[""White""]","No","Female","1154703.2000000477","null","","<p></p>","null","rating","tdc","repulsion_1","2","microwave ovens","null","null","null","null","null","null","2","","","","","","","","","",""
"","","","","","rating_trial","survey-html-form","78","859678","0.0-3.0-1.37","178","1","2025-04-14 14:32:02","bb671e3ae32f654b8954ea4c4635f915","","Mozilla/5.0 (Windows NT 10.0; Win64; x64) AppleWebKit/537.36 (KHTML, like Gecko) Chrome/135.0.0.0 Safari/537.36","WebKit","Chrome","135.0.0.0","Windows","10.0","https://hz8g1ckzuq.cognition.run/","en-US,en;q=0.9","x933b51h6rpmzx4","29","[""White""]","No","Female","1154703.2000000477","11353","","","{""price_1"":""90"",""price_2"":""90"",""price_3"":""80""}","rating","tdc","repulsion_1","2","microwave ovens","null","null","null","null","null","null","2","30","40","25","100","90","100","Warranty","Cooking power","",""
"","","","","","rating_trial_setup","html-keyboard-response","79","859981","0.0-3.0-0.38","178","1","2025-04-14 14:32:02","bb671e3ae32f654b8954ea4c4635f915","","Mozilla/5.0 (Windows NT 10.0; Win64; x64) AppleWebKit/537.36 (KHTML, like Gecko) Chrome/135.0.0.0 Safari/537.36","WebKit","Chrome","135.0.0.0","Windows","10.0","https://hz8g1ckzuq.cognition.run/","en-US,en;q=0.9","x933b51h6rpmzx4","29","[""White""]","No","Female","1154703.2000000477","null","","<p></p>","null","rating","ctd","repulsion_2","1","laptops","null","null","null","null","null","null","1","","","","","","","","","",""
"","","","","","rating_trial","survey-html-form","80","874398","0.0-3.0-1.38","178","1","2025-04-14 14:32:02","bb671e3ae32f654b8954ea4c4635f915","","Mozilla/5.0 (Windows NT 10.0; Win64; x64) AppleWebKit/537.36 (KHTML, like Gecko) Chrome/135.0.0.0 Safari/537.36","WebKit","Chrome","135.0.0.0","Windows","10.0","https://hz8g1ckzuq.cognition.run/","en-US,en;q=0.9","x933b51h6rpmzx4","29","[""White""]","No","Female","1154703.2000000477","14414","","","{""price_1"":""700"",""price_2"":""800"",""price_3"":""900""}","rating","ctd","repulsion_2","1","laptops","null","null","null","null","null","null","1","100","90","100","30","40","20","Processing speed","Memory (RAM)","",""
"","","","","","rating_trial_setup","html-keyboard-response","81","874701","0.0-3.0-0.39","178","1","2025-04-14 14:32:02","bb671e3ae32f654b8954ea4c4635f915","","Mozilla/5.0 (Windows NT 10.0; Win64; x64) AppleWebKit/537.36 (KHTML, like Gecko) Chrome/135.0.0.0 Safari/537.36","WebKit","Chrome","135.0.0.0","Windows","10.0","https://hz8g1ckzuq.cognition.run/","en-US,en;q=0.9","x933b51h6rpmzx4","29","[""White""]","No","Female","1154703.2000000477","null","","<p></p>","null","rating","dct","attraction_2","2","washing machines","null","null","null","null","null","null","2","","","","","","","","","",""
"","","","","","rating_trial","survey-html-form","82","884486","0.0-3.0-1.39","178","1","2025-04-14 14:32:02","bb671e3ae32f654b8954ea4c4635f915","","Mozilla/5.0 (Windows NT 10.0; Win64; x64) AppleWebKit/537.36 (KHTML, like Gecko) Chrome/135.0.0.0 Safari/537.36","WebKit","Chrome","135.0.0.0","Windows","10.0","https://hz8g1ckzuq.cognition.run/","en-US,en;q=0.9","x933b51h6rpmzx4","29","[""White""]","No","Female","1154703.2000000477","9782","","","{""price_1"":""500"",""price_2"":""400"",""price_3"":""300""}","rating","dct","attraction_2","2","washing machines","null","null","null","null","null","null","2","50","60","40","60","50","60","Average lifespan","Energy savings","",""
"","","","","","","instructions","83","914710","0.0-4.0","178","1","2025-04-14 14:32:02","bb671e3ae32f654b8954ea4c4635f915","","Mozilla/5.0 (Windows NT 10.0; Win64; x64) AppleWebKit/537.36 (KHTML, like Gecko) Chrome/135.0.0.0 Safari/537.36","WebKit","Chrome","135.0.0.0","Windows","10.0","https://hz8g1ckzuq.cognition.run/","en-US,en;q=0.9","x933b51h6rpmzx4","29","[""White""]","No","Female","1154703.2000000477","30222","[{""page_index"":0,""viewing_time"":1446},{""page_index"":1,""viewing_time"":1304},{""page_index"":2,""viewing_time"":2409},{""page_index"":3,""viewing_time"":2599},{""page_index"":4,""viewing_time"":5824},{""page_index"":5,""viewing_time"":3864},{""page_index"":6,""viewing_time"":7168},{""page_index"":7,""viewing_time"":5608}]","","","","","","","","","","","","","","","","","","","","","","","",""
"","","","","","choice_trial_setup","html-keyboard-response","84","915014","0.0-5.0-0.0","178","1","2025-04-14 14:32:02","bb671e3ae32f654b8954ea4c4635f915","","Mozilla/5.0 (Windows NT 10.0; Win64; x64) AppleWebKit/537.36 (KHTML, like Gecko) Chrome/135.0.0.0 Safari/537.36","WebKit","Chrome","135.0.0.0","Windows","10.0","https://hz8g1ckzuq.cognition.run/","en-US,en;q=0.9","x933b51h6rpmzx4","29","[""White""]","No","Female","1154703.2000000477","null","","<p></p>","null","choice","tcd","repulsion_1","2","washing machines","null","null","null","null","null","null","2","","","","","","","","","",""
"","","","","","choice_trial","survey-html-form","85","921118","0.0-5.0-1.0","178","1","2025-04-14 14:32:02","bb671e3ae32f654b8954ea4c4635f915","","Mozilla/5.0 (Windows NT 10.0; Win64; x64) AppleWebKit/537.36 (KHTML, like Gecko) Chrome/135.0.0.0 Safari/537.36","WebKit","Chrome","135.0.0.0","Windows","10.0","https://hz8g1ckzuq.cognition.run/","en-US,en;q=0.9","x933b51h6rpmzx4","29","[""White""]","No","Female","1154703.2000000477","6094","","","{""product_choice"":""B""}","choice","tcd","repulsion_1","2","washing machines","null","null","null","null","null","null","2","30","40","25","100","90","100","Average lifespan","Energy savings","",""
"","","","","","choice_trial_setup","html-keyboard-response","86","921421","0.0-5.0-0.1","178","1","2025-04-14 14:32:02","bb671e3ae32f654b8954ea4c4635f915","","Mozilla/5.0 (Windows NT 10.0; Win64; x64) AppleWebKit/537.36 (KHTML, like Gecko) Chrome/135.0.0.0 Safari/537.36","WebKit","Chrome","135.0.0.0","Windows","10.0","https://hz8g1ckzuq.cognition.run/","en-US,en;q=0.9","x933b51h6rpmzx4","29","[""White""]","No","Female","1154703.2000000477","null","","<p></p>","null","choice","tcd","attraction_1","1","laptops","null","null","null","null","null","null","2","","","","","","","","","",""
"","","","","","choice_trial","survey-html-form","87","927846","0.0-5.0-1.1","178","1","2025-04-14 14:32:02","bb671e3ae32f654b8954ea4c4635f915","","Mozilla/5.0 (Windows NT 10.0; Win64; x64) AppleWebKit/537.36 (KHTML, like Gecko) Chrome/135.0.0.0 Safari/537.36","WebKit","Chrome","135.0.0.0","Windows","10.0","https://hz8g1ckzuq.cognition.run/","en-US,en;q=0.9","x933b51h6rpmzx4","29","[""White""]","No","Female","1154703.2000000477","6419","","","{""product_choice"":""B""}","choice","tcd","attraction_1","1","laptops","null","null","null","null","null","null","2","60","50","60","50","60","45","Processing speed","Memory (RAM)","",""
"","","","","","choice_trial_setup","html-keyboard-response","88","928148","0.0-5.0-0.2","178","1","2025-04-14 14:32:02","bb671e3ae32f654b8954ea4c4635f915","","Mozilla/5.0 (Windows NT 10.0; Win64; x64) AppleWebKit/537.36 (KHTML, like Gecko) Chrome/135.0.0.0 Safari/537.36","WebKit","Chrome","135.0.0.0","Windows","10.0","https://hz8g1ckzuq.cognition.run/","en-US,en;q=0.9","x933b51h6rpmzx4","29","[""White""]","No","Female","1154703.2000000477","null","","<p></p>","null","choice","cdt","attraction_2","1","televisions","null","null","null","null","null","null","2","","","","","","","","","",""
"","","","","","choice_trial","survey-html-form","89","938054","0.0-5.0-1.2","178","1","2025-04-14 14:32:02","bb671e3ae32f654b8954ea4c4635f915","","Mozilla/5.0 (Windows NT 10.0; Win64; x64) AppleWebKit/537.36 (KHTML, like Gecko) Chrome/135.0.0.0 Safari/537.36","WebKit","Chrome","135.0.0.0","Windows","10.0","https://hz8g1ckzuq.cognition.run/","en-US,en;q=0.9","x933b51h6rpmzx4","29","[""White""]","No","Female","1154703.2000000477","9903","","","{""product_choice"":""C""}","choice","cdt","attraction_2","1","televisions","null","null","null","null","null","null","2","60","50","60","50","60","40","Screen size","Average lifespan","",""
"","","","","","choice_trial_setup","html-keyboard-response","90","938357","0.0-5.0-0.3","178","1","2025-04-14 14:32:02","bb671e3ae32f654b8954ea4c4635f915","","Mozilla/5.0 (Windows NT 10.0; Win64; x64) AppleWebKit/537.36 (KHTML, like Gecko) Chrome/135.0.0.0 Safari/537.36","WebKit","Chrome","135.0.0.0","Windows","10.0","https://hz8g1ckzuq.cognition.run/","en-US,en;q=0.9","x933b51h6rpmzx4","29","[""White""]","No","Female","1154703.2000000477","null","","<p></p>","null","choice","ctd","attraction_2","2","televisions","null","null","null","null","null","null","1","","","","","","","","","",""
"","","","","","choice_trial","survey-html-form","91","943518","0.0-5.0-1.3","178","1","2025-04-14 14:32:02","bb671e3ae32f654b8954ea4c4635f915","","Mozilla/5.0 (Windows NT 10.0; Win64; x64) AppleWebKit/537.36 (KHTML, like Gecko) Chrome/135.0.0.0 Safari/537.36","WebKit","Chrome","135.0.0.0","Windows","10.0","https://hz8g1ckzuq.cognition.run/","en-US,en;q=0.9","x933b51h6rpmzx4","29","[""White""]","No","Female","1154703.2000000477","5159","","","{""product_choice"":""A""}","choice","ctd","attraction_2","2","televisions","null","null","null","null","null","null","1","50","60","40","60","50","60","Screen size","Average lifespan","",""
"","","","","","choice_trial_setup","html-keyboard-response","92","943822","0.0-5.0-0.4","178","1","2025-04-14 14:32:02","bb671e3ae32f654b8954ea4c4635f915","","Mozilla/5.0 (Windows NT 10.0; Win64; x64) AppleWebKit/537.36 (KHTML, like Gecko) Chrome/135.0.0.0 Safari/537.36","WebKit","Chrome","135.0.0.0","Windows","10.0","https://hz8g1ckzuq.cognition.run/","en-US,en;q=0.9","x933b51h6rpmzx4","29","[""White""]","No","Female","1154703.2000000477","null","","<p></p>","null","choice","tcd","attraction_2","2","washing machines","null","null","null","null","null","null","2","","","","","","","","","",""
"","","","","","choice_trial","survey-html-form","93","950254","0.0-5.0-1.4","178","1","2025-04-14 14:32:02","bb671e3ae32f654b8954ea4c4635f915","","Mozilla/5.0 (Windows NT 10.0; Win64; x64) AppleWebKit/537.36 (KHTML, like Gecko) Chrome/135.0.0.0 Safari/537.36","WebKit","Chrome","135.0.0.0","Windows","10.0","https://hz8g1ckzuq.cognition.run/","en-US,en;q=0.9","x933b51h6rpmzx4","29","[""White""]","No","Female","1154703.2000000477","6426","","","{""product_choice"":""B""}","choice","tcd","attraction_2","2","washing machines","null","null","null","null","null","null","2","50","60","40","60","50","60","Average lifespan","Energy savings","",""
"","","","","","choice_trial_setup","html-keyboard-response","94","950558","0.0-5.0-0.5","178","1","2025-04-14 14:32:02","bb671e3ae32f654b8954ea4c4635f915","","Mozilla/5.0 (Windows NT 10.0; Win64; x64) AppleWebKit/537.36 (KHTML, like Gecko) Chrome/135.0.0.0 Safari/537.36","WebKit","Chrome","135.0.0.0","Windows","10.0","https://hz8g1ckzuq.cognition.run/","en-US,en;q=0.9","x933b51h6rpmzx4","29","[""White""]","No","Female","1154703.2000000477","null","","<p></p>","null","choice","dct","repulsion_1","2","laptops","null","null","null","null","null","null","2","","","","","","","","","",""
"","","","","","choice_trial","survey-html-form","95","955317","0.0-5.0-1.5","178","1","2025-04-14 14:32:02","bb671e3ae32f654b8954ea4c4635f915","","Mozilla/5.0 (Windows NT 10.0; Win64; x64) AppleWebKit/537.36 (KHTML, like Gecko) Chrome/135.0.0.0 Safari/537.36","WebKit","Chrome","135.0.0.0","Windows","10.0","https://hz8g1ckzuq.cognition.run/","en-US,en;q=0.9","x933b51h6rpmzx4","29","[""White""]","No","Female","1154703.2000000477","4754","","","{""product_choice"":""B""}","choice","dct","repulsion_1","2","laptops","null","null","null","null","null","null","2","30","40","25","100","90","100","Processing speed","Memory (RAM)","",""
"","","","","","choice_trial_setup","html-keyboard-response","96","955620","0.0-5.0-0.6","178","1","2025-04-14 14:32:02","bb671e3ae32f654b8954ea4c4635f915","","Mozilla/5.0 (Windows NT 10.0; Win64; x64) AppleWebKit/537.36 (KHTML, like Gecko) Chrome/135.0.0.0 Safari/537.36","WebKit","Chrome","135.0.0.0","Windows","10.0","https://hz8g1ckzuq.cognition.run/","en-US,en;q=0.9","x933b51h6rpmzx4","29","[""White""]","No","Female","1154703.2000000477","null","","<p></p>","null","choice","dct","repulsion_2","1","microwave ovens","null","null","null","null","null","null","1","","","","","","","","","",""
"","","","","","choice_trial","survey-html-form","97","963846","0.0-5.0-1.6","178","1","2025-04-14 14:32:02","bb671e3ae32f654b8954ea4c4635f915","","Mozilla/5.0 (Windows NT 10.0; Win64; x64) AppleWebKit/537.36 (KHTML, like Gecko) Chrome/135.0.0.0 Safari/537.36","WebKit","Chrome","135.0.0.0","Windows","10.0","https://hz8g1ckzuq.cognition.run/","en-US,en;q=0.9","x933b51h6rpmzx4","29","[""White""]","No","Female","1154703.2000000477","8223","","","{""product_choice"":""B""}","choice","dct","repulsion_2","1","microwave ovens","null","null","null","null","null","null","1","100","90","100","30","40","20","Warranty","Cooking power","",""
"","","","","","choice_trial_setup","html-keyboard-response","98","964149","0.0-5.0-0.7","178","1","2025-04-14 14:32:02","bb671e3ae32f654b8954ea4c4635f915","","Mozilla/5.0 (Windows NT 10.0; Win64; x64) AppleWebKit/537.36 (KHTML, like Gecko) Chrome/135.0.0.0 Safari/537.36","WebKit","Chrome","135.0.0.0","Windows","10.0","https://hz8g1ckzuq.cognition.run/","en-US,en;q=0.9","x933b51h6rpmzx4","29","[""White""]","No","Female","1154703.2000000477","null","","<p></p>","null","choice","tdc","repulsion_2","2","washing machines","null","null","null","null","null","null","1","","","","","","","","","",""
"","","","","","choice_trial","survey-html-form","99","966526","0.0-5.0-1.7","178","1","2025-04-14 14:32:02","bb671e3ae32f654b8954ea4c4635f915","","Mozilla/5.0 (Windows NT 10.0; Win64; x64) AppleWebKit/537.36 (KHTML, like Gecko) Chrome/135.0.0.0 Safari/537.36","WebKit","Chrome","135.0.0.0","Windows","10.0","https://hz8g1ckzuq.cognition.run/","en-US,en;q=0.9","x933b51h6rpmzx4","29","[""White""]","No","Female","1154703.2000000477","2372","","","{""product_choice"":""C""}","choice","tdc","repulsion_2","2","washing machines","null","null","null","null","null","null","1","30","40","20","100","90","100","Average lifespan","Energy savings","",""
"","","","","","choice_trial_setup","html-keyboard-response","100","966830","0.0-5.0-0.8","178","1","2025-04-14 14:32:02","bb671e3ae32f654b8954ea4c4635f915","","Mozilla/5.0 (Windows NT 10.0; Win64; x64) AppleWebKit/537.36 (KHTML, like Gecko) Chrome/135.0.0.0 Safari/537.36","WebKit","Chrome","135.0.0.0","Windows","10.0","https://hz8g1ckzuq.cognition.run/","en-US,en;q=0.9","x933b51h6rpmzx4","29","[""White""]","No","Female","1154703.2000000477","null","","<p></p>","null","choice","ctd","repulsion_2","1","washing machines","null","null","null","null","null","null","1","","","","","","","","","",""
"","","","","","choice_trial","survey-html-form","101","969030","0.0-5.0-1.8","178","1","2025-04-14 14:32:02","bb671e3ae32f654b8954ea4c4635f915","","Mozilla/5.0 (Windows NT 10.0; Win64; x64) AppleWebKit/537.36 (KHTML, like Gecko) Chrome/135.0.0.0 Safari/537.36","WebKit","Chrome","135.0.0.0","Windows","10.0","https://hz8g1ckzuq.cognition.run/","en-US,en;q=0.9","x933b51h6rpmzx4","29","[""White""]","No","Female","1154703.2000000477","2195","","","{""product_choice"":""A""}","choice","ctd","repulsion_2","1","washing machines","null","null","null","null","null","null","1","100","90","100","30","40","20","Average lifespan","Energy savings","",""
"","","","","","choice_trial_setup","html-keyboard-response","102","969335","0.0-5.0-0.9","178","1","2025-04-14 14:32:02","bb671e3ae32f654b8954ea4c4635f915","","Mozilla/5.0 (Windows NT 10.0; Win64; x64) AppleWebKit/537.36 (KHTML, like Gecko) Chrome/135.0.0.0 Safari/537.36","WebKit","Chrome","135.0.0.0","Windows","10.0","https://hz8g1ckzuq.cognition.run/","en-US,en;q=0.9","x933b51h6rpmzx4","29","[""White""]","No","Female","1154703.2000000477","null","","<p></p>","null","choice","dtc","repulsion_1","1","washing machines","null","null","null","null","null","null","2","","","","","","","","","",""
"","","","","","choice_trial","survey-html-form","103","971750","0.0-5.0-1.9","178","1","2025-04-14 14:32:02","bb671e3ae32f654b8954ea4c4635f915","","Mozilla/5.0 (Windows NT 10.0; Win64; x64) AppleWebKit/537.36 (KHTML, like Gecko) Chrome/135.0.0.0 Safari/537.36","WebKit","Chrome","135.0.0.0","Windows","10.0","https://hz8g1ckzuq.cognition.run/","en-US,en;q=0.9","x933b51h6rpmzx4","29","[""White""]","No","Female","1154703.2000000477","2413","","","{""product_choice"":""C""}","choice","dtc","repulsion_1","1","washing machines","null","null","null","null","null","null","2","100","90","100","30","40","25","Average lifespan","Energy savings","",""
"","","","","","choice_trial_setup","html-keyboard-response","104","972054","0.0-5.0-0.10","178","1","2025-04-14 14:32:02","bb671e3ae32f654b8954ea4c4635f915","","Mozilla/5.0 (Windows NT 10.0; Win64; x64) AppleWebKit/537.36 (KHTML, like Gecko) Chrome/135.0.0.0 Safari/537.36","WebKit","Chrome","135.0.0.0","Windows","10.0","https://hz8g1ckzuq.cognition.run/","en-US,en;q=0.9","x933b51h6rpmzx4","29","[""White""]","No","Female","1154703.2000000477","null","","<p></p>","null","choice","ctd","attraction_1","2","laptops","null","null","null","null","null","null","2","","","","","","","","","",""
"","","","","","choice_trial","survey-html-form","105","979734","0.0-5.0-1.10","178","1","2025-04-14 14:32:02","bb671e3ae32f654b8954ea4c4635f915","","Mozilla/5.0 (Windows NT 10.0; Win64; x64) AppleWebKit/537.36 (KHTML, like Gecko) Chrome/135.0.0.0 Safari/537.36","WebKit","Chrome","135.0.0.0","Windows","10.0","https://hz8g1ckzuq.cognition.run/","en-US,en;q=0.9","x933b51h6rpmzx4","29","[""White""]","No","Female","1154703.2000000477","7668","","","{""product_choice"":""B""}","choice","ctd","attraction_1","2","laptops","null","null","null","null","null","null","2","50","60","45","60","50","60","Processing speed","Memory (RAM)","",""
"","","","","","choice_trial_setup","html-keyboard-response","106","980038","0.0-5.0-0.11","178","1","2025-04-14 14:32:02","bb671e3ae32f654b8954ea4c4635f915","","Mozilla/5.0 (Windows NT 10.0; Win64; x64) AppleWebKit/537.36 (KHTML, like Gecko) Chrome/135.0.0.0 Safari/537.36","WebKit","Chrome","135.0.0.0","Windows","10.0","https://hz8g1ckzuq.cognition.run/","en-US,en;q=0.9","x933b51h6rpmzx4","29","[""White""]","No","Female","1154703.2000000477","null","","<p></p>","null","choice","ctd","attraction_2","2","microwave ovens","null","null","null","null","null","null","2","","","","","","","","","",""
"","","","","","choice_trial","survey-html-form","107","984286","0.0-5.0-1.11","178","1","2025-04-14 14:32:02","bb671e3ae32f654b8954ea4c4635f915","","Mozilla/5.0 (Windows NT 10.0; Win64; x64) AppleWebKit/537.36 (KHTML, like Gecko) Chrome/135.0.0.0 Safari/537.36","WebKit","Chrome","135.0.0.0","Windows","10.0","https://hz8g1ckzuq.cognition.run/","en-US,en;q=0.9","x933b51h6rpmzx4","29","[""White""]","No","Female","1154703.2000000477","4245","","","{""product_choice"":""B""}","choice","ctd","attraction_2","2","microwave ovens","null","null","null","null","null","null","2","50","60","40","60","50","60","Warranty","Cooking power","",""
"","","","","","choice_trial_setup","html-keyboard-response","108","984590","0.0-5.0-0.12","178","1","2025-04-14 14:32:02","bb671e3ae32f654b8954ea4c4635f915","","Mozilla/5.0 (Windows NT 10.0; Win64; x64) AppleWebKit/537.36 (KHTML, like Gecko) Chrome/135.0.0.0 Safari/537.36","WebKit","Chrome","135.0.0.0","Windows","10.0","https://hz8g1ckzuq.cognition.run/","en-US,en;q=0.9","x933b51h6rpmzx4","29","[""White""]","No","Female","1154703.2000000477","null","","<p></p>","null","choice","wwb","catch","null","washing machines","65","90","35","25","25","10","2","","","","","","","","","",""
"","","","","","choice_trial","survey-html-form","109","988879","0.0-5.0-1.12","178","1","2025-04-14 14:32:02","bb671e3ae32f654b8954ea4c4635f915","","Mozilla/5.0 (Windows NT 10.0; Win64; x64) AppleWebKit/537.36 (KHTML, like Gecko) Chrome/135.0.0.0 Safari/537.36","WebKit","Chrome","135.0.0.0","Windows","10.0","https://hz8g1ckzuq.cognition.run/","en-US,en;q=0.9","x933b51h6rpmzx4","29","[""White""]","No","Female","1154703.2000000477","4282","","","{""product_choice"":""C""}","choice","wwb","catch","null","washing machines","65","90","35","25","25","10","2","null","null","null","null","null","null","Average lifespan","Energy savings","",""
"","","","","","choice_trial_setup","html-keyboard-response","110","989182","0.0-5.0-0.13","178","1","2025-04-14 14:32:02","bb671e3ae32f654b8954ea4c4635f915","","Mozilla/5.0 (Windows NT 10.0; Win64; x64) AppleWebKit/537.36 (KHTML, like Gecko) Chrome/135.0.0.0 Safari/537.36","WebKit","Chrome","135.0.0.0","Windows","10.0","https://hz8g1ckzuq.cognition.run/","en-US,en;q=0.9","x933b51h6rpmzx4","29","[""White""]","No","Female","1154703.2000000477","null","","<p></p>","null","choice","wwb","catch","null","laptops","90","90","40","40","5","15","2","","","","","","","","","",""
"","","","","","choice_trial","survey-html-form","111","993030","0.0-5.0-1.13","178","1","2025-04-14 14:32:02","bb671e3ae32f654b8954ea4c4635f915","","Mozilla/5.0 (Windows NT 10.0; Win64; x64) AppleWebKit/537.36 (KHTML, like Gecko) Chrome/135.0.0.0 Safari/537.36","WebKit","Chrome","135.0.0.0","Windows","10.0","https://hz8g1ckzuq.cognition.run/","en-US,en;q=0.9","x933b51h6rpmzx4","29","[""White""]","No","Female","1154703.2000000477","3837","","","{""product_choice"":""C""}","choice","wwb","catch","null","laptops","90","90","40","40","5","15","2","null","null","null","null","null","null","Processing speed","Memory (RAM)","",""
"","","","","","choice_trial_setup","html-keyboard-response","112","993334","0.0-5.0-0.14","178","1","2025-04-14 14:32:02","bb671e3ae32f654b8954ea4c4635f915","","Mozilla/5.0 (Windows NT 10.0; Win64; x64) AppleWebKit/537.36 (KHTML, like Gecko) Chrome/135.0.0.0 Safari/537.36","WebKit","Chrome","135.0.0.0","Windows","10.0","https://hz8g1ckzuq.cognition.run/","en-US,en;q=0.9","x933b51h6rpmzx4","29","[""White""]","No","Female","1154703.2000000477","null","","<p></p>","null","choice","dct","repulsion_2","1","televisions","null","null","null","null","null","null","2","","","","","","","","","",""
"","","","","","choice_trial","survey-html-form","113","998062","0.0-5.0-1.14","178","1","2025-04-14 14:32:02","bb671e3ae32f654b8954ea4c4635f915","","Mozilla/5.0 (Windows NT 10.0; Win64; x64) AppleWebKit/537.36 (KHTML, like Gecko) Chrome/135.0.0.0 Safari/537.36","WebKit","Chrome","135.0.0.0","Windows","10.0","https://hz8g1ckzuq.cognition.run/","en-US,en;q=0.9","x933b51h6rpmzx4","29","[""White""]","No","Female","1154703.2000000477","4722","","","{""product_choice"":""C""}","choice","dct","repulsion_2","1","televisions","null","null","null","null","null","null","2","100","90","100","30","40","20","Screen size","Average lifespan","",""
"","","","","","choice_trial_setup","html-keyboard-response","114","998367","0.0-5.0-0.15","178","1","2025-04-14 14:32:02","bb671e3ae32f654b8954ea4c4635f915","","Mozilla/5.0 (Windows NT 10.0; Win64; x64) AppleWebKit/537.36 (KHTML, like Gecko) Chrome/135.0.0.0 Safari/537.36","WebKit","Chrome","135.0.0.0","Windows","10.0","https://hz8g1ckzuq.cognition.run/","en-US,en;q=0.9","x933b51h6rpmzx4","29","[""White""]","No","Female","1154703.2000000477","null","","<p></p>","null","choice","tcd","attraction_1","2","televisions","null","null","null","null","null","null","1","","","","","","","","","",""
"","","","","","choice_trial","survey-html-form","115","1005150","0.0-5.0-1.15","178","1","2025-04-14 14:32:02","bb671e3ae32f654b8954ea4c4635f915","","Mozilla/5.0 (Windows NT 10.0; Win64; x64) AppleWebKit/537.36 (KHTML, like Gecko) Chrome/135.0.0.0 Safari/537.36","WebKit","Chrome","135.0.0.0","Windows","10.0","https://hz8g1ckzuq.cognition.run/","en-US,en;q=0.9","x933b51h6rpmzx4","29","[""White""]","No","Female","1154703.2000000477","6774","","","{""product_choice"":""A""}","choice","tcd","attraction_1","2","televisions","null","null","null","null","null","null","1","50","60","45","60","50","60","Screen size","Average lifespan","",""
"","","","","","choice_trial_setup","html-keyboard-response","116","1005454","0.0-5.0-0.16","178","1","2025-04-14 14:32:02","bb671e3ae32f654b8954ea4c4635f915","","Mozilla/5.0 (Windows NT 10.0; Win64; x64) AppleWebKit/537.36 (KHTML, like Gecko) Chrome/135.0.0.0 Safari/537.36","WebKit","Chrome","135.0.0.0","Windows","10.0","https://hz8g1ckzuq.cognition.run/","en-US,en;q=0.9","x933b51h6rpmzx4","29","[""White""]","No","Female","1154703.2000000477","null","","<p></p>","null","choice","tcd","repulsion_1","1","laptops","null","null","null","null","null","null","1","","","","","","","","","",""
"","","","","","choice_trial","survey-html-form","117","1012630","0.0-5.0-1.16","178","1","2025-04-14 14:32:02","bb671e3ae32f654b8954ea4c4635f915","","Mozilla/5.0 (Windows NT 10.0; Win64; x64) AppleWebKit/537.36 (KHTML, like Gecko) Chrome/135.0.0.0 Safari/537.36","WebKit","Chrome","135.0.0.0","Windows","10.0","https://hz8g1ckzuq.cognition.run/","en-US,en;q=0.9","x933b51h6rpmzx4","29","[""White""]","No","Female","1154703.2000000477","7173","","","{""product_choice"":""B""}","choice","tcd","repulsion_1","1","laptops","null","null","null","null","null","null","1","100","90","100","30","40","25","Processing speed","Memory (RAM)","",""
"","","","","","choice_trial_setup","html-keyboard-response","118","1012934","0.0-5.0-0.17","178","1","2025-04-14 14:32:02","bb671e3ae32f654b8954ea4c4635f915","","Mozilla/5.0 (Windows NT 10.0; Win64; x64) AppleWebKit/537.36 (KHTML, like Gecko) Chrome/135.0.0.0 Safari/537.36","WebKit","Chrome","135.0.0.0","Windows","10.0","https://hz8g1ckzuq.cognition.run/","en-US,en;q=0.9","x933b51h6rpmzx4","29","[""White""]","No","Female","1154703.2000000477","null","","<p></p>","null","choice","tdc","attraction_1","1","washing machines","null","null","null","null","null","null","2","","","","","","","","","",""
"","","","","","choice_trial","survey-html-form","119","1023534","0.0-5.0-1.17","178","1","2025-04-14 14:32:02","bb671e3ae32f654b8954ea4c4635f915","","Mozilla/5.0 (Windows NT 10.0; Win64; x64) AppleWebKit/537.36 (KHTML, like Gecko) Chrome/135.0.0.0 Safari/537.36","WebKit","Chrome","135.0.0.0","Windows","10.0","https://hz8g1ckzuq.cognition.run/","en-US,en;q=0.9","x933b51h6rpmzx4","29","[""White""]","No","Female","1154703.2000000477","10597","","","{""product_choice"":""A""}","choice","tdc","attraction_1","1","washing machines","null","null","null","null","null","null","2","60","50","60","50","60","45","Average lifespan","Energy savings","",""
"","","","","","choice_trial_setup","html-keyboard-response","120","1023838","0.0-5.0-0.18","178","1","2025-04-14 14:32:02","bb671e3ae32f654b8954ea4c4635f915","","Mozilla/5.0 (Windows NT 10.0; Win64; x64) AppleWebKit/537.36 (KHTML, like Gecko) Chrome/135.0.0.0 Safari/537.36","WebKit","Chrome","135.0.0.0","Windows","10.0","https://hz8g1ckzuq.cognition.run/","en-US,en;q=0.9","x933b51h6rpmzx4","29","[""White""]","No","Female","1154703.2000000477","null","","<p></p>","null","choice","tcd","repulsion_2","2","televisions","null","null","null","null","null","null","1","","","","","","","","","",""
"","","","","","choice_trial","survey-html-form","121","1030558","0.0-5.0-1.18","178","1","2025-04-14 14:32:02","bb671e3ae32f654b8954ea4c4635f915","","Mozilla/5.0 (Windows NT 10.0; Win64; x64) AppleWebKit/537.36 (KHTML, like Gecko) Chrome/135.0.0.0 Safari/537.36","WebKit","Chrome","135.0.0.0","Windows","10.0","https://hz8g1ckzuq.cognition.run/","en-US,en;q=0.9","x933b51h6rpmzx4","29","[""White""]","No","Female","1154703.2000000477","6713","","","{""product_choice"":""B""}","choice","tcd","repulsion_2","2","televisions","null","null","null","null","null","null","1","30","40","20","100","90","100","Screen size","Average lifespan","",""
"","","","","","choice_trial_setup","html-keyboard-response","122","1030862","0.0-5.0-0.19","178","1","2025-04-14 14:32:02","bb671e3ae32f654b8954ea4c4635f915","","Mozilla/5.0 (Windows NT 10.0; Win64; x64) AppleWebKit/537.36 (KHTML, like Gecko) Chrome/135.0.0.0 Safari/537.36","WebKit","Chrome","135.0.0.0","Windows","10.0","https://hz8g1ckzuq.cognition.run/","en-US,en;q=0.9","x933b51h6rpmzx4","29","[""White""]","No","Female","1154703.2000000477","null","","<p></p>","null","choice","dtc","repulsion_2","1","laptops","null","null","null","null","null","null","1","","","","","","","","","",""
"","","","","","choice_trial","survey-html-form","123","1034030","0.0-5.0-1.19","178","1","2025-04-14 14:32:02","bb671e3ae32f654b8954ea4c4635f915","","Mozilla/5.0 (Windows NT 10.0; Win64; x64) AppleWebKit/537.36 (KHTML, like Gecko) Chrome/135.0.0.0 Safari/537.36","WebKit","Chrome","135.0.0.0","Windows","10.0","https://hz8g1ckzuq.cognition.run/","en-US,en;q=0.9","x933b51h6rpmzx4","29","[""White""]","No","Female","1154703.2000000477","3163","","","{""product_choice"":""C""}","choice","dtc","repulsion_2","1","laptops","null","null","null","null","null","null","1","100","90","100","30","40","20","Processing speed","Memory (RAM)","",""
"","","","","","choice_trial_setup","html-keyboard-response","124","1034335","0.0-5.0-0.20","178","1","2025-04-14 14:32:02","bb671e3ae32f654b8954ea4c4635f915","","Mozilla/5.0 (Windows NT 10.0; Win64; x64) AppleWebKit/537.36 (KHTML, like Gecko) Chrome/135.0.0.0 Safari/537.36","WebKit","Chrome","135.0.0.0","Windows","10.0","https://hz8g1ckzuq.cognition.run/","en-US,en;q=0.9","x933b51h6rpmzx4","29","[""White""]","No","Female","1154703.2000000477","null","","<p></p>","null","choice","ctd","repulsion_1","2","microwave ovens","null","null","null","null","null","null","2","","","","","","","","","",""
"","","","","","choice_trial","survey-html-form","125","1036582","0.0-5.0-1.20","178","1","2025-04-14 14:32:02","bb671e3ae32f654b8954ea4c4635f915","","Mozilla/5.0 (Windows NT 10.0; Win64; x64) AppleWebKit/537.36 (KHTML, like Gecko) Chrome/135.0.0.0 Safari/537.36","WebKit","Chrome","135.0.0.0","Windows","10.0","https://hz8g1ckzuq.cognition.run/","en-US,en;q=0.9","x933b51h6rpmzx4","29","[""White""]","No","Female","1154703.2000000477","2242","","","{""product_choice"":""A""}","choice","ctd","repulsion_1","2","microwave ovens","null","null","null","null","null","null","2","30","40","25","100","90","100","Warranty","Cooking power","",""
"","","","","","choice_trial_setup","html-keyboard-response","126","1036887","0.0-5.0-0.21","178","1","2025-04-14 14:32:02","bb671e3ae32f654b8954ea4c4635f915","","Mozilla/5.0 (Windows NT 10.0; Win64; x64) AppleWebKit/537.36 (KHTML, like Gecko) Chrome/135.0.0.0 Safari/537.36","WebKit","Chrome","135.0.0.0","Windows","10.0","https://hz8g1ckzuq.cognition.run/","en-US,en;q=0.9","x933b51h6rpmzx4","29","[""White""]","No","Female","1154703.2000000477","null","","<p></p>","null","choice","wwb","catch","null","televisions","90","80","40","50","20","40","1","","","","","","","","","",""
"","","","","","choice_trial","survey-html-form","127","1040166","0.0-5.0-1.21","178","1","2025-04-14 14:32:02","bb671e3ae32f654b8954ea4c4635f915","","Mozilla/5.0 (Windows NT 10.0; Win64; x64) AppleWebKit/537.36 (KHTML, like Gecko) Chrome/135.0.0.0 Safari/537.36","WebKit","Chrome","135.0.0.0","Windows","10.0","https://hz8g1ckzuq.cognition.run/","en-US,en;q=0.9","x933b51h6rpmzx4","29","[""White""]","No","Female","1154703.2000000477","3271","","","{""product_choice"":""C""}","choice","wwb","catch","null","televisions","90","80","40","50","20","40","1","null","null","null","null","null","null","Screen size","Average lifespan","",""
"","","","","","choice_trial_setup","html-keyboard-response","128","1040469","0.0-5.0-0.22","178","1","2025-04-14 14:32:02","bb671e3ae32f654b8954ea4c4635f915","","Mozilla/5.0 (Windows NT 10.0; Win64; x64) AppleWebKit/537.36 (KHTML, like Gecko) Chrome/135.0.0.0 Safari/537.36","WebKit","Chrome","135.0.0.0","Windows","10.0","https://hz8g1ckzuq.cognition.run/","en-US,en;q=0.9","x933b51h6rpmzx4","29","[""White""]","No","Female","1154703.2000000477","null","","<p></p>","null","choice","bww","catch","null","washing machines","85","80","50","5","50","40","1","","","","","","","","","",""
"","","","","","choice_trial","survey-html-form","129","1043766","0.0-5.0-1.22","178","1","2025-04-14 14:32:02","bb671e3ae32f654b8954ea4c4635f915","","Mozilla/5.0 (Windows NT 10.0; Win64; x64) AppleWebKit/537.36 (KHTML, like Gecko) Chrome/135.0.0.0 Safari/537.36","WebKit","Chrome","135.0.0.0","Windows","10.0","https://hz8g1ckzuq.cognition.run/","en-US,en;q=0.9","x933b51h6rpmzx4","29","[""White""]","No","Female","1154703.2000000477","3294","","","{""product_choice"":""A""}","choice","bww","catch","null","washing machines","85","80","50","5","50","40","1","null","null","null","null","null","null","Average lifespan","Energy savings","",""
"","","","","","choice_trial_setup","html-keyboard-response","130","1044069","0.0-5.0-0.23","178","1","2025-04-14 14:32:02","bb671e3ae32f654b8954ea4c4635f915","","Mozilla/5.0 (Windows NT 10.0; Win64; x64) AppleWebKit/537.36 (KHTML, like Gecko) Chrome/135.0.0.0 Safari/537.36","WebKit","Chrome","135.0.0.0","Windows","10.0","https://hz8g1ckzuq.cognition.run/","en-US,en;q=0.9","x933b51h6rpmzx4","29","[""White""]","No","Female","1154703.2000000477","null","","<p></p>","null","choice","bww","catch","null","microwave ovens","95","60","20","5","20","20","2","","","","","","","","","",""
"","","","","","choice_trial","survey-html-form","131","1046590","0.0-5.0-1.23","178","1","2025-04-14 14:32:02","bb671e3ae32f654b8954ea4c4635f915","","Mozilla/5.0 (Windows NT 10.0; Win64; x64) AppleWebKit/537.36 (KHTML, like Gecko) Chrome/135.0.0.0 Safari/537.36","WebKit","Chrome","135.0.0.0","Windows","10.0","https://hz8g1ckzuq.cognition.run/","en-US,en;q=0.9","x933b51h6rpmzx4","29","[""White""]","No","Female","1154703.2000000477","2515","","","{""product_choice"":""A""}","choice","bww","catch","null","microwave ovens","95","60","20","5","20","20","2","null","null","null","null","null","null","Warranty","Cooking power","",""
"","","","","","choice_trial_setup","html-keyboard-response","132","1046892","0.0-5.0-0.24","178","1","2025-04-14 14:32:02","bb671e3ae32f654b8954ea4c4635f915","","Mozilla/5.0 (Windows NT 10.0; Win64; x64) AppleWebKit/537.36 (KHTML, like Gecko) Chrome/135.0.0.0 Safari/537.36","WebKit","Chrome","135.0.0.0","Windows","10.0","https://hz8g1ckzuq.cognition.run/","en-US,en;q=0.9","x933b51h6rpmzx4","29","[""White""]","No","Female","1154703.2000000477","null","","<p></p>","null","choice","dct","repulsion_1","2","televisions","null","null","null","null","null","null","2","","","","","","","","","",""
"","","","","","choice_trial","survey-html-form","133","1052102","0.0-5.0-1.24","178","1","2025-04-14 14:32:02","bb671e3ae32f654b8954ea4c4635f915","","Mozilla/5.0 (Windows NT 10.0; Win64; x64) AppleWebKit/537.36 (KHTML, like Gecko) Chrome/135.0.0.0 Safari/537.36","WebKit","Chrome","135.0.0.0","Windows","10.0","https://hz8g1ckzuq.cognition.run/","en-US,en;q=0.9","x933b51h6rpmzx4","29","[""White""]","No","Female","1154703.2000000477","5203","","","{""product_choice"":""B""}","choice","dct","repulsion_1","2","televisions","null","null","null","null","null","null","2","30","40","25","100","90","100","Screen size","Average lifespan","",""
"","","","","","choice_trial_setup","html-keyboard-response","134","1052406","0.0-5.0-0.25","178","1","2025-04-14 14:32:02","bb671e3ae32f654b8954ea4c4635f915","","Mozilla/5.0 (Windows NT 10.0; Win64; x64) AppleWebKit/537.36 (KHTML, like Gecko) Chrome/135.0.0.0 Safari/537.36","WebKit","Chrome","135.0.0.0","Windows","10.0","https://hz8g1ckzuq.cognition.run/","en-US,en;q=0.9","x933b51h6rpmzx4","29","[""White""]","No","Female","1154703.2000000477","null","","<p></p>","null","choice","tcd","attraction_1","2","microwave ovens","null","null","null","null","null","null","2","","","","","","","","","",""
"","","","","","choice_trial","survey-html-form","135","1058702","0.0-5.0-1.25","178","1","2025-04-14 14:32:02","bb671e3ae32f654b8954ea4c4635f915","","Mozilla/5.0 (Windows NT 10.0; Win64; x64) AppleWebKit/537.36 (KHTML, like Gecko) Chrome/135.0.0.0 Safari/537.36","WebKit","Chrome","135.0.0.0","Windows","10.0","https://hz8g1ckzuq.cognition.run/","en-US,en;q=0.9","x933b51h6rpmzx4","29","[""White""]","No","Female","1154703.2000000477","6289","","","{""product_choice"":""A""}","choice","tcd","attraction_1","2","microwave ovens","null","null","null","null","null","null","2","50","60","45","60","50","60","Warranty","Cooking power","",""
"","","","","","choice_trial_setup","html-keyboard-response","136","1059007","0.0-5.0-0.26","178","1","2025-04-14 14:32:02","bb671e3ae32f654b8954ea4c4635f915","","Mozilla/5.0 (Windows NT 10.0; Win64; x64) AppleWebKit/537.36 (KHTML, like Gecko) Chrome/135.0.0.0 Safari/537.36","WebKit","Chrome","135.0.0.0","Windows","10.0","https://hz8g1ckzuq.cognition.run/","en-US,en;q=0.9","x933b51h6rpmzx4","29","[""White""]","No","Female","1154703.2000000477","null","","<p></p>","null","choice","tcd","attraction_1","1","televisions","null","null","null","null","null","null","1","","","","","","","","","",""
"","","","","","choice_trial","survey-html-form","137","1063366","0.0-5.0-1.26","178","1","2025-04-14 14:32:02","bb671e3ae32f654b8954ea4c4635f915","","Mozilla/5.0 (Windows NT 10.0; Win64; x64) AppleWebKit/537.36 (KHTML, like Gecko) Chrome/135.0.0.0 Safari/537.36","WebKit","Chrome","135.0.0.0","Windows","10.0","https://hz8g1ckzuq.cognition.run/","en-US,en;q=0.9","x933b51h6rpmzx4","29","[""White""]","No","Female","1154703.2000000477","4355","","","{""product_choice"":""A""}","choice","tcd","attraction_1","1","televisions","null","null","null","null","null","null","1","60","50","60","50","60","45","Screen size","Average lifespan","",""
"","","","","","choice_trial_setup","html-keyboard-response","138","1063671","0.0-5.0-0.27","178","1","2025-04-14 14:32:02","bb671e3ae32f654b8954ea4c4635f915","","Mozilla/5.0 (Windows NT 10.0; Win64; x64) AppleWebKit/537.36 (KHTML, like Gecko) Chrome/135.0.0.0 Safari/537.36","WebKit","Chrome","135.0.0.0","Windows","10.0","https://hz8g1ckzuq.cognition.run/","en-US,en;q=0.9","x933b51h6rpmzx4","29","[""White""]","No","Female","1154703.2000000477","null","","<p></p>","null","choice","ctd","attraction_2","1","microwave ovens","null","null","null","null","null","null","2","","","","","","","","","",""
"","","","","","choice_trial","survey-html-form","139","1067478","0.0-5.0-1.27","178","1","2025-04-14 14:32:02","bb671e3ae32f654b8954ea4c4635f915","","Mozilla/5.0 (Windows NT 10.0; Win64; x64) AppleWebKit/537.36 (KHTML, like Gecko) Chrome/135.0.0.0 Safari/537.36","WebKit","Chrome","135.0.0.0","Windows","10.0","https://hz8g1ckzuq.cognition.run/","en-US,en;q=0.9","x933b51h6rpmzx4","29","[""White""]","No","Female","1154703.2000000477","3799","","","{""product_choice"":""A""}","choice","ctd","attraction_2","1","microwave ovens","null","null","null","null","null","null","2","60","50","60","50","60","40","Warranty","Cooking power","",""
"","","","","","choice_trial_setup","html-keyboard-response","140","1067782","0.0-5.0-0.28","178","1","2025-04-14 14:32:02","bb671e3ae32f654b8954ea4c4635f915","","Mozilla/5.0 (Windows NT 10.0; Win64; x64) AppleWebKit/537.36 (KHTML, like Gecko) Chrome/135.0.0.0 Safari/537.36","WebKit","Chrome","135.0.0.0","Windows","10.0","https://hz8g1ckzuq.cognition.run/","en-US,en;q=0.9","x933b51h6rpmzx4","29","[""White""]","No","Female","1154703.2000000477","null","","<p></p>","null","choice","dtc","repulsion_2","2","microwave ovens","null","null","null","null","null","null","2","","","","","","","","","",""
"","","","","","choice_trial","survey-html-form","141","1071278","0.0-5.0-1.28","178","1","2025-04-14 14:32:02","bb671e3ae32f654b8954ea4c4635f915","","Mozilla/5.0 (Windows NT 10.0; Win64; x64) AppleWebKit/537.36 (KHTML, like Gecko) Chrome/135.0.0.0 Safari/537.36","WebKit","Chrome","135.0.0.0","Windows","10.0","https://hz8g1ckzuq.cognition.run/","en-US,en;q=0.9","x933b51h6rpmzx4","29","[""White""]","No","Female","1154703.2000000477","3491","","","{""product_choice"":""C""}","choice","dtc","repulsion_2","2","microwave ovens","null","null","null","null","null","null","2","30","40","20","100","90","100","Warranty","Cooking power","",""
"","","","","","choice_trial_setup","html-keyboard-response","142","1071583","0.0-5.0-0.29","178","1","2025-04-14 14:32:02","bb671e3ae32f654b8954ea4c4635f915","","Mozilla/5.0 (Windows NT 10.0; Win64; x64) AppleWebKit/537.36 (KHTML, like Gecko) Chrome/135.0.0.0 Safari/537.36","WebKit","Chrome","135.0.0.0","Windows","10.0","https://hz8g1ckzuq.cognition.run/","en-US,en;q=0.9","x933b51h6rpmzx4","29","[""White""]","No","Female","1154703.2000000477","null","","<p></p>","null","choice","tcd","attraction_2","1","laptops","null","null","null","null","null","null","2","","","","","","","","","",""
"","","","","","choice_trial","survey-html-form","143","1083550","0.0-5.0-1.29","178","1","2025-04-14 14:32:02","bb671e3ae32f654b8954ea4c4635f915","","Mozilla/5.0 (Windows NT 10.0; Win64; x64) AppleWebKit/537.36 (KHTML, like Gecko) Chrome/135.0.0.0 Safari/537.36","WebKit","Chrome","135.0.0.0","Windows","10.0","https://hz8g1ckzuq.cognition.run/","en-US,en;q=0.9","x933b51h6rpmzx4","29","[""White""]","No","Female","1154703.2000000477","11957","","","{""product_choice"":""A""}","choice","tcd","attraction_2","1","laptops","null","null","null","null","null","null","2","60","50","60","50","60","40","Processing speed","Memory (RAM)","",""
"","","","","","choice_trial_setup","html-keyboard-response","144","1083854","0.0-5.0-0.30","178","1","2025-04-14 14:32:02","bb671e3ae32f654b8954ea4c4635f915","","Mozilla/5.0 (Windows NT 10.0; Win64; x64) AppleWebKit/537.36 (KHTML, like Gecko) Chrome/135.0.0.0 Safari/537.36","WebKit","Chrome","135.0.0.0","Windows","10.0","https://hz8g1ckzuq.cognition.run/","en-US,en;q=0.9","x933b51h6rpmzx4","29","[""White""]","No","Female","1154703.2000000477","null","","<p></p>","null","choice","ctd","repulsion_1","1","microwave ovens","null","null","null","null","null","null","1","","","","","","","","","",""
"","","","","","choice_trial","survey-html-form","145","1087270","0.0-5.0-1.30","178","1","2025-04-14 14:32:02","bb671e3ae32f654b8954ea4c4635f915","","Mozilla/5.0 (Windows NT 10.0; Win64; x64) AppleWebKit/537.36 (KHTML, like Gecko) Chrome/135.0.0.0 Safari/537.36","WebKit","Chrome","135.0.0.0","Windows","10.0","https://hz8g1ckzuq.cognition.run/","en-US,en;q=0.9","x933b51h6rpmzx4","29","[""White""]","No","Female","1154703.2000000477","3410","","","{""product_choice"":""A""}","choice","ctd","repulsion_1","1","microwave ovens","null","null","null","null","null","null","1","100","90","100","30","40","25","Warranty","Cooking power","",""
"","","","","","choice_trial_setup","html-keyboard-response","146","1087574","0.0-5.0-0.31","178","1","2025-04-14 14:32:02","bb671e3ae32f654b8954ea4c4635f915","","Mozilla/5.0 (Windows NT 10.0; Win64; x64) AppleWebKit/537.36 (KHTML, like Gecko) Chrome/135.0.0.0 Safari/537.36","WebKit","Chrome","135.0.0.0","Windows","10.0","https://hz8g1ckzuq.cognition.run/","en-US,en;q=0.9","x933b51h6rpmzx4","29","[""White""]","No","Female","1154703.2000000477","null","","<p></p>","null","choice","bww","catch","null","televisions","85","70","35","10","35","45","2","","","","","","","","","",""
"","","","","","choice_trial","survey-html-form","147","1089710","0.0-5.0-1.31","178","1","2025-04-14 14:32:02","bb671e3ae32f654b8954ea4c4635f915","","Mozilla/5.0 (Windows NT 10.0; Win64; x64) AppleWebKit/537.36 (KHTML, like Gecko) Chrome/135.0.0.0 Safari/537.36","WebKit","Chrome","135.0.0.0","Windows","10.0","https://hz8g1ckzuq.cognition.run/","en-US,en;q=0.9","x933b51h6rpmzx4","29","[""White""]","No","Female","1154703.2000000477","2129","","","{""product_choice"":""A""}","choice","bww","catch","null","televisions","85","70","35","10","35","45","2","null","null","null","null","null","null","Screen size","Average lifespan","",""
"","","","","","choice_trial_setup","html-keyboard-response","148","1090014","0.0-5.0-0.32","178","1","2025-04-14 14:32:02","bb671e3ae32f654b8954ea4c4635f915","","Mozilla/5.0 (Windows NT 10.0; Win64; x64) AppleWebKit/537.36 (KHTML, like Gecko) Chrome/135.0.0.0 Safari/537.36","WebKit","Chrome","135.0.0.0","Windows","10.0","https://hz8g1ckzuq.cognition.run/","en-US,en;q=0.9","x933b51h6rpmzx4","29","[""White""]","No","Female","1154703.2000000477","null","","<p></p>","null","choice","ctd","repulsion_2","2","laptops","null","null","null","null","null","null","1","","","","","","","","","",""
"","","","","","choice_trial","survey-html-form","149","1094958","0.0-5.0-1.32","178","1","2025-04-14 14:32:02","bb671e3ae32f654b8954ea4c4635f915","","Mozilla/5.0 (Windows NT 10.0; Win64; x64) AppleWebKit/537.36 (KHTML, like Gecko) Chrome/135.0.0.0 Safari/537.36","WebKit","Chrome","135.0.0.0","Windows","10.0","https://hz8g1ckzuq.cognition.run/","en-US,en;q=0.9","x933b51h6rpmzx4","29","[""White""]","No","Female","1154703.2000000477","4941","","","{""product_choice"":""A""}","choice","ctd","repulsion_2","2","laptops","null","null","null","null","null","null","1","30","40","20","100","90","100","Processing speed","Memory (RAM)","",""
"","","","","","choice_trial_setup","html-keyboard-response","150","1095263","0.0-5.0-0.33","178","1","2025-04-14 14:32:02","bb671e3ae32f654b8954ea4c4635f915","","Mozilla/5.0 (Windows NT 10.0; Win64; x64) AppleWebKit/537.36 (KHTML, like Gecko) Chrome/135.0.0.0 Safari/537.36","WebKit","Chrome","135.0.0.0","Windows","10.0","https://hz8g1ckzuq.cognition.run/","en-US,en;q=0.9","x933b51h6rpmzx4","29","[""White""]","No","Female","1154703.2000000477","null","","<p></p>","null","choice","ctd","attraction_1","2","washing machines","null","null","null","null","null","null","1","","","","","","","","","",""
"","","","","","choice_trial","survey-html-form","151","1100894","0.0-5.0-1.33","178","1","2025-04-14 14:32:02","bb671e3ae32f654b8954ea4c4635f915","","Mozilla/5.0 (Windows NT 10.0; Win64; x64) AppleWebKit/537.36 (KHTML, like Gecko) Chrome/135.0.0.0 Safari/537.36","WebKit","Chrome","135.0.0.0","Windows","10.0","https://hz8g1ckzuq.cognition.run/","en-US,en;q=0.9","x933b51h6rpmzx4","29","[""White""]","No","Female","1154703.2000000477","5627","","","{""product_choice"":""A""}","choice","ctd","attraction_1","2","washing machines","null","null","null","null","null","null","1","50","60","45","60","50","60","Average lifespan","Energy savings","",""
"","","","","","choice_trial_setup","html-keyboard-response","152","1101198","0.0-5.0-0.34","178","1","2025-04-14 14:32:02","bb671e3ae32f654b8954ea4c4635f915","","Mozilla/5.0 (Windows NT 10.0; Win64; x64) AppleWebKit/537.36 (KHTML, like Gecko) Chrome/135.0.0.0 Safari/537.36","WebKit","Chrome","135.0.0.0","Windows","10.0","https://hz8g1ckzuq.cognition.run/","en-US,en;q=0.9","x933b51h6rpmzx4","29","[""White""]","No","Female","1154703.2000000477","null","","<p></p>","null","choice","tcd","repulsion_1","1","televisions","null","null","null","null","null","null","1","","","","","","","","","",""
"","","","","","choice_trial","survey-html-form","153","1103886","0.0-5.0-1.34","178","1","2025-04-14 14:32:02","bb671e3ae32f654b8954ea4c4635f915","","Mozilla/5.0 (Windows NT 10.0; Win64; x64) AppleWebKit/537.36 (KHTML, like Gecko) Chrome/135.0.0.0 Safari/537.36","WebKit","Chrome","135.0.0.0","Windows","10.0","https://hz8g1ckzuq.cognition.run/","en-US,en;q=0.9","x933b51h6rpmzx4","29","[""White""]","No","Female","1154703.2000000477","2683","","","{""product_choice"":""B""}","choice","tcd","repulsion_1","1","televisions","null","null","null","null","null","null","1","100","90","100","30","40","25","Screen size","Average lifespan","",""
"","","","","","choice_trial_setup","html-keyboard-response","154","1104191","0.0-5.0-0.35","178","1","2025-04-14 14:32:02","bb671e3ae32f654b8954ea4c4635f915","","Mozilla/5.0 (Windows NT 10.0; Win64; x64) AppleWebKit/537.36 (KHTML, like Gecko) Chrome/135.0.0.0 Safari/537.36","WebKit","Chrome","135.0.0.0","Windows","10.0","https://hz8g1ckzuq.cognition.run/","en-US,en;q=0.9","x933b51h6rpmzx4","29","[""White""]","No","Female","1154703.2000000477","null","","<p></p>","null","choice","cdt","attraction_2","2","laptops","null","null","null","null","null","null","1","","","","","","","","","",""
"","","","","","choice_trial","survey-html-form","155","1109166","0.0-5.0-1.35","178","1","2025-04-14 14:32:02","bb671e3ae32f654b8954ea4c4635f915","","Mozilla/5.0 (Windows NT 10.0; Win64; x64) AppleWebKit/537.36 (KHTML, like Gecko) Chrome/135.0.0.0 Safari/537.36","WebKit","Chrome","135.0.0.0","Windows","10.0","https://hz8g1ckzuq.cognition.run/","en-US,en;q=0.9","x933b51h6rpmzx4","29","[""White""]","No","Female","1154703.2000000477","4962","","","{""product_choice"":""A""}","choice","cdt","attraction_2","2","laptops","null","null","null","null","null","null","1","50","60","40","60","50","60","Processing speed","Memory (RAM)","",""
"","","","","","choice_trial_setup","html-keyboard-response","156","1109471","0.0-5.0-0.36","178","1","2025-04-14 14:32:02","bb671e3ae32f654b8954ea4c4635f915","","Mozilla/5.0 (Windows NT 10.0; Win64; x64) AppleWebKit/537.36 (KHTML, like Gecko) Chrome/135.0.0.0 Safari/537.36","WebKit","Chrome","135.0.0.0","Windows","10.0","https://hz8g1ckzuq.cognition.run/","en-US,en;q=0.9","x933b51h6rpmzx4","29","[""White""]","No","Female","1154703.2000000477","null","","<p></p>","null","choice","tdc","attraction_2","1","washing machines","null","null","null","null","null","null","1","","","","","","","","","",""
