"success","timeout","failed_images","failed_audio","failed_video","screen_id","trial_type","trial_index","time_elapsed","internal_node_id","run_id","condition","recorded_at","source_code_version","ip","user_agent","device","browser","browser_version","platform","platform_version","referer","accept_language","ppt_id","age","race","ethnicity","gender","exp_duration","rt","view_history","stimulus","response","phase","order","effect","t_high","category","d1_best","d2_best","d1_worst1","d2_worst1","d1_worst2","d2_worst2","first_dim","d1_t","d1_c","d1_d","d2_t","d2_c","d2_d","d1_name","d2_name","strategy_response","question_order"
"true","false","[]","[]","[]","img preload","preload","0","302","0.0-0.0","179","1","2025-04-14 14:33:47","bb671e3ae32f654b8954ea4c4635f915","","Mozilla/5.0 (Macintosh; Intel Mac OS X 10_15_7) AppleWebKit/537.36 (KHTML, like Gecko) Chrome/135.0.0.0 Safari/537.36","Macintosh","Chrome","135.0.0.0","OS X","10_15_7","https://hz8g1ckzuq.cognition.run/","en-GB,en;q=0.8","lnxav3xgpjlyaa0","37","[""White""]","Yes","Male","1748886.5","","","","","","","","","","","","","","","","","","","","","","","","","",""
"true","","","","","","fullscreen","1","3280","0.0-1.0","179","1","2025-04-14 14:33:47","bb671e3ae32f654b8954ea4c4635f915","","Mozilla/5.0 (Macintosh; Intel Mac OS X 10_15_7) AppleWebKit/537.36 (KHTML, like Gecko) Chrome/135.0.0.0 Safari/537.36","Macintosh","Chrome","135.0.0.0","OS X","10_15_7","https://hz8g1ckzuq.cognition.run/","en-GB,en;q=0.8","lnxav3xgpjlyaa0","37","[""White""]","Yes","Male","1748886.5","1975","","","","","","","","","","","","","","","","","","","","","","","","",""
"","","","","","","instructions","2","215190","0.0-2.0","179","1","2025-04-14 14:33:47","bb671e3ae32f654b8954ea4c4635f915","","Mozilla/5.0 (Macintosh; Intel Mac OS X 10_15_7) AppleWebKit/537.36 (KHTML, like Gecko) Chrome/135.0.0.0 Safari/537.36","Macintosh","Chrome","135.0.0.0","OS X","10_15_7","https://hz8g1ckzuq.cognition.run/","en-GB,en;q=0.8","lnxav3xgpjlyaa0","37","[""White""]","Yes","Male","1748886.5","211917","[{""page_index"":0,""viewing_time"":2616},{""page_index"":1,""viewing_time"":175824},{""page_index"":2,""viewing_time"":2873},{""page_index"":3,""viewing_time"":4180},{""page_index"":4,""viewing_time"":4673},{""page_index"":5,""viewing_time"":3234},{""page_index"":6,""viewing_time"":5082},{""page_index"":7,""viewing_time"":7656},{""page_index"":8,""viewing_time"":3615},{""page_index"":9,""viewing_time"":2164}]","","","","","","","","","","","","","","","","","","","","","","","",""
"","","","","","rating_trial_setup","html-keyboard-response","3","215495","0.0-3.0-0.0","179","1","2025-04-14 14:33:47","bb671e3ae32f654b8954ea4c4635f915","","Mozilla/5.0 (Macintosh; Intel Mac OS X 10_15_7) AppleWebKit/537.36 (KHTML, like Gecko) Chrome/135.0.0.0 Safari/537.36","Macintosh","Chrome","135.0.0.0","OS X","10_15_7","https://hz8g1ckzuq.cognition.run/","en-GB,en;q=0.8","lnxav3xgpjlyaa0","37","[""White""]","Yes","Male","1748886.5","null","","<p></p>","null","rating","tdc","attraction_1","1","washing machines","null","null","null","null","null","null","2","","","","","","","","","",""
"","","","","","rating_trial","survey-html-form","4","237376","0.0-3.0-1.0","179","1","2025-04-14 14:33:47","bb671e3ae32f654b8954ea4c4635f915","","Mozilla/5.0 (Macintosh; Intel Mac OS X 10_15_7) AppleWebKit/537.36 (KHTML, like Gecko) Chrome/135.0.0.0 Safari/537.36","Macintosh","Chrome","135.0.0.0","OS X","10_15_7","https://hz8g1ckzuq.cognition.run/","en-GB,en;q=0.8","lnxav3xgpjlyaa0","37","[""White""]","Yes","Male","1748886.5","21877","","","{""price_1"":""599"",""price_2"":""499"",""price_3"":""550""}","rating","tdc","attraction_1","1","washing machines","null","null","null","null","null","null","2","60","50","60","50","60","45","Average lifespan","Energy savings","",""
"","","","","","rating_trial_setup","html-keyboard-response","5","237679","0.0-3.0-0.1","179","1","2025-04-14 14:33:47","bb671e3ae32f654b8954ea4c4635f915","","Mozilla/5.0 (Macintosh; Intel Mac OS X 10_15_7) AppleWebKit/537.36 (KHTML, like Gecko) Chrome/135.0.0.0 Safari/537.36","Macintosh","Chrome","135.0.0.0","OS X","10_15_7","https://hz8g1ckzuq.cognition.run/","en-GB,en;q=0.8","lnxav3xgpjlyaa0","37","[""White""]","Yes","Male","1748886.5","null","","<p></p>","null","rating","dtc","repulsion_1","1","microwave ovens","null","null","null","null","null","null","1","","","","","","","","","",""
"","","","","","rating_trial","survey-html-form","6","259756","0.0-3.0-1.1","179","1","2025-04-14 14:33:47","bb671e3ae32f654b8954ea4c4635f915","","Mozilla/5.0 (Macintosh; Intel Mac OS X 10_15_7) AppleWebKit/537.36 (KHTML, like Gecko) Chrome/135.0.0.0 Safari/537.36","Macintosh","Chrome","135.0.0.0","OS X","10_15_7","https://hz8g1ckzuq.cognition.run/","en-GB,en;q=0.8","lnxav3xgpjlyaa0","37","[""White""]","Yes","Male","1748886.5","22076","","","{""price_1"":""150"",""price_2"":""199"",""price_3"":""210""}","rating","dtc","repulsion_1","1","microwave ovens","null","null","null","null","null","null","1","100","90","100","30","40","25","Warranty","Cooking power","",""
"","","","","","rating_trial_setup","html-keyboard-response","7","260060","0.0-3.0-0.2","179","1","2025-04-14 14:33:47","bb671e3ae32f654b8954ea4c4635f915","","Mozilla/5.0 (Macintosh; Intel Mac OS X 10_15_7) AppleWebKit/537.36 (KHTML, like Gecko) Chrome/135.0.0.0 Safari/537.36","Macintosh","Chrome","135.0.0.0","OS X","10_15_7","https://hz8g1ckzuq.cognition.run/","en-GB,en;q=0.8","lnxav3xgpjlyaa0","37","[""White""]","Yes","Male","1748886.5","null","","<p></p>","null","rating","dtc","repulsion_1","2","microwave ovens","null","null","null","null","null","null","1","","","","","","","","","",""
"","","","","","rating_trial","survey-html-form","8","273594","0.0-3.0-1.2","179","1","2025-04-14 14:33:47","bb671e3ae32f654b8954ea4c4635f915","","Mozilla/5.0 (Macintosh; Intel Mac OS X 10_15_7) AppleWebKit/537.36 (KHTML, like Gecko) Chrome/135.0.0.0 Safari/537.36","Macintosh","Chrome","135.0.0.0","OS X","10_15_7","https://hz8g1ckzuq.cognition.run/","en-GB,en;q=0.8","lnxav3xgpjlyaa0","37","[""White""]","Yes","Male","1748886.5","13533","","","{""price_1"":""175"",""price_2"":""199"",""price_3"":""149""}","rating","dtc","repulsion_1","2","microwave ovens","null","null","null","null","null","null","1","30","40","25","100","90","100","Warranty","Cooking power","",""
"","","","","","rating_trial_setup","html-keyboard-response","9","273897","0.0-3.0-0.3","179","1","2025-04-14 14:33:47","bb671e3ae32f654b8954ea4c4635f915","","Mozilla/5.0 (Macintosh; Intel Mac OS X 10_15_7) AppleWebKit/537.36 (KHTML, like Gecko) Chrome/135.0.0.0 Safari/537.36","Macintosh","Chrome","135.0.0.0","OS X","10_15_7","https://hz8g1ckzuq.cognition.run/","en-GB,en;q=0.8","lnxav3xgpjlyaa0","37","[""White""]","Yes","Male","1748886.5","null","","<p></p>","null","rating","wbw","catch","null","microwave ovens","90","65","30","10","35","20","1","","","","","","","","","",""
"","","","","","rating_trial","survey-html-form","10","303568","0.0-3.0-1.3","179","1","2025-04-14 14:33:47","bb671e3ae32f654b8954ea4c4635f915","","Mozilla/5.0 (Macintosh; Intel Mac OS X 10_15_7) AppleWebKit/537.36 (KHTML, like Gecko) Chrome/135.0.0.0 Safari/537.36","Macintosh","Chrome","135.0.0.0","OS X","10_15_7","https://hz8g1ckzuq.cognition.run/","en-GB,en;q=0.8","lnxav3xgpjlyaa0","37","[""White""]","Yes","Male","1748886.5","29670","","","{""price_1"":""125"",""price_2"":""150"",""price_3"":""110""}","rating","wbw","catch","null","microwave ovens","90","65","30","10","35","20","1","null","null","null","null","null","null","Warranty","Cooking power","",""
"","","","","","rating_trial_setup","html-keyboard-response","11","303871","0.0-3.0-0.4","179","1","2025-04-14 14:33:47","bb671e3ae32f654b8954ea4c4635f915","","Mozilla/5.0 (Macintosh; Intel Mac OS X 10_15_7) AppleWebKit/537.36 (KHTML, like Gecko) Chrome/135.0.0.0 Safari/537.36","Macintosh","Chrome","135.0.0.0","OS X","10_15_7","https://hz8g1ckzuq.cognition.run/","en-GB,en;q=0.8","lnxav3xgpjlyaa0","37","[""White""]","Yes","Male","1748886.5","null","","<p></p>","null","rating","dtc","repulsion_1","1","televisions","null","null","null","null","null","null","1","","","","","","","","","",""
"","","","","","rating_trial","survey-html-form","12","317524","0.0-3.0-1.4","179","1","2025-04-14 14:33:47","bb671e3ae32f654b8954ea4c4635f915","","Mozilla/5.0 (Macintosh; Intel Mac OS X 10_15_7) AppleWebKit/537.36 (KHTML, like Gecko) Chrome/135.0.0.0 Safari/537.36","Macintosh","Chrome","135.0.0.0","OS X","10_15_7","https://hz8g1ckzuq.cognition.run/","en-GB,en;q=0.8","lnxav3xgpjlyaa0","37","[""White""]","Yes","Male","1748886.5","13652","","","{""price_1"":""179"",""price_2"":""199"",""price_3"":""149""}","rating","dtc","repulsion_1","1","televisions","null","null","null","null","null","null","1","100","90","100","30","40","25","Screen size","Average lifespan","",""
"","","","","","rating_trial_setup","html-keyboard-response","13","317826","0.0-3.0-0.5","179","1","2025-04-14 14:33:47","bb671e3ae32f654b8954ea4c4635f915","","Mozilla/5.0 (Macintosh; Intel Mac OS X 10_15_7) AppleWebKit/537.36 (KHTML, like Gecko) Chrome/135.0.0.0 Safari/537.36","Macintosh","Chrome","135.0.0.0","OS X","10_15_7","https://hz8g1ckzuq.cognition.run/","en-GB,en;q=0.8","lnxav3xgpjlyaa0","37","[""White""]","Yes","Male","1748886.5","null","","<p></p>","null","rating","dtc","attraction_1","2","microwave ovens","null","null","null","null","null","null","1","","","","","","","","","",""
"","","","","","rating_trial","survey-html-form","14","429795","0.0-3.0-1.5","179","1","2025-04-14 14:33:47","bb671e3ae32f654b8954ea4c4635f915","","Mozilla/5.0 (Macintosh; Intel Mac OS X 10_15_7) AppleWebKit/537.36 (KHTML, like Gecko) Chrome/135.0.0.0 Safari/537.36","Macintosh","Chrome","135.0.0.0","OS X","10_15_7","https://hz8g1ckzuq.cognition.run/","en-GB,en;q=0.8","lnxav3xgpjlyaa0","37","[""White""]","Yes","Male","1748886.5","111971","","","{""price_1"":""129"",""price_2"":""139"",""price_3"":""149""}","rating","dtc","attraction_1","2","microwave ovens","null","null","null","null","null","null","1","50","60","45","60","50","60","Warranty","Cooking power","",""
"","","","","","rating_trial_setup","html-keyboard-response","15","430099","0.0-3.0-0.6","179","1","2025-04-14 14:33:47","bb671e3ae32f654b8954ea4c4635f915","","Mozilla/5.0 (Macintosh; Intel Mac OS X 10_15_7) AppleWebKit/537.36 (KHTML, like Gecko) Chrome/135.0.0.0 Safari/537.36","Macintosh","Chrome","135.0.0.0","OS X","10_15_7","https://hz8g1ckzuq.cognition.run/","en-GB,en;q=0.8","lnxav3xgpjlyaa0","37","[""White""]","Yes","Male","1748886.5","null","","<p></p>","null","rating","tdc","repulsion_1","1","laptops","null","null","null","null","null","null","2","","","","","","","","","",""
"","","","","","rating_trial","survey-html-form","16","442587","0.0-3.0-1.6","179","1","2025-04-14 14:33:47","bb671e3ae32f654b8954ea4c4635f915","","Mozilla/5.0 (Macintosh; Intel Mac OS X 10_15_7) AppleWebKit/537.36 (KHTML, like Gecko) Chrome/135.0.0.0 Safari/537.36","Macintosh","Chrome","135.0.0.0","OS X","10_15_7","https://hz8g1ckzuq.cognition.run/","en-GB,en;q=0.8","lnxav3xgpjlyaa0","37","[""White""]","Yes","Male","1748886.5","12487","","","{""price_1"":""300"",""price_2"":""250"",""price_3"":""350""}","rating","tdc","repulsion_1","1","laptops","null","null","null","null","null","null","2","100","90","100","30","40","25","Processing speed","Memory (RAM)","",""
"","","","","","rating_trial_setup","html-keyboard-response","17","442890","0.0-3.0-0.7","179","1","2025-04-14 14:33:47","bb671e3ae32f654b8954ea4c4635f915","","Mozilla/5.0 (Macintosh; Intel Mac OS X 10_15_7) AppleWebKit/537.36 (KHTML, like Gecko) Chrome/135.0.0.0 Safari/537.36","Macintosh","Chrome","135.0.0.0","OS X","10_15_7","https://hz8g1ckzuq.cognition.run/","en-GB,en;q=0.8","lnxav3xgpjlyaa0","37","[""White""]","Yes","Male","1748886.5","null","","<p></p>","null","rating","cdt","repulsion_2","1","washing machines","null","null","null","null","null","null","1","","","","","","","","","",""
"","","","","","rating_trial","survey-html-form","18","456695","0.0-3.0-1.7","179","1","2025-04-14 14:33:47","bb671e3ae32f654b8954ea4c4635f915","","Mozilla/5.0 (Macintosh; Intel Mac OS X 10_15_7) AppleWebKit/537.36 (KHTML, like Gecko) Chrome/135.0.0.0 Safari/537.36","Macintosh","Chrome","135.0.0.0","OS X","10_15_7","https://hz8g1ckzuq.cognition.run/","en-GB,en;q=0.8","lnxav3xgpjlyaa0","37","[""White""]","Yes","Male","1748886.5","13804","","","{""price_1"":""399"",""price_2"":""450"",""price_3"":""499""}","rating","cdt","repulsion_2","1","washing machines","null","null","null","null","null","null","1","100","90","100","30","40","20","Average lifespan","Energy savings","",""
"","","","","","rating_trial_setup","html-keyboard-response","19","456999","0.0-3.0-0.8","179","1","2025-04-14 14:33:47","bb671e3ae32f654b8954ea4c4635f915","","Mozilla/5.0 (Macintosh; Intel Mac OS X 10_15_7) AppleWebKit/537.36 (KHTML, like Gecko) Chrome/135.0.0.0 Safari/537.36","Macintosh","Chrome","135.0.0.0","OS X","10_15_7","https://hz8g1ckzuq.cognition.run/","en-GB,en;q=0.8","lnxav3xgpjlyaa0","37","[""White""]","Yes","Male","1748886.5","null","","<p></p>","null","rating","cdt","repulsion_2","2","washing machines","null","null","null","null","null","null","2","","","","","","","","","",""
"","","","","","rating_trial","survey-html-form","20","525004","0.0-3.0-1.8","179","1","2025-04-14 14:33:47","bb671e3ae32f654b8954ea4c4635f915","","Mozilla/5.0 (Macintosh; Intel Mac OS X 10_15_7) AppleWebKit/537.36 (KHTML, like Gecko) Chrome/135.0.0.0 Safari/537.36","Macintosh","Chrome","135.0.0.0","OS X","10_15_7","https://hz8g1ckzuq.cognition.run/","en-GB,en;q=0.8","lnxav3xgpjlyaa0","37","[""White""]","Yes","Male","1748886.5","68006","","","{""price_1"":""399"",""price_2"":""450"",""price_3"":""499""}","rating","cdt","repulsion_2","2","washing machines","null","null","null","null","null","null","2","30","40","20","100","90","100","Average lifespan","Energy savings","",""
"","","","","","rating_trial_setup","html-keyboard-response","21","525309","0.0-3.0-0.9","179","1","2025-04-14 14:33:47","bb671e3ae32f654b8954ea4c4635f915","","Mozilla/5.0 (Macintosh; Intel Mac OS X 10_15_7) AppleWebKit/537.36 (KHTML, like Gecko) Chrome/135.0.0.0 Safari/537.36","Macintosh","Chrome","135.0.0.0","OS X","10_15_7","https://hz8g1ckzuq.cognition.run/","en-GB,en;q=0.8","lnxav3xgpjlyaa0","37","[""White""]","Yes","Male","1748886.5","null","","<p></p>","null","rating","dct","attraction_2","2","laptops","null","null","null","null","null","null","1","","","","","","","","","",""
"","","","","","rating_trial","survey-html-form","22","620270","0.0-3.0-1.9","179","1","2025-04-14 14:33:47","bb671e3ae32f654b8954ea4c4635f915","","Mozilla/5.0 (Macintosh; Intel Mac OS X 10_15_7) AppleWebKit/537.36 (KHTML, like Gecko) Chrome/135.0.0.0 Safari/537.36","Macintosh","Chrome","135.0.0.0","OS X","10_15_7","https://hz8g1ckzuq.cognition.run/","en-GB,en;q=0.8","lnxav3xgpjlyaa0","37","[""White""]","Yes","Male","1748886.5","94963","","","{""price_1"":""350"",""price_2"":""375"",""price_3"":""400""}","rating","dct","attraction_2","2","laptops","null","null","null","null","null","null","1","50","60","40","60","50","60","Processing speed","Memory (RAM)","",""
"","","","","","rating_trial_setup","html-keyboard-response","23","620575","0.0-3.0-0.10","179","1","2025-04-14 14:33:47","bb671e3ae32f654b8954ea4c4635f915","","Mozilla/5.0 (Macintosh; Intel Mac OS X 10_15_7) AppleWebKit/537.36 (KHTML, like Gecko) Chrome/135.0.0.0 Safari/537.36","Macintosh","Chrome","135.0.0.0","OS X","10_15_7","https://hz8g1ckzuq.cognition.run/","en-GB,en;q=0.8","lnxav3xgpjlyaa0","37","[""White""]","Yes","Male","1748886.5","null","","<p></p>","null","rating","tcd","repulsion_2","2","laptops","null","null","null","null","null","null","1","","","","","","","","","",""
"","","","","","rating_trial","survey-html-form","24","633770","0.0-3.0-1.10","179","1","2025-04-14 14:33:47","bb671e3ae32f654b8954ea4c4635f915","","Mozilla/5.0 (Macintosh; Intel Mac OS X 10_15_7) AppleWebKit/537.36 (KHTML, like Gecko) Chrome/135.0.0.0 Safari/537.36","Macintosh","Chrome","135.0.0.0","OS X","10_15_7","https://hz8g1ckzuq.cognition.run/","en-GB,en;q=0.8","lnxav3xgpjlyaa0","37","[""White""]","Yes","Male","1748886.5","13194","","","{""price_1"":""375"",""price_2"":""359"",""price_3"":""400""}","rating","tcd","repulsion_2","2","laptops","null","null","null","null","null","null","1","30","40","20","100","90","100","Processing speed","Memory (RAM)","",""
"","","","","","rating_trial_setup","html-keyboard-response","25","634074","0.0-3.0-0.11","179","1","2025-04-14 14:33:47","bb671e3ae32f654b8954ea4c4635f915","","Mozilla/5.0 (Macintosh; Intel Mac OS X 10_15_7) AppleWebKit/537.36 (KHTML, like Gecko) Chrome/135.0.0.0 Safari/537.36","Macintosh","Chrome","135.0.0.0","OS X","10_15_7","https://hz8g1ckzuq.cognition.run/","en-GB,en;q=0.8","lnxav3xgpjlyaa0","37","[""White""]","Yes","Male","1748886.5","null","","<p></p>","null","rating","ctd","attraction_2","2","microwave ovens","null","null","null","null","null","null","2","","","","","","","","","",""
"","","","","","rating_trial","survey-html-form","26","718436","0.0-3.0-1.11","179","1","2025-04-14 14:33:47","bb671e3ae32f654b8954ea4c4635f915","","Mozilla/5.0 (Macintosh; Intel Mac OS X 10_15_7) AppleWebKit/537.36 (KHTML, like Gecko) Chrome/135.0.0.0 Safari/537.36","Macintosh","Chrome","135.0.0.0","OS X","10_15_7","https://hz8g1ckzuq.cognition.run/","en-GB,en;q=0.8","lnxav3xgpjlyaa0","37","[""White""]","Yes","Male","1748886.5","84363","","","{""price_1"":""299"",""price_2"":""275"",""price_3"":""270""}","rating","ctd","attraction_2","2","microwave ovens","null","null","null","null","null","null","2","50","60","40","60","50","60","Warranty","Cooking power","",""
"","","","","","rating_trial_setup","html-keyboard-response","27","718740","0.0-3.0-0.12","179","1","2025-04-14 14:33:47","bb671e3ae32f654b8954ea4c4635f915","","Mozilla/5.0 (Macintosh; Intel Mac OS X 10_15_7) AppleWebKit/537.36 (KHTML, like Gecko) Chrome/135.0.0.0 Safari/537.36","Macintosh","Chrome","135.0.0.0","OS X","10_15_7","https://hz8g1ckzuq.cognition.run/","en-GB,en;q=0.8","lnxav3xgpjlyaa0","37","[""White""]","Yes","Male","1748886.5","null","","<p></p>","null","rating","tcd","attraction_2","2","washing machines","null","null","null","null","null","null","1","","","","","","","","","",""
"","","","","","rating_trial","survey-html-form","28","732111","0.0-3.0-1.12","179","1","2025-04-14 14:33:47","bb671e3ae32f654b8954ea4c4635f915","","Mozilla/5.0 (Macintosh; Intel Mac OS X 10_15_7) AppleWebKit/537.36 (KHTML, like Gecko) Chrome/135.0.0.0 Safari/537.36","Macintosh","Chrome","135.0.0.0","OS X","10_15_7","https://hz8g1ckzuq.cognition.run/","en-GB,en;q=0.8","lnxav3xgpjlyaa0","37","[""White""]","Yes","Male","1748886.5","13369","","","{""price_1"":""450"",""price_2"":""475"",""price_3"":""399""}","rating","tcd","attraction_2","2","washing machines","null","null","null","null","null","null","1","50","60","40","60","50","60","Average lifespan","Energy savings","",""
"","","","","","rating_trial_setup","html-keyboard-response","29","732414","0.0-3.0-0.13","179","1","2025-04-14 14:33:47","bb671e3ae32f654b8954ea4c4635f915","","Mozilla/5.0 (Macintosh; Intel Mac OS X 10_15_7) AppleWebKit/537.36 (KHTML, like Gecko) Chrome/135.0.0.0 Safari/537.36","Macintosh","Chrome","135.0.0.0","OS X","10_15_7","https://hz8g1ckzuq.cognition.run/","en-GB,en;q=0.8","lnxav3xgpjlyaa0","37","[""White""]","Yes","Male","1748886.5","null","","<p></p>","null","rating","dtc","repulsion_2","1","laptops","null","null","null","null","null","null","1","","","","","","","","","",""
"","","","","","rating_trial","survey-html-form","30","746552","0.0-3.0-1.13","179","1","2025-04-14 14:33:47","bb671e3ae32f654b8954ea4c4635f915","","Mozilla/5.0 (Macintosh; Intel Mac OS X 10_15_7) AppleWebKit/537.36 (KHTML, like Gecko) Chrome/135.0.0.0 Safari/537.36","Macintosh","Chrome","135.0.0.0","OS X","10_15_7","https://hz8g1ckzuq.cognition.run/","en-GB,en;q=0.8","lnxav3xgpjlyaa0","37","[""White""]","Yes","Male","1748886.5","14136","","","{""price_1"":""399"",""price_2"":""425"",""price_3"":""399""}","rating","dtc","repulsion_2","1","laptops","null","null","null","null","null","null","1","100","90","100","30","40","20","Processing speed","Memory (RAM)","",""
"","","","","","rating_trial_setup","html-keyboard-response","31","746859","0.0-3.0-0.14","179","1","2025-04-14 14:33:47","bb671e3ae32f654b8954ea4c4635f915","","Mozilla/5.0 (Macintosh; Intel Mac OS X 10_15_7) AppleWebKit/537.36 (KHTML, like Gecko) Chrome/135.0.0.0 Safari/537.36","Macintosh","Chrome","135.0.0.0","OS X","10_15_7","https://hz8g1ckzuq.cognition.run/","en-GB,en;q=0.8","lnxav3xgpjlyaa0","37","[""White""]","Yes","Male","1748886.5","null","","<p></p>","null","rating","tcd","attraction_1","2","washing machines","null","null","null","null","null","null","1","","","","","","","","","",""
"","","","","","rating_trial","survey-html-form","32","854425","0.0-3.0-1.14","179","1","2025-04-14 14:33:47","bb671e3ae32f654b8954ea4c4635f915","","Mozilla/5.0 (Macintosh; Intel Mac OS X 10_15_7) AppleWebKit/537.36 (KHTML, like Gecko) Chrome/135.0.0.0 Safari/537.36","Macintosh","Chrome","135.0.0.0","OS X","10_15_7","https://hz8g1ckzuq.cognition.run/","en-GB,en;q=0.8","lnxav3xgpjlyaa0","37","[""White""]","Yes","Male","1748886.5","107564","","","{""price_1"":""450"",""price_2"":""470"",""price_3"":""410""}","rating","tcd","attraction_1","2","washing machines","null","null","null","null","null","null","1","50","60","45","60","50","60","Average lifespan","Energy savings","",""
"","","","","","rating_trial_setup","html-keyboard-response","33","854729","0.0-3.0-0.15","179","1","2025-04-14 14:33:47","bb671e3ae32f654b8954ea4c4635f915","","Mozilla/5.0 (Macintosh; Intel Mac OS X 10_15_7) AppleWebKit/537.36 (KHTML, like Gecko) Chrome/135.0.0.0 Safari/537.36","Macintosh","Chrome","135.0.0.0","OS X","10_15_7","https://hz8g1ckzuq.cognition.run/","en-GB,en;q=0.8","lnxav3xgpjlyaa0","37","[""White""]","Yes","Male","1748886.5","null","","<p></p>","null","rating","bww","catch","null","washing machines","80","60","5","35","45","50","1","","","","","","","","","",""
"","","","","","rating_trial","survey-html-form","34","926967","0.0-3.0-1.15","179","1","2025-04-14 14:33:47","bb671e3ae32f654b8954ea4c4635f915","","Mozilla/5.0 (Macintosh; Intel Mac OS X 10_15_7) AppleWebKit/537.36 (KHTML, like Gecko) Chrome/135.0.0.0 Safari/537.36","Macintosh","Chrome","135.0.0.0","OS X","10_15_7","https://hz8g1ckzuq.cognition.run/","en-GB,en;q=0.8","lnxav3xgpjlyaa0","37","[""White""]","Yes","Male","1748886.5","72238","","","{""price_1"":""425"",""price_2"":""215"",""price_3"":""299""}","rating","bww","catch","null","washing machines","80","60","5","35","45","50","1","null","null","null","null","null","null","Average lifespan","Energy savings","",""
"","","","","","rating_trial_setup","html-keyboard-response","35","927273","0.0-3.0-0.16","179","1","2025-04-14 14:33:47","bb671e3ae32f654b8954ea4c4635f915","","Mozilla/5.0 (Macintosh; Intel Mac OS X 10_15_7) AppleWebKit/537.36 (KHTML, like Gecko) Chrome/135.0.0.0 Safari/537.36","Macintosh","Chrome","135.0.0.0","OS X","10_15_7","https://hz8g1ckzuq.cognition.run/","en-GB,en;q=0.8","lnxav3xgpjlyaa0","37","[""White""]","Yes","Male","1748886.5","null","","<p></p>","null","rating","dtc","attraction_2","2","televisions","null","null","null","null","null","null","1","","","","","","","","","",""
"","","","","","rating_trial","survey-html-form","36","962695","0.0-3.0-1.16","179","1","2025-04-14 14:33:47","bb671e3ae32f654b8954ea4c4635f915","","Mozilla/5.0 (Macintosh; Intel Mac OS X 10_15_7) AppleWebKit/537.36 (KHTML, like Gecko) Chrome/135.0.0.0 Safari/537.36","Macintosh","Chrome","135.0.0.0","OS X","10_15_7","https://hz8g1ckzuq.cognition.run/","en-GB,en;q=0.8","lnxav3xgpjlyaa0","37","[""White""]","Yes","Male","1748886.5","35420","","","{""price_1"":""250"",""price_2"":""300"",""price_3"":""275""}","rating","dtc","attraction_2","2","televisions","null","null","null","null","null","null","1","50","60","40","60","50","60","Screen size","Average lifespan","",""
"","","","","","rating_trial_setup","html-keyboard-response","37","963000","0.0-3.0-0.17","179","1","2025-04-14 14:33:47","bb671e3ae32f654b8954ea4c4635f915","","Mozilla/5.0 (Macintosh; Intel Mac OS X 10_15_7) AppleWebKit/537.36 (KHTML, like Gecko) Chrome/135.0.0.0 Safari/537.36","Macintosh","Chrome","135.0.0.0","OS X","10_15_7","https://hz8g1ckzuq.cognition.run/","en-GB,en;q=0.8","lnxav3xgpjlyaa0","37","[""White""]","Yes","Male","1748886.5","null","","<p></p>","null","rating","wwb","catch","null","televisions","50","60","20","20","45","50","1","","","","","","","","","",""
"","","","","","rating_trial","survey-html-form","38","1026646","0.0-3.0-1.17","179","1","2025-04-14 14:33:47","bb671e3ae32f654b8954ea4c4635f915","","Mozilla/5.0 (Macintosh; Intel Mac OS X 10_15_7) AppleWebKit/537.36 (KHTML, like Gecko) Chrome/135.0.0.0 Safari/537.36","Macintosh","Chrome","135.0.0.0","OS X","10_15_7","https://hz8g1ckzuq.cognition.run/","en-GB,en;q=0.8","lnxav3xgpjlyaa0","37","[""White""]","Yes","Male","1748886.5","63701","","","{""price_1"":""199"",""price_2"":""210"",""price_3"":""220""}","rating","wwb","catch","null","televisions","50","60","20","20","45","50","1","null","null","null","null","null","null","Screen size","Average lifespan","",""
"","","","","","rating_trial_setup","html-keyboard-response","39","1026951","0.0-3.0-0.18","179","1","2025-04-14 14:33:47","bb671e3ae32f654b8954ea4c4635f915","","Mozilla/5.0 (Macintosh; Intel Mac OS X 10_15_7) AppleWebKit/537.36 (KHTML, like Gecko) Chrome/135.0.0.0 Safari/537.36","Macintosh","Chrome","135.0.0.0","OS X","10_15_7","https://hz8g1ckzuq.cognition.run/","en-GB,en;q=0.8","lnxav3xgpjlyaa0","37","[""White""]","Yes","Male","1748886.5","null","","<p></p>","null","rating","dtc","attraction_1","1","microwave ovens","null","null","null","null","null","null","1","","","","","","","","","",""
"","","","","","rating_trial","survey-html-form","40","1043177","0.0-3.0-1.18","179","1","2025-04-14 14:33:47","bb671e3ae32f654b8954ea4c4635f915","","Mozilla/5.0 (Macintosh; Intel Mac OS X 10_15_7) AppleWebKit/537.36 (KHTML, like Gecko) Chrome/135.0.0.0 Safari/537.36","Macintosh","Chrome","135.0.0.0","OS X","10_15_7","https://hz8g1ckzuq.cognition.run/","en-GB,en;q=0.8","lnxav3xgpjlyaa0","37","[""White""]","Yes","Male","1748886.5","16224","","","{""price_1"":""215"",""price_2"":""260"",""price_3"":""220""}","rating","dtc","attraction_1","1","microwave ovens","null","null","null","null","null","null","1","60","50","60","50","60","45","Warranty","Cooking power","",""
"","","","","","rating_trial_setup","html-keyboard-response","41","1043482","0.0-3.0-0.19","179","1","2025-04-14 14:33:47","bb671e3ae32f654b8954ea4c4635f915","","Mozilla/5.0 (Macintosh; Intel Mac OS X 10_15_7) AppleWebKit/537.36 (KHTML, like Gecko) Chrome/135.0.0.0 Safari/537.36","Macintosh","Chrome","135.0.0.0","OS X","10_15_7","https://hz8g1ckzuq.cognition.run/","en-GB,en;q=0.8","lnxav3xgpjlyaa0","37","[""White""]","Yes","Male","1748886.5","null","","<p></p>","null","rating","cdt","repulsion_1","2","laptops","null","null","null","null","null","null","2","","","","","","","","","",""
"","","","","","rating_trial","survey-html-form","42","1080349","0.0-3.0-1.19","179","1","2025-04-14 14:33:47","bb671e3ae32f654b8954ea4c4635f915","","Mozilla/5.0 (Macintosh; Intel Mac OS X 10_15_7) AppleWebKit/537.36 (KHTML, like Gecko) Chrome/135.0.0.0 Safari/537.36","Macintosh","Chrome","135.0.0.0","OS X","10_15_7","https://hz8g1ckzuq.cognition.run/","en-GB,en;q=0.8","lnxav3xgpjlyaa0","37","[""White""]","Yes","Male","1748886.5","36865","","","{""price_1"":""299"",""price_2"":""315"",""price_3"":""330""}","rating","cdt","repulsion_1","2","laptops","null","null","null","null","null","null","2","30","40","25","100","90","100","Processing speed","Memory (RAM)","",""
"","","","","","rating_trial_setup","html-keyboard-response","43","1080653","0.0-3.0-0.20","179","1","2025-04-14 14:33:47","bb671e3ae32f654b8954ea4c4635f915","","Mozilla/5.0 (Macintosh; Intel Mac OS X 10_15_7) AppleWebKit/537.36 (KHTML, like Gecko) Chrome/135.0.0.0 Safari/537.36","Macintosh","Chrome","135.0.0.0","OS X","10_15_7","https://hz8g1ckzuq.cognition.run/","en-GB,en;q=0.8","lnxav3xgpjlyaa0","37","[""White""]","Yes","Male","1748886.5","null","","<p></p>","null","rating","tdc","attraction_2","1","televisions","null","null","null","null","null","null","2","","","","","","","","","",""
"","","","","","rating_trial","survey-html-form","44","1112793","0.0-3.0-1.20","179","1","2025-04-14 14:33:47","bb671e3ae32f654b8954ea4c4635f915","","Mozilla/5.0 (Macintosh; Intel Mac OS X 10_15_7) AppleWebKit/537.36 (KHTML, like Gecko) Chrome/135.0.0.0 Safari/537.36","Macintosh","Chrome","135.0.0.0","OS X","10_15_7","https://hz8g1ckzuq.cognition.run/","en-GB,en;q=0.8","lnxav3xgpjlyaa0","37","[""White""]","Yes","Male","1748886.5","32138","","","{""price_1"":""220"",""price_2"":""210"",""price_3"":""225""}","rating","tdc","attraction_2","1","televisions","null","null","null","null","null","null","2","60","50","60","50","60","40","Screen size","Average lifespan","",""
"","","","","","rating_trial_setup","html-keyboard-response","45","1113098","0.0-3.0-0.21","179","1","2025-04-14 14:33:47","bb671e3ae32f654b8954ea4c4635f915","","Mozilla/5.0 (Macintosh; Intel Mac OS X 10_15_7) AppleWebKit/537.36 (KHTML, like Gecko) Chrome/135.0.0.0 Safari/537.36","Macintosh","Chrome","135.0.0.0","OS X","10_15_7","https://hz8g1ckzuq.cognition.run/","en-GB,en;q=0.8","lnxav3xgpjlyaa0","37","[""White""]","Yes","Male","1748886.5","null","","<p></p>","null","rating","ctd","attraction_2","1","laptops","null","null","null","null","null","null","1","","","","","","","","","",""
"","","","","","rating_trial","survey-html-form","46","1122591","0.0-3.0-1.21","179","1","2025-04-14 14:33:47","bb671e3ae32f654b8954ea4c4635f915","","Mozilla/5.0 (Macintosh; Intel Mac OS X 10_15_7) AppleWebKit/537.36 (KHTML, like Gecko) Chrome/135.0.0.0 Safari/537.36","Macintosh","Chrome","135.0.0.0","OS X","10_15_7","https://hz8g1ckzuq.cognition.run/","en-GB,en;q=0.8","lnxav3xgpjlyaa0","37","[""White""]","Yes","Male","1748886.5","9490","","","{""price_1"":""299"",""price_2"":""350"",""price_3"":""375""}","rating","ctd","attraction_2","1","laptops","null","null","null","null","null","null","1","60","50","60","50","60","40","Processing speed","Memory (RAM)","",""
"","","","","","rating_trial_setup","html-keyboard-response","47","1122897","0.0-3.0-0.22","179","1","2025-04-14 14:33:47","bb671e3ae32f654b8954ea4c4635f915","","Mozilla/5.0 (Macintosh; Intel Mac OS X 10_15_7) AppleWebKit/537.36 (KHTML, like Gecko) Chrome/135.0.0.0 Safari/537.36","Macintosh","Chrome","135.0.0.0","OS X","10_15_7","https://hz8g1ckzuq.cognition.run/","en-GB,en;q=0.8","lnxav3xgpjlyaa0","37","[""White""]","Yes","Male","1748886.5","null","","<p></p>","null","rating","tdc","repulsion_2","2","televisions","null","null","null","null","null","null","2","","","","","","","","","",""
"","","","","","rating_trial","survey-html-form","48","1139514","0.0-3.0-1.22","179","1","2025-04-14 14:33:47","bb671e3ae32f654b8954ea4c4635f915","","Mozilla/5.0 (Macintosh; Intel Mac OS X 10_15_7) AppleWebKit/537.36 (KHTML, like Gecko) Chrome/135.0.0.0 Safari/537.36","Macintosh","Chrome","135.0.0.0","OS X","10_15_7","https://hz8g1ckzuq.cognition.run/","en-GB,en;q=0.8","lnxav3xgpjlyaa0","37","[""White""]","Yes","Male","1748886.5","16615","","","{""price_1"":""275"",""price_2"":""250"",""price_3"":""200""}","rating","tdc","repulsion_2","2","televisions","null","null","null","null","null","null","2","30","40","20","100","90","100","Screen size","Average lifespan","",""
"","","","","","rating_trial_setup","html-keyboard-response","49","1139822","0.0-3.0-0.23","179","1","2025-04-14 14:33:47","bb671e3ae32f654b8954ea4c4635f915","","Mozilla/5.0 (Macintosh; Intel Mac OS X 10_15_7) AppleWebKit/537.36 (KHTML, like Gecko) Chrome/135.0.0.0 Safari/537.36","Macintosh","Chrome","135.0.0.0","OS X","10_15_7","https://hz8g1ckzuq.cognition.run/","en-GB,en;q=0.8","lnxav3xgpjlyaa0","37","[""White""]","Yes","Male","1748886.5","null","","<p></p>","null","rating","cdt","repulsion_2","1","televisions","null","null","null","null","null","null","2","","","","","","","","","",""
"","","","","","rating_trial","survey-html-form","50","1160898","0.0-3.0-1.23","179","1","2025-04-14 14:33:47","bb671e3ae32f654b8954ea4c4635f915","","Mozilla/5.0 (Macintosh; Intel Mac OS X 10_15_7) AppleWebKit/537.36 (KHTML, like Gecko) Chrome/135.0.0.0 Safari/537.36","Macintosh","Chrome","135.0.0.0","OS X","10_15_7","https://hz8g1ckzuq.cognition.run/","en-GB,en;q=0.8","lnxav3xgpjlyaa0","37","[""White""]","Yes","Male","1748886.5","21068","","","{""price_1"":""199"",""price_2"":""150"",""price_3"":""175""}","rating","cdt","repulsion_2","1","televisions","null","null","null","null","null","null","2","100","90","100","30","40","20","Screen size","Average lifespan","",""
"","","","","","rating_trial_setup","html-keyboard-response","51","1161204","0.0-3.0-0.24","179","1","2025-04-14 14:33:47","bb671e3ae32f654b8954ea4c4635f915","","Mozilla/5.0 (Macintosh; Intel Mac OS X 10_15_7) AppleWebKit/537.36 (KHTML, like Gecko) Chrome/135.0.0.0 Safari/537.36","Macintosh","Chrome","135.0.0.0","OS X","10_15_7","https://hz8g1ckzuq.cognition.run/","en-GB,en;q=0.8","lnxav3xgpjlyaa0","37","[""White""]","Yes","Male","1748886.5","null","","<p></p>","null","rating","wwb","catch","null","laptops","70","70","45","25","10","30","2","","","","","","","","","",""
"","","","","","rating_trial","survey-html-form","52","1172844","0.0-3.0-1.24","179","1","2025-04-14 14:33:47","bb671e3ae32f654b8954ea4c4635f915","","Mozilla/5.0 (Macintosh; Intel Mac OS X 10_15_7) AppleWebKit/537.36 (KHTML, like Gecko) Chrome/135.0.0.0 Safari/537.36","Macintosh","Chrome","135.0.0.0","OS X","10_15_7","https://hz8g1ckzuq.cognition.run/","en-GB,en;q=0.8","lnxav3xgpjlyaa0","37","[""White""]","Yes","Male","1748886.5","11637","","","{""price_1"":""225"",""price_2"":""199"",""price_3"":""270""}","rating","wwb","catch","null","laptops","70","70","45","25","10","30","2","null","null","null","null","null","null","Processing speed","Memory (RAM)","",""
"","","","","","rating_trial_setup","html-keyboard-response","53","1173149","0.0-3.0-0.25","179","1","2025-04-14 14:33:47","bb671e3ae32f654b8954ea4c4635f915","","Mozilla/5.0 (Macintosh; Intel Mac OS X 10_15_7) AppleWebKit/537.36 (KHTML, like Gecko) Chrome/135.0.0.0 Safari/537.36","Macintosh","Chrome","135.0.0.0","OS X","10_15_7","https://hz8g1ckzuq.cognition.run/","en-GB,en;q=0.8","lnxav3xgpjlyaa0","37","[""White""]","Yes","Male","1748886.5","null","","<p></p>","null","rating","ctd","attraction_1","2","laptops","null","null","null","null","null","null","2","","","","","","","","","",""
"","","","","","rating_trial","survey-html-form","54","1182606","0.0-3.0-1.25","179","1","2025-04-14 14:33:47","bb671e3ae32f654b8954ea4c4635f915","","Mozilla/5.0 (Macintosh; Intel Mac OS X 10_15_7) AppleWebKit/537.36 (KHTML, like Gecko) Chrome/135.0.0.0 Safari/537.36","Macintosh","Chrome","135.0.0.0","OS X","10_15_7","https://hz8g1ckzuq.cognition.run/","en-GB,en;q=0.8","lnxav3xgpjlyaa0","37","[""White""]","Yes","Male","1748886.5","9455","","","{""price_1"":""225"",""price_2"":""275"",""price_3"":""300""}","rating","ctd","attraction_1","2","laptops","null","null","null","null","null","null","2","50","60","45","60","50","60","Processing speed","Memory (RAM)","",""
"","","","","","rating_trial_setup","html-keyboard-response","55","1182915","0.0-3.0-0.26","179","1","2025-04-14 14:33:47","bb671e3ae32f654b8954ea4c4635f915","","Mozilla/5.0 (Macintosh; Intel Mac OS X 10_15_7) AppleWebKit/537.36 (KHTML, like Gecko) Chrome/135.0.0.0 Safari/537.36","Macintosh","Chrome","135.0.0.0","OS X","10_15_7","https://hz8g1ckzuq.cognition.run/","en-GB,en;q=0.8","lnxav3xgpjlyaa0","37","[""White""]","Yes","Male","1748886.5","null","","<p></p>","null","rating","ctd","repulsion_1","1","washing machines","null","null","null","null","null","null","2","","","","","","","","","",""
"","","","","","rating_trial","survey-html-form","56","1193265","0.0-3.0-1.26","179","1","2025-04-14 14:33:47","bb671e3ae32f654b8954ea4c4635f915","","Mozilla/5.0 (Macintosh; Intel Mac OS X 10_15_7) AppleWebKit/537.36 (KHTML, like Gecko) Chrome/135.0.0.0 Safari/537.36","Macintosh","Chrome","135.0.0.0","OS X","10_15_7","https://hz8g1ckzuq.cognition.run/","en-GB,en;q=0.8","lnxav3xgpjlyaa0","37","[""White""]","Yes","Male","1748886.5","10342","","","{""price_1"":""299"",""price_2"":""339"",""price_3"":""199""}","rating","ctd","repulsion_1","1","washing machines","null","null","null","null","null","null","2","100","90","100","30","40","25","Average lifespan","Energy savings","",""
"","","","","","rating_trial_setup","html-keyboard-response","57","1193573","0.0-3.0-0.27","179","1","2025-04-14 14:33:47","bb671e3ae32f654b8954ea4c4635f915","","Mozilla/5.0 (Macintosh; Intel Mac OS X 10_15_7) AppleWebKit/537.36 (KHTML, like Gecko) Chrome/135.0.0.0 Safari/537.36","Macintosh","Chrome","135.0.0.0","OS X","10_15_7","https://hz8g1ckzuq.cognition.run/","en-GB,en;q=0.8","lnxav3xgpjlyaa0","37","[""White""]","Yes","Male","1748886.5","null","","<p></p>","null","rating","wwb","catch","null","washing machines","65","65","20","30","25","30","2","","","","","","","","","",""
"","","","","","rating_trial","survey-html-form","58","1203134","0.0-3.0-1.27","179","1","2025-04-14 14:33:47","bb671e3ae32f654b8954ea4c4635f915","","Mozilla/5.0 (Macintosh; Intel Mac OS X 10_15_7) AppleWebKit/537.36 (KHTML, like Gecko) Chrome/135.0.0.0 Safari/537.36","Macintosh","Chrome","135.0.0.0","OS X","10_15_7","https://hz8g1ckzuq.cognition.run/","en-GB,en;q=0.8","lnxav3xgpjlyaa0","37","[""White""]","Yes","Male","1748886.5","9558","","","{""price_1"":""199"",""price_2"":""219"",""price_3"":""220""}","rating","wwb","catch","null","washing machines","65","65","20","30","25","30","2","null","null","null","null","null","null","Average lifespan","Energy savings","",""
"","","","","","rating_trial_setup","html-keyboard-response","59","1203440","0.0-3.0-0.28","179","1","2025-04-14 14:33:47","bb671e3ae32f654b8954ea4c4635f915","","Mozilla/5.0 (Macintosh; Intel Mac OS X 10_15_7) AppleWebKit/537.36 (KHTML, like Gecko) Chrome/135.0.0.0 Safari/537.36","Macintosh","Chrome","135.0.0.0","OS X","10_15_7","https://hz8g1ckzuq.cognition.run/","en-GB,en;q=0.8","lnxav3xgpjlyaa0","37","[""White""]","Yes","Male","1748886.5","null","","<p></p>","null","rating","wwb","catch","null","televisions","65","60","45","30","20","50","1","","","","","","","","","",""
"","","","","","rating_trial","survey-html-form","60","1244028","0.0-3.0-1.28","179","1","2025-04-14 14:33:47","bb671e3ae32f654b8954ea4c4635f915","","Mozilla/5.0 (Macintosh; Intel Mac OS X 10_15_7) AppleWebKit/537.36 (KHTML, like Gecko) Chrome/135.0.0.0 Safari/537.36","Macintosh","Chrome","135.0.0.0","OS X","10_15_7","https://hz8g1ckzuq.cognition.run/","en-GB,en;q=0.8","lnxav3xgpjlyaa0","37","[""White""]","Yes","Male","1748886.5","40585","","","{""price_1"":""299"",""price_2"":""199"",""price_3"":""319""}","rating","wwb","catch","null","televisions","65","60","45","30","20","50","1","null","null","null","null","null","null","Screen size","Average lifespan","",""
"","","","","","rating_trial_setup","html-keyboard-response","61","1244337","0.0-3.0-0.29","179","1","2025-04-14 14:33:47","bb671e3ae32f654b8954ea4c4635f915","","Mozilla/5.0 (Macintosh; Intel Mac OS X 10_15_7) AppleWebKit/537.36 (KHTML, like Gecko) Chrome/135.0.0.0 Safari/537.36","Macintosh","Chrome","135.0.0.0","OS X","10_15_7","https://hz8g1ckzuq.cognition.run/","en-GB,en;q=0.8","lnxav3xgpjlyaa0","37","[""White""]","Yes","Male","1748886.5","null","","<p></p>","null","rating","wbw","catch","null","laptops","70","85","35","30","25","20","2","","","","","","","","","",""
"","","","","","rating_trial","survey-html-form","62","1259951","0.0-3.0-1.29","179","1","2025-04-14 14:33:47","bb671e3ae32f654b8954ea4c4635f915","","Mozilla/5.0 (Macintosh; Intel Mac OS X 10_15_7) AppleWebKit/537.36 (KHTML, like Gecko) Chrome/135.0.0.0 Safari/537.36","Macintosh","Chrome","135.0.0.0","OS X","10_15_7","https://hz8g1ckzuq.cognition.run/","en-GB,en;q=0.8","lnxav3xgpjlyaa0","37","[""White""]","Yes","Male","1748886.5","15611","","","{""price_1"":""299"",""price_2"":""339"",""price_3"":""199""}","rating","wbw","catch","null","laptops","70","85","35","30","25","20","2","null","null","null","null","null","null","Processing speed","Memory (RAM)","",""
"","","","","","rating_trial_setup","html-keyboard-response","63","1260259","0.0-3.0-0.30","179","1","2025-04-14 14:33:47","bb671e3ae32f654b8954ea4c4635f915","","Mozilla/5.0 (Macintosh; Intel Mac OS X 10_15_7) AppleWebKit/537.36 (KHTML, like Gecko) Chrome/135.0.0.0 Safari/537.36","Macintosh","Chrome","135.0.0.0","OS X","10_15_7","https://hz8g1ckzuq.cognition.run/","en-GB,en;q=0.8","lnxav3xgpjlyaa0","37","[""White""]","Yes","Male","1748886.5","null","","<p></p>","null","rating","dct","repulsion_2","2","microwave ovens","null","null","null","null","null","null","2","","","","","","","","","",""
"","","","","","rating_trial","survey-html-form","64","1273744","0.0-3.0-1.30","179","1","2025-04-14 14:33:47","bb671e3ae32f654b8954ea4c4635f915","","Mozilla/5.0 (Macintosh; Intel Mac OS X 10_15_7) AppleWebKit/537.36 (KHTML, like Gecko) Chrome/135.0.0.0 Safari/537.36","Macintosh","Chrome","135.0.0.0","OS X","10_15_7","https://hz8g1ckzuq.cognition.run/","en-GB,en;q=0.8","lnxav3xgpjlyaa0","37","[""White""]","Yes","Male","1748886.5","13482","","","{""price_1"":""199"",""price_2"":""219"",""price_3"":""310""}","rating","dct","repulsion_2","2","microwave ovens","null","null","null","null","null","null","2","30","40","20","100","90","100","Warranty","Cooking power","",""
"","","","","","rating_trial_setup","html-keyboard-response","65","1274050","0.0-3.0-0.31","179","1","2025-04-14 14:33:47","bb671e3ae32f654b8954ea4c4635f915","","Mozilla/5.0 (Macintosh; Intel Mac OS X 10_15_7) AppleWebKit/537.36 (KHTML, like Gecko) Chrome/135.0.0.0 Safari/537.36","Macintosh","Chrome","135.0.0.0","OS X","10_15_7","https://hz8g1ckzuq.cognition.run/","en-GB,en;q=0.8","lnxav3xgpjlyaa0","37","[""White""]","Yes","Male","1748886.5","null","","<p></p>","null","rating","dtc","repulsion_2","1","microwave ovens","null","null","null","null","null","null","2","","","","","","","","","",""
"","","","","","rating_trial","survey-html-form","66","1284988","0.0-3.0-1.31","179","1","2025-04-14 14:33:47","bb671e3ae32f654b8954ea4c4635f915","","Mozilla/5.0 (Macintosh; Intel Mac OS X 10_15_7) AppleWebKit/537.36 (KHTML, like Gecko) Chrome/135.0.0.0 Safari/537.36","Macintosh","Chrome","135.0.0.0","OS X","10_15_7","https://hz8g1ckzuq.cognition.run/","en-GB,en;q=0.8","lnxav3xgpjlyaa0","37","[""White""]","Yes","Male","1748886.5","10935","","","{""price_1"":""219"",""price_2"":""200"",""price_3"":""175""}","rating","dtc","repulsion_2","1","microwave ovens","null","null","null","null","null","null","2","100","90","100","30","40","20","Warranty","Cooking power","",""
"","","","","","rating_trial_setup","html-keyboard-response","67","1285295","0.0-3.0-0.32","179","1","2025-04-14 14:33:47","bb671e3ae32f654b8954ea4c4635f915","","Mozilla/5.0 (Macintosh; Intel Mac OS X 10_15_7) AppleWebKit/537.36 (KHTML, like Gecko) Chrome/135.0.0.0 Safari/537.36","Macintosh","Chrome","135.0.0.0","OS X","10_15_7","https://hz8g1ckzuq.cognition.run/","en-GB,en;q=0.8","lnxav3xgpjlyaa0","37","[""White""]","Yes","Male","1748886.5","null","","<p></p>","null","rating","cdt","attraction_2","1","microwave ovens","null","null","null","null","null","null","2","","","","","","","","","",""
"","","","","","rating_trial","survey-html-form","68","1296726","0.0-3.0-1.32","179","1","2025-04-14 14:33:47","bb671e3ae32f654b8954ea4c4635f915","","Mozilla/5.0 (Macintosh; Intel Mac OS X 10_15_7) AppleWebKit/537.36 (KHTML, like Gecko) Chrome/135.0.0.0 Safari/537.36","Macintosh","Chrome","135.0.0.0","OS X","10_15_7","https://hz8g1ckzuq.cognition.run/","en-GB,en;q=0.8","lnxav3xgpjlyaa0","37","[""White""]","Yes","Male","1748886.5","11427","","","{""price_1"":""199"",""price_2"":""175"",""price_3"":""219""}","rating","cdt","attraction_2","1","microwave ovens","null","null","null","null","null","null","2","60","50","60","50","60","40","Warranty","Cooking power","",""
"","","","","","rating_trial_setup","html-keyboard-response","69","1297034","0.0-3.0-0.33","179","1","2025-04-14 14:33:47","bb671e3ae32f654b8954ea4c4635f915","","Mozilla/5.0 (Macintosh; Intel Mac OS X 10_15_7) AppleWebKit/537.36 (KHTML, like Gecko) Chrome/135.0.0.0 Safari/537.36","Macintosh","Chrome","135.0.0.0","OS X","10_15_7","https://hz8g1ckzuq.cognition.run/","en-GB,en;q=0.8","lnxav3xgpjlyaa0","37","[""White""]","Yes","Male","1748886.5","null","","<p></p>","null","rating","tdc","repulsion_1","2","washing machines","null","null","null","null","null","null","1","","","","","","","","","",""
"","","","","","rating_trial","survey-html-form","70","1308327","0.0-3.0-1.33","179","1","2025-04-14 14:33:47","bb671e3ae32f654b8954ea4c4635f915","","Mozilla/5.0 (Macintosh; Intel Mac OS X 10_15_7) AppleWebKit/537.36 (KHTML, like Gecko) Chrome/135.0.0.0 Safari/537.36","Macintosh","Chrome","135.0.0.0","OS X","10_15_7","https://hz8g1ckzuq.cognition.run/","en-GB,en;q=0.8","lnxav3xgpjlyaa0","37","[""White""]","Yes","Male","1748886.5","11289","","","{""price_1"":""219"",""price_2"":""299"",""price_3"":""199""}","rating","tdc","repulsion_1","2","washing machines","null","null","null","null","null","null","1","30","40","25","100","90","100","Average lifespan","Energy savings","",""
"","","","","","rating_trial_setup","html-keyboard-response","71","1308634","0.0-3.0-0.34","179","1","2025-04-14 14:33:47","bb671e3ae32f654b8954ea4c4635f915","","Mozilla/5.0 (Macintosh; Intel Mac OS X 10_15_7) AppleWebKit/537.36 (KHTML, like Gecko) Chrome/135.0.0.0 Safari/537.36","Macintosh","Chrome","135.0.0.0","OS X","10_15_7","https://hz8g1ckzuq.cognition.run/","en-GB,en;q=0.8","lnxav3xgpjlyaa0","37","[""White""]","Yes","Male","1748886.5","null","","<p></p>","null","rating","wwb","catch","null","microwave ovens","70","70","40","25","5","5","1","","","","","","","","","",""
"","","","","","rating_trial","survey-html-form","72","1321329","0.0-3.0-1.34","179","1","2025-04-14 14:33:47","bb671e3ae32f654b8954ea4c4635f915","","Mozilla/5.0 (Macintosh; Intel Mac OS X 10_15_7) AppleWebKit/537.36 (KHTML, like Gecko) Chrome/135.0.0.0 Safari/537.36","Macintosh","Chrome","135.0.0.0","OS X","10_15_7","https://hz8g1ckzuq.cognition.run/","en-GB,en;q=0.8","lnxav3xgpjlyaa0","37","[""White""]","Yes","Male","1748886.5","12691","","","{""price_1"":""175"",""price_2"":""100"",""price_3"":""200""}","rating","wwb","catch","null","microwave ovens","70","70","40","25","5","5","1","null","null","null","null","null","null","Warranty","Cooking power","",""
"","","","","","rating_trial_setup","html-keyboard-response","73","1321636","0.0-3.0-0.35","179","1","2025-04-14 14:33:47","bb671e3ae32f654b8954ea4c4635f915","","Mozilla/5.0 (Macintosh; Intel Mac OS X 10_15_7) AppleWebKit/537.36 (KHTML, like Gecko) Chrome/135.0.0.0 Safari/537.36","Macintosh","Chrome","135.0.0.0","OS X","10_15_7","https://hz8g1ckzuq.cognition.run/","en-GB,en;q=0.8","lnxav3xgpjlyaa0","37","[""White""]","Yes","Male","1748886.5","null","","<p></p>","null","rating","tcd","attraction_1","2","televisions","null","null","null","null","null","null","2","","","","","","","","","",""
"","","","","","rating_trial","survey-html-form","74","1349847","0.0-3.0-1.35","179","1","2025-04-14 14:33:47","bb671e3ae32f654b8954ea4c4635f915","","Mozilla/5.0 (Macintosh; Intel Mac OS X 10_15_7) AppleWebKit/537.36 (KHTML, like Gecko) Chrome/135.0.0.0 Safari/537.36","Macintosh","Chrome","135.0.0.0","OS X","10_15_7","https://hz8g1ckzuq.cognition.run/","en-GB,en;q=0.8","lnxav3xgpjlyaa0","37","[""White""]","Yes","Male","1748886.5","28208","","","{""price_1"":""219"",""price_2"":""200"",""price_3"":""220""}","rating","tcd","attraction_1","2","televisions","null","null","null","null","null","null","2","50","60","45","60","50","60","Screen size","Average lifespan","",""
"","","","","","rating_trial_setup","html-keyboard-response","75","1350156","0.0-3.0-0.36","179","1","2025-04-14 14:33:47","bb671e3ae32f654b8954ea4c4635f915","","Mozilla/5.0 (Macintosh; Intel Mac OS X 10_15_7) AppleWebKit/537.36 (KHTML, like Gecko) Chrome/135.0.0.0 Safari/537.36","Macintosh","Chrome","135.0.0.0","OS X","10_15_7","https://hz8g1ckzuq.cognition.run/","en-GB,en;q=0.8","lnxav3xgpjlyaa0","37","[""White""]","Yes","Male","1748886.5","null","","<p></p>","null","rating","tcd","attraction_1","1","laptops","null","null","null","null","null","null","2","","","","","","","","","",""
"","","","","","rating_trial","survey-html-form","76","1362100","0.0-3.0-1.36","179","1","2025-04-14 14:33:47","bb671e3ae32f654b8954ea4c4635f915","","Mozilla/5.0 (Macintosh; Intel Mac OS X 10_15_7) AppleWebKit/537.36 (KHTML, like Gecko) Chrome/135.0.0.0 Safari/537.36","Macintosh","Chrome","135.0.0.0","OS X","10_15_7","https://hz8g1ckzuq.cognition.run/","en-GB,en;q=0.8","lnxav3xgpjlyaa0","37","[""White""]","Yes","Male","1748886.5","11940","","","{""price_1"":""229"",""price_2"":""249"",""price_3"":""200""}","rating","tcd","attraction_1","1","laptops","null","null","null","null","null","null","2","60","50","60","50","60","45","Processing speed","Memory (RAM)","",""
"","","","","","rating_trial_setup","html-keyboard-response","77","1362407","0.0-3.0-0.37","179","1","2025-04-14 14:33:47","bb671e3ae32f654b8954ea4c4635f915","","Mozilla/5.0 (Macintosh; Intel Mac OS X 10_15_7) AppleWebKit/537.36 (KHTML, like Gecko) Chrome/135.0.0.0 Safari/537.36","Macintosh","Chrome","135.0.0.0","OS X","10_15_7","https://hz8g1ckzuq.cognition.run/","en-GB,en;q=0.8","lnxav3xgpjlyaa0","37","[""White""]","Yes","Male","1748886.5","null","","<p></p>","null","rating","dct","repulsion_1","2","televisions","null","null","null","null","null","null","1","","","","","","","","","",""
"","","","","","rating_trial","survey-html-form","78","1398563","0.0-3.0-1.37","179","1","2025-04-14 14:33:47","bb671e3ae32f654b8954ea4c4635f915","","Mozilla/5.0 (Macintosh; Intel Mac OS X 10_15_7) AppleWebKit/537.36 (KHTML, like Gecko) Chrome/135.0.0.0 Safari/537.36","Macintosh","Chrome","135.0.0.0","OS X","10_15_7","https://hz8g1ckzuq.cognition.run/","en-GB,en;q=0.8","lnxav3xgpjlyaa0","37","[""White""]","Yes","Male","1748886.5","36153","","","{""price_1"":""199"",""price_2"":""219"",""price_3"":""200""}","rating","dct","repulsion_1","2","televisions","null","null","null","null","null","null","1","30","40","25","100","90","100","Screen size","Average lifespan","",""
"","","","","","rating_trial_setup","html-keyboard-response","79","1398869","0.0-3.0-0.38","179","1","2025-04-14 14:33:47","bb671e3ae32f654b8954ea4c4635f915","","Mozilla/5.0 (Macintosh; Intel Mac OS X 10_15_7) AppleWebKit/537.36 (KHTML, like Gecko) Chrome/135.0.0.0 Safari/537.36","Macintosh","Chrome","135.0.0.0","OS X","10_15_7","https://hz8g1ckzuq.cognition.run/","en-GB,en;q=0.8","lnxav3xgpjlyaa0","37","[""White""]","Yes","Male","1748886.5","null","","<p></p>","null","rating","cdt","attraction_2","1","washing machines","null","null","null","null","null","null","1","","","","","","","","","",""
"","","","","","rating_trial","survey-html-form","80","1437221","0.0-3.0-1.38","179","1","2025-04-14 14:33:47","bb671e3ae32f654b8954ea4c4635f915","","Mozilla/5.0 (Macintosh; Intel Mac OS X 10_15_7) AppleWebKit/537.36 (KHTML, like Gecko) Chrome/135.0.0.0 Safari/537.36","Macintosh","Chrome","135.0.0.0","OS X","10_15_7","https://hz8g1ckzuq.cognition.run/","en-GB,en;q=0.8","lnxav3xgpjlyaa0","37","[""White""]","Yes","Male","1748886.5","38349","","","{""price_1"":""199"",""price_2"":""219"",""price_3"":""175""}","rating","cdt","attraction_2","1","washing machines","null","null","null","null","null","null","1","60","50","60","50","60","40","Average lifespan","Energy savings","",""
"","","","","","rating_trial_setup","html-keyboard-response","81","1437527","0.0-3.0-0.39","179","1","2025-04-14 14:33:47","bb671e3ae32f654b8954ea4c4635f915","","Mozilla/5.0 (Macintosh; Intel Mac OS X 10_15_7) AppleWebKit/537.36 (KHTML, like Gecko) Chrome/135.0.0.0 Safari/537.36","Macintosh","Chrome","135.0.0.0","OS X","10_15_7","https://hz8g1ckzuq.cognition.run/","en-GB,en;q=0.8","lnxav3xgpjlyaa0","37","[""White""]","Yes","Male","1748886.5","null","","<p></p>","null","rating","dct","attraction_1","1","televisions","null","null","null","null","null","null","2","","","","","","","","","",""
"","","","","","rating_trial","survey-html-form","82","1447741","0.0-3.0-1.39","179","1","2025-04-14 14:33:47","bb671e3ae32f654b8954ea4c4635f915","","Mozilla/5.0 (Macintosh; Intel Mac OS X 10_15_7) AppleWebKit/537.36 (KHTML, like Gecko) Chrome/135.0.0.0 Safari/537.36","Macintosh","Chrome","135.0.0.0","OS X","10_15_7","https://hz8g1ckzuq.cognition.run/","en-GB,en;q=0.8","lnxav3xgpjlyaa0","37","[""White""]","Yes","Male","1748886.5","10210","","","{""price_1"":""225"",""price_2"":""219"",""price_3"":""220""}","rating","dct","attraction_1","1","televisions","null","null","null","null","null","null","2","60","50","60","50","60","45","Screen size","Average lifespan","",""
"","","","","","","instructions","83","1491726","0.0-4.0","179","1","2025-04-14 14:33:47","bb671e3ae32f654b8954ea4c4635f915","","Mozilla/5.0 (Macintosh; Intel Mac OS X 10_15_7) AppleWebKit/537.36 (KHTML, like Gecko) Chrome/135.0.0.0 Safari/537.36","Macintosh","Chrome","135.0.0.0","OS X","10_15_7","https://hz8g1ckzuq.cognition.run/","en-GB,en;q=0.8","lnxav3xgpjlyaa0","37","[""White""]","Yes","Male","1748886.5","43980","[{""page_index"":0,""viewing_time"":29054},{""page_index"":1,""viewing_time"":797},{""page_index"":2,""viewing_time"":1666},{""page_index"":3,""viewing_time"":2933},{""page_index"":4,""viewing_time"":3357},{""page_index"":5,""viewing_time"":2020},{""page_index"":6,""viewing_time"":1670},{""page_index"":7,""viewing_time"":2482}]","","","","","","","","","","","","","","","","","","","","","","","",""
"","","","","","choice_trial_setup","html-keyboard-response","84","1492036","0.0-5.0-0.0","179","1","2025-04-14 14:33:47","bb671e3ae32f654b8954ea4c4635f915","","Mozilla/5.0 (Macintosh; Intel Mac OS X 10_15_7) AppleWebKit/537.36 (KHTML, like Gecko) Chrome/135.0.0.0 Safari/537.36","Macintosh","Chrome","135.0.0.0","OS X","10_15_7","https://hz8g1ckzuq.cognition.run/","en-GB,en;q=0.8","lnxav3xgpjlyaa0","37","[""White""]","Yes","Male","1748886.5","null","","<p></p>","null","choice","ctd","repulsion_2","1","microwave ovens","null","null","null","null","null","null","1","","","","","","","","","",""
"","","","","","choice_trial","survey-html-form","85","1496336","0.0-5.0-1.0","179","1","2025-04-14 14:33:47","bb671e3ae32f654b8954ea4c4635f915","","Mozilla/5.0 (Macintosh; Intel Mac OS X 10_15_7) AppleWebKit/537.36 (KHTML, like Gecko) Chrome/135.0.0.0 Safari/537.36","Macintosh","Chrome","135.0.0.0","OS X","10_15_7","https://hz8g1ckzuq.cognition.run/","en-GB,en;q=0.8","lnxav3xgpjlyaa0","37","[""White""]","Yes","Male","1748886.5","4288","","","{""product_choice"":""B""}","choice","ctd","repulsion_2","1","microwave ovens","null","null","null","null","null","null","1","100","90","100","30","40","20","Warranty","Cooking power","",""
"","","","","","choice_trial_setup","html-keyboard-response","86","1496648","0.0-5.0-0.1","179","1","2025-04-14 14:33:47","bb671e3ae32f654b8954ea4c4635f915","","Mozilla/5.0 (Macintosh; Intel Mac OS X 10_15_7) AppleWebKit/537.36 (KHTML, like Gecko) Chrome/135.0.0.0 Safari/537.36","Macintosh","Chrome","135.0.0.0","OS X","10_15_7","https://hz8g1ckzuq.cognition.run/","en-GB,en;q=0.8","lnxav3xgpjlyaa0","37","[""White""]","Yes","Male","1748886.5","null","","<p></p>","null","choice","tcd","attraction_2","2","washing machines","null","null","null","null","null","null","2","","","","","","","","","",""
"","","","","","choice_trial","survey-html-form","87","1501590","0.0-5.0-1.1","179","1","2025-04-14 14:33:47","bb671e3ae32f654b8954ea4c4635f915","","Mozilla/5.0 (Macintosh; Intel Mac OS X 10_15_7) AppleWebKit/537.36 (KHTML, like Gecko) Chrome/135.0.0.0 Safari/537.36","Macintosh","Chrome","135.0.0.0","OS X","10_15_7","https://hz8g1ckzuq.cognition.run/","en-GB,en;q=0.8","lnxav3xgpjlyaa0","37","[""White""]","Yes","Male","1748886.5","4930","","","{""product_choice"":""B""}","choice","tcd","attraction_2","2","washing machines","null","null","null","null","null","null","2","50","60","40","60","50","60","Average lifespan","Energy savings","",""
"","","","","","choice_trial_setup","html-keyboard-response","88","1501901","0.0-5.0-0.2","179","1","2025-04-14 14:33:47","bb671e3ae32f654b8954ea4c4635f915","","Mozilla/5.0 (Macintosh; Intel Mac OS X 10_15_7) AppleWebKit/537.36 (KHTML, like Gecko) Chrome/135.0.0.0 Safari/537.36","Macintosh","Chrome","135.0.0.0","OS X","10_15_7","https://hz8g1ckzuq.cognition.run/","en-GB,en;q=0.8","lnxav3xgpjlyaa0","37","[""White""]","Yes","Male","1748886.5","null","","<p></p>","null","choice","wbw","catch","null","microwave ovens","80","65","45","50","15","10","2","","","","","","","","","",""
"","","","","","choice_trial","survey-html-form","89","1505168","0.0-5.0-1.2","179","1","2025-04-14 14:33:47","bb671e3ae32f654b8954ea4c4635f915","","Mozilla/5.0 (Macintosh; Intel Mac OS X 10_15_7) AppleWebKit/537.36 (KHTML, like Gecko) Chrome/135.0.0.0 Safari/537.36","Macintosh","Chrome","135.0.0.0","OS X","10_15_7","https://hz8g1ckzuq.cognition.run/","en-GB,en;q=0.8","lnxav3xgpjlyaa0","37","[""White""]","Yes","Male","1748886.5","3255","","","{""product_choice"":""B""}","choice","wbw","catch","null","microwave ovens","80","65","45","50","15","10","2","null","null","null","null","null","null","Warranty","Cooking power","",""
"","","","","","choice_trial_setup","html-keyboard-response","90","1505479","0.0-5.0-0.3","179","1","2025-04-14 14:33:47","bb671e3ae32f654b8954ea4c4635f915","","Mozilla/5.0 (Macintosh; Intel Mac OS X 10_15_7) AppleWebKit/537.36 (KHTML, like Gecko) Chrome/135.0.0.0 Safari/537.36","Macintosh","Chrome","135.0.0.0","OS X","10_15_7","https://hz8g1ckzuq.cognition.run/","en-GB,en;q=0.8","lnxav3xgpjlyaa0","37","[""White""]","Yes","Male","1748886.5","null","","<p></p>","null","choice","dtc","repulsion_2","1","washing machines","null","null","null","null","null","null","2","","","","","","","","","",""
"","","","","","choice_trial","survey-html-form","91","1508891","0.0-5.0-1.3","179","1","2025-04-14 14:33:47","bb671e3ae32f654b8954ea4c4635f915","","Mozilla/5.0 (Macintosh; Intel Mac OS X 10_15_7) AppleWebKit/537.36 (KHTML, like Gecko) Chrome/135.0.0.0 Safari/537.36","Macintosh","Chrome","135.0.0.0","OS X","10_15_7","https://hz8g1ckzuq.cognition.run/","en-GB,en;q=0.8","lnxav3xgpjlyaa0","37","[""White""]","Yes","Male","1748886.5","3400","","","{""product_choice"":""B""}","choice","dtc","repulsion_2","1","washing machines","null","null","null","null","null","null","2","100","90","100","30","40","20","Average lifespan","Energy savings","",""
"","","","","","choice_trial_setup","html-keyboard-response","92","1509201","0.0-5.0-0.4","179","1","2025-04-14 14:33:47","bb671e3ae32f654b8954ea4c4635f915","","Mozilla/5.0 (Macintosh; Intel Mac OS X 10_15_7) AppleWebKit/537.36 (KHTML, like Gecko) Chrome/135.0.0.0 Safari/537.36","Macintosh","Chrome","135.0.0.0","OS X","10_15_7","https://hz8g1ckzuq.cognition.run/","en-GB,en;q=0.8","lnxav3xgpjlyaa0","37","[""White""]","Yes","Male","1748886.5","null","","<p></p>","null","choice","ctd","attraction_2","1","washing machines","null","null","null","null","null","null","1","","","","","","","","","",""
"","","","","","choice_trial","survey-html-form","93","1541462","0.0-5.0-1.4","179","1","2025-04-14 14:33:47","bb671e3ae32f654b8954ea4c4635f915","","Mozilla/5.0 (Macintosh; Intel Mac OS X 10_15_7) AppleWebKit/537.36 (KHTML, like Gecko) Chrome/135.0.0.0 Safari/537.36","Macintosh","Chrome","135.0.0.0","OS X","10_15_7","https://hz8g1ckzuq.cognition.run/","en-GB,en;q=0.8","lnxav3xgpjlyaa0","37","[""White""]","Yes","Male","1748886.5","32249","","","{""product_choice"":""C""}","choice","ctd","attraction_2","1","washing machines","null","null","null","null","null","null","1","60","50","60","50","60","40","Average lifespan","Energy savings","",""
"","","","","","choice_trial_setup","html-keyboard-response","94","1541772","0.0-5.0-0.5","179","1","2025-04-14 14:33:47","bb671e3ae32f654b8954ea4c4635f915","","Mozilla/5.0 (Macintosh; Intel Mac OS X 10_15_7) AppleWebKit/537.36 (KHTML, like Gecko) Chrome/135.0.0.0 Safari/537.36","Macintosh","Chrome","135.0.0.0","OS X","10_15_7","https://hz8g1ckzuq.cognition.run/","en-GB,en;q=0.8","lnxav3xgpjlyaa0","37","[""White""]","Yes","Male","1748886.5","null","","<p></p>","null","choice","cdt","attraction_2","1","televisions","null","null","null","null","null","null","1","","","","","","","","","",""
"","","","","","choice_trial","survey-html-form","95","1559396","0.0-5.0-1.5","179","1","2025-04-14 14:33:47","bb671e3ae32f654b8954ea4c4635f915","","Mozilla/5.0 (Macintosh; Intel Mac OS X 10_15_7) AppleWebKit/537.36 (KHTML, like Gecko) Chrome/135.0.0.0 Safari/537.36","Macintosh","Chrome","135.0.0.0","OS X","10_15_7","https://hz8g1ckzuq.cognition.run/","en-GB,en;q=0.8","lnxav3xgpjlyaa0","37","[""White""]","Yes","Male","1748886.5","17611","","","{""product_choice"":""C""}","choice","cdt","attraction_2","1","televisions","null","null","null","null","null","null","1","60","50","60","50","60","40","Screen size","Average lifespan","",""
"","","","","","choice_trial_setup","html-keyboard-response","96","1559708","0.0-5.0-0.6","179","1","2025-04-14 14:33:47","bb671e3ae32f654b8954ea4c4635f915","","Mozilla/5.0 (Macintosh; Intel Mac OS X 10_15_7) AppleWebKit/537.36 (KHTML, like Gecko) Chrome/135.0.0.0 Safari/537.36","Macintosh","Chrome","135.0.0.0","OS X","10_15_7","https://hz8g1ckzuq.cognition.run/","en-GB,en;q=0.8","lnxav3xgpjlyaa0","37","[""White""]","Yes","Male","1748886.5","null","","<p></p>","null","choice","dct","repulsion_1","2","washing machines","null","null","null","null","null","null","1","","","","","","","","","",""
"","","","","","choice_trial","survey-html-form","97","1564790","0.0-5.0-1.6","179","1","2025-04-14 14:33:47","bb671e3ae32f654b8954ea4c4635f915","","Mozilla/5.0 (Macintosh; Intel Mac OS X 10_15_7) AppleWebKit/537.36 (KHTML, like Gecko) Chrome/135.0.0.0 Safari/537.36","Macintosh","Chrome","135.0.0.0","OS X","10_15_7","https://hz8g1ckzuq.cognition.run/","en-GB,en;q=0.8","lnxav3xgpjlyaa0","37","[""White""]","Yes","Male","1748886.5","5068","","","{""product_choice"":""B""}","choice","dct","repulsion_1","2","washing machines","null","null","null","null","null","null","1","30","40","25","100","90","100","Average lifespan","Energy savings","",""
"","","","","","choice_trial_setup","html-keyboard-response","98","1565100","0.0-5.0-0.7","179","1","2025-04-14 14:33:47","bb671e3ae32f654b8954ea4c4635f915","","Mozilla/5.0 (Macintosh; Intel Mac OS X 10_15_7) AppleWebKit/537.36 (KHTML, like Gecko) Chrome/135.0.0.0 Safari/537.36","Macintosh","Chrome","135.0.0.0","OS X","10_15_7","https://hz8g1ckzuq.cognition.run/","en-GB,en;q=0.8","lnxav3xgpjlyaa0","37","[""White""]","Yes","Male","1748886.5","null","","<p></p>","null","choice","tcd","repulsion_1","1","laptops","null","null","null","null","null","null","2","","","","","","","","","",""
"","","","","","choice_trial","survey-html-form","99","1585400","0.0-5.0-1.7","179","1","2025-04-14 14:33:47","bb671e3ae32f654b8954ea4c4635f915","","Mozilla/5.0 (Macintosh; Intel Mac OS X 10_15_7) AppleWebKit/537.36 (KHTML, like Gecko) Chrome/135.0.0.0 Safari/537.36","Macintosh","Chrome","135.0.0.0","OS X","10_15_7","https://hz8g1ckzuq.cognition.run/","en-GB,en;q=0.8","lnxav3xgpjlyaa0","37","[""White""]","Yes","Male","1748886.5","20287","","","{""product_choice"":""B""}","choice","tcd","repulsion_1","1","laptops","null","null","null","null","null","null","2","100","90","100","30","40","25","Processing speed","Memory (RAM)","",""
"","","","","","choice_trial_setup","html-keyboard-response","100","1585713","0.0-5.0-0.8","179","1","2025-04-14 14:33:47","bb671e3ae32f654b8954ea4c4635f915","","Mozilla/5.0 (Macintosh; Intel Mac OS X 10_15_7) AppleWebKit/537.36 (KHTML, like Gecko) Chrome/135.0.0.0 Safari/537.36","Macintosh","Chrome","135.0.0.0","OS X","10_15_7","https://hz8g1ckzuq.cognition.run/","en-GB,en;q=0.8","lnxav3xgpjlyaa0","37","[""White""]","Yes","Male","1748886.5","null","","<p></p>","null","choice","cdt","repulsion_2","1","laptops","null","null","null","null","null","null","2","","","","","","","","","",""
"","","","","","choice_trial","survey-html-form","101","1588951","0.0-5.0-1.8","179","1","2025-04-14 14:33:47","bb671e3ae32f654b8954ea4c4635f915","","Mozilla/5.0 (Macintosh; Intel Mac OS X 10_15_7) AppleWebKit/537.36 (KHTML, like Gecko) Chrome/135.0.0.0 Safari/537.36","Macintosh","Chrome","135.0.0.0","OS X","10_15_7","https://hz8g1ckzuq.cognition.run/","en-GB,en;q=0.8","lnxav3xgpjlyaa0","37","[""White""]","Yes","Male","1748886.5","3226","","","{""product_choice"":""A""}","choice","cdt","repulsion_2","1","laptops","null","null","null","null","null","null","2","100","90","100","30","40","20","Processing speed","Memory (RAM)","",""
"","","","","","choice_trial_setup","html-keyboard-response","102","1589264","0.0-5.0-0.9","179","1","2025-04-14 14:33:47","bb671e3ae32f654b8954ea4c4635f915","","Mozilla/5.0 (Macintosh; Intel Mac OS X 10_15_7) AppleWebKit/537.36 (KHTML, like Gecko) Chrome/135.0.0.0 Safari/537.36","Macintosh","Chrome","135.0.0.0","OS X","10_15_7","https://hz8g1ckzuq.cognition.run/","en-GB,en;q=0.8","lnxav3xgpjlyaa0","37","[""White""]","Yes","Male","1748886.5","null","","<p></p>","null","choice","cdt","attraction_2","1","laptops","null","null","null","null","null","null","1","","","","","","","","","",""
"","","","","","choice_trial","survey-html-form","103","1592189","0.0-5.0-1.9","179","1","2025-04-14 14:33:47","bb671e3ae32f654b8954ea4c4635f915","","Mozilla/5.0 (Macintosh; Intel Mac OS X 10_15_7) AppleWebKit/537.36 (KHTML, like Gecko) Chrome/135.0.0.0 Safari/537.36","Macintosh","Chrome","135.0.0.0","OS X","10_15_7","https://hz8g1ckzuq.cognition.run/","en-GB,en;q=0.8","lnxav3xgpjlyaa0","37","[""White""]","Yes","Male","1748886.5","2911","","","{""product_choice"":""C""}","choice","cdt","attraction_2","1","laptops","null","null","null","null","null","null","1","60","50","60","50","60","40","Processing speed","Memory (RAM)","",""
"","","","","","choice_trial_setup","html-keyboard-response","104","1592502","0.0-5.0-0.10","179","1","2025-04-14 14:33:47","bb671e3ae32f654b8954ea4c4635f915","","Mozilla/5.0 (Macintosh; Intel Mac OS X 10_15_7) AppleWebKit/537.36 (KHTML, like Gecko) Chrome/135.0.0.0 Safari/537.36","Macintosh","Chrome","135.0.0.0","OS X","10_15_7","https://hz8g1ckzuq.cognition.run/","en-GB,en;q=0.8","lnxav3xgpjlyaa0","37","[""White""]","Yes","Male","1748886.5","null","","<p></p>","null","choice","wbw","catch","null","microwave ovens","80","95","15","25","10","20","1","","","","","","","","","",""
"","","","","","choice_trial","survey-html-form","105","1595001","0.0-5.0-1.10","179","1","2025-04-14 14:33:47","bb671e3ae32f654b8954ea4c4635f915","","Mozilla/5.0 (Macintosh; Intel Mac OS X 10_15_7) AppleWebKit/537.36 (KHTML, like Gecko) Chrome/135.0.0.0 Safari/537.36","Macintosh","Chrome","135.0.0.0","OS X","10_15_7","https://hz8g1ckzuq.cognition.run/","en-GB,en;q=0.8","lnxav3xgpjlyaa0","37","[""White""]","Yes","Male","1748886.5","2486","","","{""product_choice"":""B""}","choice","wbw","catch","null","microwave ovens","80","95","15","25","10","20","1","null","null","null","null","null","null","Warranty","Cooking power","",""
"","","","","","choice_trial_setup","html-keyboard-response","106","1595313","0.0-5.0-0.11","179","1","2025-04-14 14:33:47","bb671e3ae32f654b8954ea4c4635f915","","Mozilla/5.0 (Macintosh; Intel Mac OS X 10_15_7) AppleWebKit/537.36 (KHTML, like Gecko) Chrome/135.0.0.0 Safari/537.36","Macintosh","Chrome","135.0.0.0","OS X","10_15_7","https://hz8g1ckzuq.cognition.run/","en-GB,en;q=0.8","lnxav3xgpjlyaa0","37","[""White""]","Yes","Male","1748886.5","null","","<p></p>","null","choice","tcd","repulsion_2","2","televisions","null","null","null","null","null","null","1","","","","","","","","","",""
"","","","","","choice_trial","survey-html-form","107","1599728","0.0-5.0-1.11","179","1","2025-04-14 14:33:47","bb671e3ae32f654b8954ea4c4635f915","","Mozilla/5.0 (Macintosh; Intel Mac OS X 10_15_7) AppleWebKit/537.36 (KHTML, like Gecko) Chrome/135.0.0.0 Safari/537.36","Macintosh","Chrome","135.0.0.0","OS X","10_15_7","https://hz8g1ckzuq.cognition.run/","en-GB,en;q=0.8","lnxav3xgpjlyaa0","37","[""White""]","Yes","Male","1748886.5","4403","","","{""product_choice"":""A""}","choice","tcd","repulsion_2","2","televisions","null","null","null","null","null","null","1","30","40","20","100","90","100","Screen size","Average lifespan","",""
"","","","","","choice_trial_setup","html-keyboard-response","108","1600041","0.0-5.0-0.12","179","1","2025-04-14 14:33:47","bb671e3ae32f654b8954ea4c4635f915","","Mozilla/5.0 (Macintosh; Intel Mac OS X 10_15_7) AppleWebKit/537.36 (KHTML, like Gecko) Chrome/135.0.0.0 Safari/537.36","Macintosh","Chrome","135.0.0.0","OS X","10_15_7","https://hz8g1ckzuq.cognition.run/","en-GB,en;q=0.8","lnxav3xgpjlyaa0","37","[""White""]","Yes","Male","1748886.5","null","","<p></p>","null","choice","tdc","attraction_1","1","televisions","null","null","null","null","null","null","2","","","","","","","","","",""
"","","","","","choice_trial","survey-html-form","109","1602638","0.0-5.0-1.12","179","1","2025-04-14 14:33:47","bb671e3ae32f654b8954ea4c4635f915","","Mozilla/5.0 (Macintosh; Intel Mac OS X 10_15_7) AppleWebKit/537.36 (KHTML, like Gecko) Chrome/135.0.0.0 Safari/537.36","Macintosh","Chrome","135.0.0.0","OS X","10_15_7","https://hz8g1ckzuq.cognition.run/","en-GB,en;q=0.8","lnxav3xgpjlyaa0","37","[""White""]","Yes","Male","1748886.5","2582","","","{""product_choice"":""B""}","choice","tdc","attraction_1","1","televisions","null","null","null","null","null","null","2","60","50","60","50","60","45","Screen size","Average lifespan","",""
"","","","","","choice_trial_setup","html-keyboard-response","110","1602949","0.0-5.0-0.13","179","1","2025-04-14 14:33:47","bb671e3ae32f654b8954ea4c4635f915","","Mozilla/5.0 (Macintosh; Intel Mac OS X 10_15_7) AppleWebKit/537.36 (KHTML, like Gecko) Chrome/135.0.0.0 Safari/537.36","Macintosh","Chrome","135.0.0.0","OS X","10_15_7","https://hz8g1ckzuq.cognition.run/","en-GB,en;q=0.8","lnxav3xgpjlyaa0","37","[""White""]","Yes","Male","1748886.5","null","","<p></p>","null","choice","dct","attraction_2","2","televisions","null","null","null","null","null","null","1","","","","","","","","","",""
"","","","","","choice_trial","survey-html-form","111","1605463","0.0-5.0-1.13","179","1","2025-04-14 14:33:47","bb671e3ae32f654b8954ea4c4635f915","","Mozilla/5.0 (Macintosh; Intel Mac OS X 10_15_7) AppleWebKit/537.36 (KHTML, like Gecko) Chrome/135.0.0.0 Safari/537.36","Macintosh","Chrome","135.0.0.0","OS X","10_15_7","https://hz8g1ckzuq.cognition.run/","en-GB,en;q=0.8","lnxav3xgpjlyaa0","37","[""White""]","Yes","Male","1748886.5","2500","","","{""product_choice"":""A""}","choice","dct","attraction_2","2","televisions","null","null","null","null","null","null","1","50","60","40","60","50","60","Screen size","Average lifespan","",""
"","","","","","choice_trial_setup","html-keyboard-response","112","1605776","0.0-5.0-0.14","179","1","2025-04-14 14:33:47","bb671e3ae32f654b8954ea4c4635f915","","Mozilla/5.0 (Macintosh; Intel Mac OS X 10_15_7) AppleWebKit/537.36 (KHTML, like Gecko) Chrome/135.0.0.0 Safari/537.36","Macintosh","Chrome","135.0.0.0","OS X","10_15_7","https://hz8g1ckzuq.cognition.run/","en-GB,en;q=0.8","lnxav3xgpjlyaa0","37","[""White""]","Yes","Male","1748886.5","null","","<p></p>","null","choice","tcd","attraction_1","1","microwave ovens","null","null","null","null","null","null","1","","","","","","","","","",""
"","","","","","choice_trial","survey-html-form","113","1610212","0.0-5.0-1.14","179","1","2025-04-14 14:33:47","bb671e3ae32f654b8954ea4c4635f915","","Mozilla/5.0 (Macintosh; Intel Mac OS X 10_15_7) AppleWebKit/537.36 (KHTML, like Gecko) Chrome/135.0.0.0 Safari/537.36","Macintosh","Chrome","135.0.0.0","OS X","10_15_7","https://hz8g1ckzuq.cognition.run/","en-GB,en;q=0.8","lnxav3xgpjlyaa0","37","[""White""]","Yes","Male","1748886.5","4423","","","{""product_choice"":""C""}","choice","tcd","attraction_1","1","microwave ovens","null","null","null","null","null","null","1","60","50","60","50","60","45","Warranty","Cooking power","",""
"","","","","","choice_trial_setup","html-keyboard-response","114","1610525","0.0-5.0-0.15","179","1","2025-04-14 14:33:47","bb671e3ae32f654b8954ea4c4635f915","","Mozilla/5.0 (Macintosh; Intel Mac OS X 10_15_7) AppleWebKit/537.36 (KHTML, like Gecko) Chrome/135.0.0.0 Safari/537.36","Macintosh","Chrome","135.0.0.0","OS X","10_15_7","https://hz8g1ckzuq.cognition.run/","en-GB,en;q=0.8","lnxav3xgpjlyaa0","37","[""White""]","Yes","Male","1748886.5","null","","<p></p>","null","choice","cdt","repulsion_2","1","televisions","null","null","null","null","null","null","2","","","","","","","","","",""
"","","","","","choice_trial","survey-html-form","115","1617779","0.0-5.0-1.15","179","1","2025-04-14 14:33:47","bb671e3ae32f654b8954ea4c4635f915","","Mozilla/5.0 (Macintosh; Intel Mac OS X 10_15_7) AppleWebKit/537.36 (KHTML, like Gecko) Chrome/135.0.0.0 Safari/537.36","Macintosh","Chrome","135.0.0.0","OS X","10_15_7","https://hz8g1ckzuq.cognition.run/","en-GB,en;q=0.8","lnxav3xgpjlyaa0","37","[""White""]","Yes","Male","1748886.5","7239","","","{""product_choice"":""C""}","choice","cdt","repulsion_2","1","televisions","null","null","null","null","null","null","2","100","90","100","30","40","20","Screen size","Average lifespan","",""
"","","","","","choice_trial_setup","html-keyboard-response","116","1618092","0.0-5.0-0.16","179","1","2025-04-14 14:33:47","bb671e3ae32f654b8954ea4c4635f915","","Mozilla/5.0 (Macintosh; Intel Mac OS X 10_15_7) AppleWebKit/537.36 (KHTML, like Gecko) Chrome/135.0.0.0 Safari/537.36","Macintosh","Chrome","135.0.0.0","OS X","10_15_7","https://hz8g1ckzuq.cognition.run/","en-GB,en;q=0.8","lnxav3xgpjlyaa0","37","[""White""]","Yes","Male","1748886.5","null","","<p></p>","null","choice","wbw","catch","null","laptops","55","75","35","10","5","25","2","","","","","","","","","",""
"","","","","","choice_trial","survey-html-form","117","1621121","0.0-5.0-1.16","179","1","2025-04-14 14:33:47","bb671e3ae32f654b8954ea4c4635f915","","Mozilla/5.0 (Macintosh; Intel Mac OS X 10_15_7) AppleWebKit/537.36 (KHTML, like Gecko) Chrome/135.0.0.0 Safari/537.36","Macintosh","Chrome","135.0.0.0","OS X","10_15_7","https://hz8g1ckzuq.cognition.run/","en-GB,en;q=0.8","lnxav3xgpjlyaa0","37","[""White""]","Yes","Male","1748886.5","3013","","","{""product_choice"":""B""}","choice","wbw","catch","null","laptops","55","75","35","10","5","25","2","null","null","null","null","null","null","Processing speed","Memory (RAM)","",""
"","","","","","choice_trial_setup","html-keyboard-response","118","1621432","0.0-5.0-0.17","179","1","2025-04-14 14:33:47","bb671e3ae32f654b8954ea4c4635f915","","Mozilla/5.0 (Macintosh; Intel Mac OS X 10_15_7) AppleWebKit/537.36 (KHTML, like Gecko) Chrome/135.0.0.0 Safari/537.36","Macintosh","Chrome","135.0.0.0","OS X","10_15_7","https://hz8g1ckzuq.cognition.run/","en-GB,en;q=0.8","lnxav3xgpjlyaa0","37","[""White""]","Yes","Male","1748886.5","null","","<p></p>","null","choice","bww","catch","null","laptops","65","85","20","5","25","40","2","","","","","","","","","",""
"","","","","","choice_trial","survey-html-form","119","1625119","0.0-5.0-1.17","179","1","2025-04-14 14:33:47","bb671e3ae32f654b8954ea4c4635f915","","Mozilla/5.0 (Macintosh; Intel Mac OS X 10_15_7) AppleWebKit/537.36 (KHTML, like Gecko) Chrome/135.0.0.0 Safari/537.36","Macintosh","Chrome","135.0.0.0","OS X","10_15_7","https://hz8g1ckzuq.cognition.run/","en-GB,en;q=0.8","lnxav3xgpjlyaa0","37","[""White""]","Yes","Male","1748886.5","3672","","","{""product_choice"":""A""}","choice","bww","catch","null","laptops","65","85","20","5","25","40","2","null","null","null","null","null","null","Processing speed","Memory (RAM)","",""
"","","","","","choice_trial_setup","html-keyboard-response","120","1625433","0.0-5.0-0.18","179","1","2025-04-14 14:33:47","bb671e3ae32f654b8954ea4c4635f915","","Mozilla/5.0 (Macintosh; Intel Mac OS X 10_15_7) AppleWebKit/537.36 (KHTML, like Gecko) Chrome/135.0.0.0 Safari/537.36","Macintosh","Chrome","135.0.0.0","OS X","10_15_7","https://hz8g1ckzuq.cognition.run/","en-GB,en;q=0.8","lnxav3xgpjlyaa0","37","[""White""]","Yes","Male","1748886.5","null","","<p></p>","null","choice","wwb","catch","null","washing machines","50","95","45","15","15","25","2","","","","","","","","","",""
"","","","","","choice_trial","survey-html-form","121","1628176","0.0-5.0-1.18","179","1","2025-04-14 14:33:47","bb671e3ae32f654b8954ea4c4635f915","","Mozilla/5.0 (Macintosh; Intel Mac OS X 10_15_7) AppleWebKit/537.36 (KHTML, like Gecko) Chrome/135.0.0.0 Safari/537.36","Macintosh","Chrome","135.0.0.0","OS X","10_15_7","https://hz8g1ckzuq.cognition.run/","en-GB,en;q=0.8","lnxav3xgpjlyaa0","37","[""White""]","Yes","Male","1748886.5","2727","","","{""product_choice"":""C""}","choice","wwb","catch","null","washing machines","50","95","45","15","15","25","2","null","null","null","null","null","null","Average lifespan","Energy savings","",""
"","","","","","choice_trial_setup","html-keyboard-response","122","1628486","0.0-5.0-0.19","179","1","2025-04-14 14:33:47","bb671e3ae32f654b8954ea4c4635f915","","Mozilla/5.0 (Macintosh; Intel Mac OS X 10_15_7) AppleWebKit/537.36 (KHTML, like Gecko) Chrome/135.0.0.0 Safari/537.36","Macintosh","Chrome","135.0.0.0","OS X","10_15_7","https://hz8g1ckzuq.cognition.run/","en-GB,en;q=0.8","lnxav3xgpjlyaa0","37","[""White""]","Yes","Male","1748886.5","null","","<p></p>","null","choice","dct","attraction_2","2","microwave ovens","null","null","null","null","null","null","2","","","","","","","","","",""
"","","","","","choice_trial","survey-html-form","123","1631463","0.0-5.0-1.19","179","1","2025-04-14 14:33:47","bb671e3ae32f654b8954ea4c4635f915","","Mozilla/5.0 (Macintosh; Intel Mac OS X 10_15_7) AppleWebKit/537.36 (KHTML, like Gecko) Chrome/135.0.0.0 Safari/537.36","Macintosh","Chrome","135.0.0.0","OS X","10_15_7","https://hz8g1ckzuq.cognition.run/","en-GB,en;q=0.8","lnxav3xgpjlyaa0","37","[""White""]","Yes","Male","1748886.5","2961","","","{""product_choice"":""C""}","choice","dct","attraction_2","2","microwave ovens","null","null","null","null","null","null","2","50","60","40","60","50","60","Warranty","Cooking power","",""
"","","","","","choice_trial_setup","html-keyboard-response","124","1631777","0.0-5.0-0.20","179","1","2025-04-14 14:33:47","bb671e3ae32f654b8954ea4c4635f915","","Mozilla/5.0 (Macintosh; Intel Mac OS X 10_15_7) AppleWebKit/537.36 (KHTML, like Gecko) Chrome/135.0.0.0 Safari/537.36","Macintosh","Chrome","135.0.0.0","OS X","10_15_7","https://hz8g1ckzuq.cognition.run/","en-GB,en;q=0.8","lnxav3xgpjlyaa0","37","[""White""]","Yes","Male","1748886.5","null","","<p></p>","null","choice","dtc","repulsion_1","1","televisions","null","null","null","null","null","null","2","","","","","","","","","",""
"","","","","","choice_trial","survey-html-form","125","1635751","0.0-5.0-1.20","179","1","2025-04-14 14:33:47","bb671e3ae32f654b8954ea4c4635f915","","Mozilla/5.0 (Macintosh; Intel Mac OS X 10_15_7) AppleWebKit/537.36 (KHTML, like Gecko) Chrome/135.0.0.0 Safari/537.36","Macintosh","Chrome","135.0.0.0","OS X","10_15_7","https://hz8g1ckzuq.cognition.run/","en-GB,en;q=0.8","lnxav3xgpjlyaa0","37","[""White""]","Yes","Male","1748886.5","3958","","","{""product_choice"":""B""}","choice","dtc","repulsion_1","1","televisions","null","null","null","null","null","null","2","100","90","100","30","40","25","Screen size","Average lifespan","",""
"","","","","","choice_trial_setup","html-keyboard-response","126","1636064","0.0-5.0-0.21","179","1","2025-04-14 14:33:47","bb671e3ae32f654b8954ea4c4635f915","","Mozilla/5.0 (Macintosh; Intel Mac OS X 10_15_7) AppleWebKit/537.36 (KHTML, like Gecko) Chrome/135.0.0.0 Safari/537.36","Macintosh","Chrome","135.0.0.0","OS X","10_15_7","https://hz8g1ckzuq.cognition.run/","en-GB,en;q=0.8","lnxav3xgpjlyaa0","37","[""White""]","Yes","Male","1748886.5","null","","<p></p>","null","choice","dtc","attraction_1","2","televisions","null","null","null","null","null","null","2","","","","","","","","","",""
"","","","","","choice_trial","survey-html-form","127","1638531","0.0-5.0-1.21","179","1","2025-04-14 14:33:47","bb671e3ae32f654b8954ea4c4635f915","","Mozilla/5.0 (Macintosh; Intel Mac OS X 10_15_7) AppleWebKit/537.36 (KHTML, like Gecko) Chrome/135.0.0.0 Safari/537.36","Macintosh","Chrome","135.0.0.0","OS X","10_15_7","https://hz8g1ckzuq.cognition.run/","en-GB,en;q=0.8","lnxav3xgpjlyaa0","37","[""White""]","Yes","Male","1748886.5","2451","","","{""product_choice"":""C""}","choice","dtc","attraction_1","2","televisions","null","null","null","null","null","null","2","50","60","45","60","50","60","Screen size","Average lifespan","",""
"","","","","","choice_trial_setup","html-keyboard-response","128","1638846","0.0-5.0-0.22","179","1","2025-04-14 14:33:47","bb671e3ae32f654b8954ea4c4635f915","","Mozilla/5.0 (Macintosh; Intel Mac OS X 10_15_7) AppleWebKit/537.36 (KHTML, like Gecko) Chrome/135.0.0.0 Safari/537.36","Macintosh","Chrome","135.0.0.0","OS X","10_15_7","https://hz8g1ckzuq.cognition.run/","en-GB,en;q=0.8","lnxav3xgpjlyaa0","37","[""White""]","Yes","Male","1748886.5","null","","<p></p>","null","choice","cdt","repulsion_1","2","televisions","null","null","null","null","null","null","2","","","","","","","","","",""
"","","","","","choice_trial","survey-html-form","129","1641457","0.0-5.0-1.22","179","1","2025-04-14 14:33:47","bb671e3ae32f654b8954ea4c4635f915","","Mozilla/5.0 (Macintosh; Intel Mac OS X 10_15_7) AppleWebKit/537.36 (KHTML, like Gecko) Chrome/135.0.0.0 Safari/537.36","Macintosh","Chrome","135.0.0.0","OS X","10_15_7","https://hz8g1ckzuq.cognition.run/","en-GB,en;q=0.8","lnxav3xgpjlyaa0","37","[""White""]","Yes","Male","1748886.5","2595","","","{""product_choice"":""C""}","choice","cdt","repulsion_1","2","televisions","null","null","null","null","null","null","2","30","40","25","100","90","100","Screen size","Average lifespan","",""
"","","","","","choice_trial_setup","html-keyboard-response","130","1641771","0.0-5.0-0.23","179","1","2025-04-14 14:33:47","bb671e3ae32f654b8954ea4c4635f915","","Mozilla/5.0 (Macintosh; Intel Mac OS X 10_15_7) AppleWebKit/537.36 (KHTML, like Gecko) Chrome/135.0.0.0 Safari/537.36","Macintosh","Chrome","135.0.0.0","OS X","10_15_7","https://hz8g1ckzuq.cognition.run/","en-GB,en;q=0.8","lnxav3xgpjlyaa0","37","[""White""]","Yes","Male","1748886.5","null","","<p></p>","null","choice","dtc","repulsion_1","2","microwave ovens","null","null","null","null","null","null","1","","","","","","","","","",""
"","","","","","choice_trial","survey-html-form","131","1646476","0.0-5.0-1.23","179","1","2025-04-14 14:33:47","bb671e3ae32f654b8954ea4c4635f915","","Mozilla/5.0 (Macintosh; Intel Mac OS X 10_15_7) AppleWebKit/537.36 (KHTML, like Gecko) Chrome/135.0.0.0 Safari/537.36","Macintosh","Chrome","135.0.0.0","OS X","10_15_7","https://hz8g1ckzuq.cognition.run/","en-GB,en;q=0.8","lnxav3xgpjlyaa0","37","[""White""]","Yes","Male","1748886.5","4689","","","{""product_choice"":""B""}","choice","dtc","repulsion_1","2","microwave ovens","null","null","null","null","null","null","1","30","40","25","100","90","100","Warranty","Cooking power","",""
"","","","","","choice_trial_setup","html-keyboard-response","132","1646791","0.0-5.0-0.24","179","1","2025-04-14 14:33:47","bb671e3ae32f654b8954ea4c4635f915","","Mozilla/5.0 (Macintosh; Intel Mac OS X 10_15_7) AppleWebKit/537.36 (KHTML, like Gecko) Chrome/135.0.0.0 Safari/537.36","Macintosh","Chrome","135.0.0.0","OS X","10_15_7","https://hz8g1ckzuq.cognition.run/","en-GB,en;q=0.8","lnxav3xgpjlyaa0","37","[""White""]","Yes","Male","1748886.5","null","","<p></p>","null","choice","tdc","attraction_2","1","microwave ovens","null","null","null","null","null","null","1","","","","","","","","","",""
"","","","","","choice_trial","survey-html-form","133","1649956","0.0-5.0-1.24","179","1","2025-04-14 14:33:47","bb671e3ae32f654b8954ea4c4635f915","","Mozilla/5.0 (Macintosh; Intel Mac OS X 10_15_7) AppleWebKit/537.36 (KHTML, like Gecko) Chrome/135.0.0.0 Safari/537.36","Macintosh","Chrome","135.0.0.0","OS X","10_15_7","https://hz8g1ckzuq.cognition.run/","en-GB,en;q=0.8","lnxav3xgpjlyaa0","37","[""White""]","Yes","Male","1748886.5","3148","","","{""product_choice"":""C""}","choice","tdc","attraction_2","1","microwave ovens","null","null","null","null","null","null","1","60","50","60","50","60","40","Warranty","Cooking power","",""
"","","","","","choice_trial_setup","html-keyboard-response","134","1650271","0.0-5.0-0.25","179","1","2025-04-14 14:33:47","bb671e3ae32f654b8954ea4c4635f915","","Mozilla/5.0 (Macintosh; Intel Mac OS X 10_15_7) AppleWebKit/537.36 (KHTML, like Gecko) Chrome/135.0.0.0 Safari/537.36","Macintosh","Chrome","135.0.0.0","OS X","10_15_7","https://hz8g1ckzuq.cognition.run/","en-GB,en;q=0.8","lnxav3xgpjlyaa0","37","[""White""]","Yes","Male","1748886.5","null","","<p></p>","null","choice","dtc","repulsion_2","2","washing machines","null","null","null","null","null","null","2","","","","","","","","","",""
"","","","","","choice_trial","survey-html-form","135","1652955","0.0-5.0-1.25","179","1","2025-04-14 14:33:47","bb671e3ae32f654b8954ea4c4635f915","","Mozilla/5.0 (Macintosh; Intel Mac OS X 10_15_7) AppleWebKit/537.36 (KHTML, like Gecko) Chrome/135.0.0.0 Safari/537.36","Macintosh","Chrome","135.0.0.0","OS X","10_15_7","https://hz8g1ckzuq.cognition.run/","en-GB,en;q=0.8","lnxav3xgpjlyaa0","37","[""White""]","Yes","Male","1748886.5","2668","","","{""product_choice"":""B""}","choice","dtc","repulsion_2","2","washing machines","null","null","null","null","null","null","2","30","40","20","100","90","100","Average lifespan","Energy savings","",""
"","","","","","choice_trial_setup","html-keyboard-response","136","1653268","0.0-5.0-0.26","179","1","2025-04-14 14:33:47","bb671e3ae32f654b8954ea4c4635f915","","Mozilla/5.0 (Macintosh; Intel Mac OS X 10_15_7) AppleWebKit/537.36 (KHTML, like Gecko) Chrome/135.0.0.0 Safari/537.36","Macintosh","Chrome","135.0.0.0","OS X","10_15_7","https://hz8g1ckzuq.cognition.run/","en-GB,en;q=0.8","lnxav3xgpjlyaa0","37","[""White""]","Yes","Male","1748886.5","null","","<p></p>","null","choice","cdt","attraction_1","2","washing machines","null","null","null","null","null","null","2","","","","","","","","","",""
"","","","","","choice_trial","survey-html-form","137","1664512","0.0-5.0-1.26","179","1","2025-04-14 14:33:47","bb671e3ae32f654b8954ea4c4635f915","","Mozilla/5.0 (Macintosh; Intel Mac OS X 10_15_7) AppleWebKit/537.36 (KHTML, like Gecko) Chrome/135.0.0.0 Safari/537.36","Macintosh","Chrome","135.0.0.0","OS X","10_15_7","https://hz8g1ckzuq.cognition.run/","en-GB,en;q=0.8","lnxav3xgpjlyaa0","37","[""White""]","Yes","Male","1748886.5","11227","","","{""product_choice"":""B""}","choice","cdt","attraction_1","2","washing machines","null","null","null","null","null","null","2","50","60","45","60","50","60","Average lifespan","Energy savings","",""
"","","","","","choice_trial_setup","html-keyboard-response","138","1664825","0.0-5.0-0.27","179","1","2025-04-14 14:33:47","bb671e3ae32f654b8954ea4c4635f915","","Mozilla/5.0 (Macintosh; Intel Mac OS X 10_15_7) AppleWebKit/537.36 (KHTML, like Gecko) Chrome/135.0.0.0 Safari/537.36","Macintosh","Chrome","135.0.0.0","OS X","10_15_7","https://hz8g1ckzuq.cognition.run/","en-GB,en;q=0.8","lnxav3xgpjlyaa0","37","[""White""]","Yes","Male","1748886.5","null","","<p></p>","null","choice","dtc","repulsion_1","1","washing machines","null","null","null","null","null","null","1","","","","","","","","","",""
"","","","","","choice_trial","survey-html-form","139","1666950","0.0-5.0-1.27","179","1","2025-04-14 14:33:47","bb671e3ae32f654b8954ea4c4635f915","","Mozilla/5.0 (Macintosh; Intel Mac OS X 10_15_7) AppleWebKit/537.36 (KHTML, like Gecko) Chrome/135.0.0.0 Safari/537.36","Macintosh","Chrome","135.0.0.0","OS X","10_15_7","https://hz8g1ckzuq.cognition.run/","en-GB,en;q=0.8","lnxav3xgpjlyaa0","37","[""White""]","Yes","Male","1748886.5","2108","","","{""product_choice"":""B""}","choice","dtc","repulsion_1","1","washing machines","null","null","null","null","null","null","1","100","90","100","30","40","25","Average lifespan","Energy savings","",""
"","","","","","choice_trial_setup","html-keyboard-response","140","1667259","0.0-5.0-0.28","179","1","2025-04-14 14:33:47","bb671e3ae32f654b8954ea4c4635f915","","Mozilla/5.0 (Macintosh; Intel Mac OS X 10_15_7) AppleWebKit/537.36 (KHTML, like Gecko) Chrome/135.0.0.0 Safari/537.36","Macintosh","Chrome","135.0.0.0","OS X","10_15_7","https://hz8g1ckzuq.cognition.run/","en-GB,en;q=0.8","lnxav3xgpjlyaa0","37","[""White""]","Yes","Male","1748886.5","null","","<p></p>","null","choice","tdc","repulsion_1","1","microwave ovens","null","null","null","null","null","null","2","","","","","","","","","",""
"","","","","","choice_trial","survey-html-form","141","1670328","0.0-5.0-1.28","179","1","2025-04-14 14:33:47","bb671e3ae32f654b8954ea4c4635f915","","Mozilla/5.0 (Macintosh; Intel Mac OS X 10_15_7) AppleWebKit/537.36 (KHTML, like Gecko) Chrome/135.0.0.0 Safari/537.36","Macintosh","Chrome","135.0.0.0","OS X","10_15_7","https://hz8g1ckzuq.cognition.run/","en-GB,en;q=0.8","lnxav3xgpjlyaa0","37","[""White""]","Yes","Male","1748886.5","3051","","","{""product_choice"":""A""}","choice","tdc","repulsion_1","1","microwave ovens","null","null","null","null","null","null","2","100","90","100","30","40","25","Warranty","Cooking power","",""
"","","","","","choice_trial_setup","html-keyboard-response","142","1670644","0.0-5.0-0.29","179","1","2025-04-14 14:33:47","bb671e3ae32f654b8954ea4c4635f915","","Mozilla/5.0 (Macintosh; Intel Mac OS X 10_15_7) AppleWebKit/537.36 (KHTML, like Gecko) Chrome/135.0.0.0 Safari/537.36","Macintosh","Chrome","135.0.0.0","OS X","10_15_7","https://hz8g1ckzuq.cognition.run/","en-GB,en;q=0.8","lnxav3xgpjlyaa0","37","[""White""]","Yes","Male","1748886.5","null","","<p></p>","null","choice","dtc","attraction_1","1","washing machines","null","null","null","null","null","null","1","","","","","","","","","",""
"","","","","","choice_trial","survey-html-form","143","1674132","0.0-5.0-1.29","179","1","2025-04-14 14:33:47","bb671e3ae32f654b8954ea4c4635f915","","Mozilla/5.0 (Macintosh; Intel Mac OS X 10_15_7) AppleWebKit/537.36 (KHTML, like Gecko) Chrome/135.0.0.0 Safari/537.36","Macintosh","Chrome","135.0.0.0","OS X","10_15_7","https://hz8g1ckzuq.cognition.run/","en-GB,en;q=0.8","lnxav3xgpjlyaa0","37","[""White""]","Yes","Male","1748886.5","3473","","","{""product_choice"":""B""}","choice","dtc","attraction_1","1","washing machines","null","null","null","null","null","null","1","60","50","60","50","60","45","Average lifespan","Energy savings","",""
"","","","","","choice_trial_setup","html-keyboard-response","144","1674439","0.0-5.0-0.30","179","1","2025-04-14 14:33:47","bb671e3ae32f654b8954ea4c4635f915","","Mozilla/5.0 (Macintosh; Intel Mac OS X 10_15_7) AppleWebKit/537.36 (KHTML, like Gecko) Chrome/135.0.0.0 Safari/537.36","Macintosh","Chrome","135.0.0.0","OS X","10_15_7","https://hz8g1ckzuq.cognition.run/","en-GB,en;q=0.8","lnxav3xgpjlyaa0","37","[""White""]","Yes","Male","1748886.5","null","","<p></p>","null","choice","cdt","repulsion_2","2","microwave ovens","null","null","null","null","null","null","1","","","","","","","","","",""
"","","","","","choice_trial","survey-html-form","145","1677277","0.0-5.0-1.30","179","1","2025-04-14 14:33:47","bb671e3ae32f654b8954ea4c4635f915","","Mozilla/5.0 (Macintosh; Intel Mac OS X 10_15_7) AppleWebKit/537.36 (KHTML, like Gecko) Chrome/135.0.0.0 Safari/537.36","Macintosh","Chrome","135.0.0.0","OS X","10_15_7","https://hz8g1ckzuq.cognition.run/","en-GB,en;q=0.8","lnxav3xgpjlyaa0","37","[""White""]","Yes","Male","1748886.5","2830","","","{""product_choice"":""A""}","choice","cdt","repulsion_2","2","microwave ovens","null","null","null","null","null","null","1","30","40","20","100","90","100","Warranty","Cooking power","",""
"","","","","","choice_trial_setup","html-keyboard-response","146","1677594","0.0-5.0-0.31","179","1","2025-04-14 14:33:47","bb671e3ae32f654b8954ea4c4635f915","","Mozilla/5.0 (Macintosh; Intel Mac OS X 10_15_7) AppleWebKit/537.36 (KHTML, like Gecko) Chrome/135.0.0.0 Safari/537.36","Macintosh","Chrome","135.0.0.0","OS X","10_15_7","https://hz8g1ckzuq.cognition.run/","en-GB,en;q=0.8","lnxav3xgpjlyaa0","37","[""White""]","Yes","Male","1748886.5","null","","<p></p>","null","choice","tcd","attraction_1","2","laptops","null","null","null","null","null","null","2","","","","","","","","","",""
"","","","","","choice_trial","survey-html-form","147","1680366","0.0-5.0-1.31","179","1","2025-04-14 14:33:47","bb671e3ae32f654b8954ea4c4635f915","","Mozilla/5.0 (Macintosh; Intel Mac OS X 10_15_7) AppleWebKit/537.36 (KHTML, like Gecko) Chrome/135.0.0.0 Safari/537.36","Macintosh","Chrome","135.0.0.0","OS X","10_15_7","https://hz8g1ckzuq.cognition.run/","en-GB,en;q=0.8","lnxav3xgpjlyaa0","37","[""White""]","Yes","Male","1748886.5","2756","","","{""product_choice"":""C""}","choice","tcd","attraction_1","2","laptops","null","null","null","null","null","null","2","50","60","45","60","50","60","Processing speed","Memory (RAM)","",""
"","","","","","choice_trial_setup","html-keyboard-response","148","1680683","0.0-5.0-0.32","179","1","2025-04-14 14:33:47","bb671e3ae32f654b8954ea4c4635f915","","Mozilla/5.0 (Macintosh; Intel Mac OS X 10_15_7) AppleWebKit/537.36 (KHTML, like Gecko) Chrome/135.0.0.0 Safari/537.36","Macintosh","Chrome","135.0.0.0","OS X","10_15_7","https://hz8g1ckzuq.cognition.run/","en-GB,en;q=0.8","lnxav3xgpjlyaa0","37","[""White""]","Yes","Male","1748886.5","null","","<p></p>","null","choice","dct","attraction_1","1","laptops","null","null","null","null","null","null","2","","","","","","","","","",""
"","","","","","choice_trial","survey-html-form","149","1683487","0.0-5.0-1.32","179","1","2025-04-14 14:33:47","bb671e3ae32f654b8954ea4c4635f915","","Mozilla/5.0 (Macintosh; Intel Mac OS X 10_15_7) AppleWebKit/537.36 (KHTML, like Gecko) Chrome/135.0.0.0 Safari/537.36","Macintosh","Chrome","135.0.0.0","OS X","10_15_7","https://hz8g1ckzuq.cognition.run/","en-GB,en;q=0.8","lnxav3xgpjlyaa0","37","[""White""]","Yes","Male","1748886.5","2787","","","{""product_choice"":""B""}","choice","dct","attraction_1","1","laptops","null","null","null","null","null","null","2","60","50","60","50","60","45","Processing speed","Memory (RAM)","",""
"","","","","","choice_trial_setup","html-keyboard-response","150","1683801","0.0-5.0-0.33","179","1","2025-04-14 14:33:47","bb671e3ae32f654b8954ea4c4635f915","","Mozilla/5.0 (Macintosh; Intel Mac OS X 10_15_7) AppleWebKit/537.36 (KHTML, like Gecko) Chrome/135.0.0.0 Safari/537.36","Macintosh","Chrome","135.0.0.0","OS X","10_15_7","https://hz8g1ckzuq.cognition.run/","en-GB,en;q=0.8","lnxav3xgpjlyaa0","37","[""White""]","Yes","Male","1748886.5","null","","<p></p>","null","choice","tdc","repulsion_2","2","laptops","null","null","null","null","null","null","1","","","","","","","","","",""
"","","","","","choice_trial","survey-html-form","151","1686367","0.0-5.0-1.33","179","1","2025-04-14 14:33:47","bb671e3ae32f654b8954ea4c4635f915","","Mozilla/5.0 (Macintosh; Intel Mac OS X 10_15_7) AppleWebKit/537.36 (KHTML, like Gecko) Chrome/135.0.0.0 Safari/537.36","Macintosh","Chrome","135.0.0.0","OS X","10_15_7","https://hz8g1ckzuq.cognition.run/","en-GB,en;q=0.8","lnxav3xgpjlyaa0","37","[""White""]","Yes","Male","1748886.5","2551","","","{""product_choice"":""A""}","choice","tdc","repulsion_2","2","laptops","null","null","null","null","null","null","1","30","40","20","100","90","100","Processing speed","Memory (RAM)","",""
"","","","","","choice_trial_setup","html-keyboard-response","152","1686683","0.0-5.0-0.34","179","1","2025-04-14 14:33:47","bb671e3ae32f654b8954ea4c4635f915","","Mozilla/5.0 (Macintosh; Intel Mac OS X 10_15_7) AppleWebKit/537.36 (KHTML, like Gecko) Chrome/135.0.0.0 Safari/537.36","Macintosh","Chrome","135.0.0.0","OS X","10_15_7","https://hz8g1ckzuq.cognition.run/","en-GB,en;q=0.8","lnxav3xgpjlyaa0","37","[""White""]","Yes","Male","1748886.5","null","","<p></p>","null","choice","ctd","attraction_2","2","laptops","null","null","null","null","null","null","2","","","","","","","","","",""
"","","","","","choice_trial","survey-html-form","153","1689399","0.0-5.0-1.34","179","1","2025-04-14 14:33:47","bb671e3ae32f654b8954ea4c4635f915","","Mozilla/5.0 (Macintosh; Intel Mac OS X 10_15_7) AppleWebKit/537.36 (KHTML, like Gecko) Chrome/135.0.0.0 Safari/537.36","Macintosh","Chrome","135.0.0.0","OS X","10_15_7","https://hz8g1ckzuq.cognition.run/","en-GB,en;q=0.8","lnxav3xgpjlyaa0","37","[""White""]","Yes","Male","1748886.5","2698","","","{""product_choice"":""B""}","choice","ctd","attraction_2","2","laptops","null","null","null","null","null","null","2","50","60","40","60","50","60","Processing speed","Memory (RAM)","",""
"","","","","","choice_trial_setup","html-keyboard-response","154","1689714","0.0-5.0-0.35","179","1","2025-04-14 14:33:47","bb671e3ae32f654b8954ea4c4635f915","","Mozilla/5.0 (Macintosh; Intel Mac OS X 10_15_7) AppleWebKit/537.36 (KHTML, like Gecko) Chrome/135.0.0.0 Safari/537.36","Macintosh","Chrome","135.0.0.0","OS X","10_15_7","https://hz8g1ckzuq.cognition.run/","en-GB,en;q=0.8","lnxav3xgpjlyaa0","37","[""White""]","Yes","Male","1748886.5","null","","<p></p>","null","choice","bww","catch","null","televisions","60","50","20","35","25","15","2","","","","","","","","","",""
"","","","","","choice_trial","survey-html-form","155","1692160","0.0-5.0-1.35","179","1","2025-04-14 14:33:47","bb671e3ae32f654b8954ea4c4635f915","","Mozilla/5.0 (Macintosh; Intel Mac OS X 10_15_7) AppleWebKit/537.36 (KHTML, like Gecko) Chrome/135.0.0.0 Safari/537.36","Macintosh","Chrome","135.0.0.0","OS X","10_15_7","https://hz8g1ckzuq.cognition.run/","en-GB,en;q=0.8","lnxav3xgpjlyaa0","37","[""White""]","Yes","Male","1748886.5","2427","","","{""product_choice"":""A""}","choice","bww","catch","null","televisions","60","50","20","35","25","15","2","null","null","null","null","null","null","Screen size","Average lifespan","",""
"","","","","","choice_trial_setup","html-keyboard-response","156","1692478","0.0-5.0-0.36","179","1","2025-04-14 14:33:47","bb671e3ae32f654b8954ea4c4635f915","","Mozilla/5.0 (Macintosh; Intel Mac OS X 10_15_7) AppleWebKit/537.36 (KHTML, like Gecko) Chrome/135.0.0.0 Safari/537.36","Macintosh","Chrome","135.0.0.0","OS X","10_15_7","https://hz8g1ckzuq.cognition.run/","en-GB,en;q=0.8","lnxav3xgpjlyaa0","37","[""White""]","Yes","Male","1748886.5","null","","<p></p>","null","choice","wwb","catch","null","washing machines","75","60","35","20","50","45","2","","","","","","","","","",""
"","","","","","choice_trial","survey-html-form","157","1695030","0.0-5.0-1.36","179","1","2025-04-14 14:33:47","bb671e3ae32f654b8954ea4c4635f915","","Mozilla/5.0 (Macintosh; Intel Mac OS X 10_15_7) AppleWebKit/537.36 (KHTML, like Gecko) Chrome/135.0.0.0 Safari/537.36","Macintosh","Chrome","135.0.0.0","OS X","10_15_7","https://hz8g1ckzuq.cognition.run/","en-GB,en;q=0.8","lnxav3xgpjlyaa0","37","[""White""]","Yes","Male","1748886.5","2533","","","{""product_choice"":""C""}","choice","wwb","catch","null","washing machines","75","60","35","20","50","45","2","null","null","null","null","null","null","Average lifespan","Energy savings","",""
