"success","timeout","failed_images","failed_audio","failed_video","screen_id","trial_type","trial_index","time_elapsed","internal_node_id","run_id","condition","recorded_at","source_code_version","ip","user_agent","device","browser","browser_version","platform","platform_version","referer","accept_language","ppt_id","age","race","ethnicity","gender","exp_duration","rt","view_history","stimulus","response","phase","order","effect","t_high","category","d1_best","d2_best","d1_worst1","d2_worst1","d1_worst2","d2_worst2","first_dim","d1_t","d1_c","d1_d","d2_t","d2_c","d2_d","d1_name","d2_name","strategy_response","question_order"
"true","false","[]","[]","[]","img preload","preload","0","4392","0.0-0.0","181","1","2025-04-14 14:36:20","bb671e3ae32f654b8954ea4c4635f915","","Mozilla/5.0 (Windows NT 10.0; Win64; x64) AppleWebKit/537.36 (KHTML, like Gecko) Chrome/134.0.0.0 Safari/537.36","WebKit","Chrome","134.0.0.0","Windows","10.0","https://hz8g1ckzuq.cognition.run/","en-US,en;q=0.9","r9rh9xeu4uehfzf","34","[""Black or African-American""]","No","Female","3267360.200000003","","","","","","","","","","","","","","","","","","","","","","","","","",""
"true","","","","","","fullscreen","1","118652","0.0-1.0","181","1","2025-04-14 14:36:20","bb671e3ae32f654b8954ea4c4635f915","","Mozilla/5.0 (Windows NT 10.0; Win64; x64) AppleWebKit/537.36 (KHTML, like Gecko) Chrome/134.0.0.0 Safari/537.36","WebKit","Chrome","134.0.0.0","Windows","10.0","https://hz8g1ckzuq.cognition.run/","en-US,en;q=0.9","r9rh9xeu4uehfzf","34","[""Black or African-American""]","No","Female","3267360.200000003","113240","","","","","","","","","","","","","","","","","","","","","","","","",""
"","","","","","","instructions","2","223117","0.0-2.0","181","1","2025-04-14 14:36:20","bb671e3ae32f654b8954ea4c4635f915","","Mozilla/5.0 (Windows NT 10.0; Win64; x64) AppleWebKit/537.36 (KHTML, like Gecko) Chrome/134.0.0.0 Safari/537.36","WebKit","Chrome","134.0.0.0","Windows","10.0","https://hz8g1ckzuq.cognition.run/","en-US,en;q=0.9","r9rh9xeu4uehfzf","34","[""Black or African-American""]","No","Female","3267360.200000003","104462","[{""page_index"":0,""viewing_time"":2915},{""page_index"":1,""viewing_time"":4838},{""page_index"":2,""viewing_time"":1432},{""page_index"":3,""viewing_time"":4410},{""page_index"":4,""viewing_time"":10924},{""page_index"":5,""viewing_time"":7504},{""page_index"":6,""viewing_time"":10940},{""page_index"":7,""viewing_time"":24355},{""page_index"":8,""viewing_time"":29298},{""page_index"":9,""viewing_time"":7845}]","","","","","","","","","","","","","","","","","","","","","","","",""
"","","","","","rating_trial_setup","html-keyboard-response","3","223433","0.0-3.0-0.0","181","1","2025-04-14 14:36:20","bb671e3ae32f654b8954ea4c4635f915","","Mozilla/5.0 (Windows NT 10.0; Win64; x64) AppleWebKit/537.36 (KHTML, like Gecko) Chrome/134.0.0.0 Safari/537.36","WebKit","Chrome","134.0.0.0","Windows","10.0","https://hz8g1ckzuq.cognition.run/","en-US,en;q=0.9","r9rh9xeu4uehfzf","34","[""Black or African-American""]","No","Female","3267360.200000003","null","","<p></p>","null","rating","tcd","repulsion_1","1","televisions","null","null","null","null","null","null","2","","","","","","","","","",""
"","","","","","rating_trial","survey-html-form","4","269928","0.0-3.0-1.0","181","1","2025-04-14 14:36:20","bb671e3ae32f654b8954ea4c4635f915","","Mozilla/5.0 (Windows NT 10.0; Win64; x64) AppleWebKit/537.36 (KHTML, like Gecko) Chrome/134.0.0.0 Safari/537.36","WebKit","Chrome","134.0.0.0","Windows","10.0","https://hz8g1ckzuq.cognition.run/","en-US,en;q=0.9","r9rh9xeu4uehfzf","34","[""Black or African-American""]","No","Female","3267360.200000003","46486","","","{""price_1"":""400"",""price_2"":""450"",""price_3"":""350""}","rating","tcd","repulsion_1","1","televisions","null","null","null","null","null","null","2","100","90","100","30","40","25","Screen size","Average lifespan","",""
"","","","","","rating_trial_setup","html-keyboard-response","5","270233","0.0-3.0-0.1","181","1","2025-04-14 14:36:20","bb671e3ae32f654b8954ea4c4635f915","","Mozilla/5.0 (Windows NT 10.0; Win64; x64) AppleWebKit/537.36 (KHTML, like Gecko) Chrome/134.0.0.0 Safari/537.36","WebKit","Chrome","134.0.0.0","Windows","10.0","https://hz8g1ckzuq.cognition.run/","en-US,en;q=0.9","r9rh9xeu4uehfzf","34","[""Black or African-American""]","No","Female","3267360.200000003","null","","<p></p>","null","rating","cdt","repulsion_2","1","washing machines","null","null","null","null","null","null","2","","","","","","","","","",""
"","","","","","rating_trial","survey-html-form","6","297490","0.0-3.0-1.1","181","1","2025-04-14 14:36:20","bb671e3ae32f654b8954ea4c4635f915","","Mozilla/5.0 (Windows NT 10.0; Win64; x64) AppleWebKit/537.36 (KHTML, like Gecko) Chrome/134.0.0.0 Safari/537.36","WebKit","Chrome","134.0.0.0","Windows","10.0","https://hz8g1ckzuq.cognition.run/","en-US,en;q=0.9","r9rh9xeu4uehfzf","34","[""Black or African-American""]","No","Female","3267360.200000003","27250","","","{""price_1"":""600"",""price_2"":""500"",""price_3"":""550""}","rating","cdt","repulsion_2","1","washing machines","null","null","null","null","null","null","2","100","90","100","30","40","20","Average lifespan","Energy savings","",""
"","","","","","rating_trial_setup","html-keyboard-response","7","297795","0.0-3.0-0.2","181","1","2025-04-14 14:36:20","bb671e3ae32f654b8954ea4c4635f915","","Mozilla/5.0 (Windows NT 10.0; Win64; x64) AppleWebKit/537.36 (KHTML, like Gecko) Chrome/134.0.0.0 Safari/537.36","WebKit","Chrome","134.0.0.0","Windows","10.0","https://hz8g1ckzuq.cognition.run/","en-US,en;q=0.9","r9rh9xeu4uehfzf","34","[""Black or African-American""]","No","Female","3267360.200000003","null","","<p></p>","null","rating","wwb","catch","null","microwave ovens","60","95","10","30","35","20","2","","","","","","","","","",""
"","","","","","rating_trial","survey-html-form","8","329134","0.0-3.0-1.2","181","1","2025-04-14 14:36:20","bb671e3ae32f654b8954ea4c4635f915","","Mozilla/5.0 (Windows NT 10.0; Win64; x64) AppleWebKit/537.36 (KHTML, like Gecko) Chrome/134.0.0.0 Safari/537.36","WebKit","Chrome","134.0.0.0","Windows","10.0","https://hz8g1ckzuq.cognition.run/","en-US,en;q=0.9","r9rh9xeu4uehfzf","34","[""Black or African-American""]","No","Female","3267360.200000003","31334","","","{""price_1"":""30"",""price_2"":""50"",""price_3"":""70""}","rating","wwb","catch","null","microwave ovens","60","95","10","30","35","20","2","null","null","null","null","null","null","Warranty","Cooking power","",""
"","","","","","rating_trial_setup","html-keyboard-response","9","329441","0.0-3.0-0.3","181","1","2025-04-14 14:36:20","bb671e3ae32f654b8954ea4c4635f915","","Mozilla/5.0 (Windows NT 10.0; Win64; x64) AppleWebKit/537.36 (KHTML, like Gecko) Chrome/134.0.0.0 Safari/537.36","WebKit","Chrome","134.0.0.0","Windows","10.0","https://hz8g1ckzuq.cognition.run/","en-US,en;q=0.9","r9rh9xeu4uehfzf","34","[""Black or African-American""]","No","Female","3267360.200000003","null","","<p></p>","null","rating","tdc","repulsion_1","2","televisions","null","null","null","null","null","null","2","","","","","","","","","",""
"","","","","","rating_trial","survey-html-form","10","367705","0.0-3.0-1.3","181","1","2025-04-14 14:36:20","bb671e3ae32f654b8954ea4c4635f915","","Mozilla/5.0 (Windows NT 10.0; Win64; x64) AppleWebKit/537.36 (KHTML, like Gecko) Chrome/134.0.0.0 Safari/537.36","WebKit","Chrome","134.0.0.0","Windows","10.0","https://hz8g1ckzuq.cognition.run/","en-US,en;q=0.9","r9rh9xeu4uehfzf","34","[""Black or African-American""]","No","Female","3267360.200000003","38259","","","{""price_1"":""400"",""price_2"":""350"",""price_3"":""450""}","rating","tdc","repulsion_1","2","televisions","null","null","null","null","null","null","2","30","40","25","100","90","100","Screen size","Average lifespan","",""
"","","","","","rating_trial_setup","html-keyboard-response","11","368008","0.0-3.0-0.4","181","1","2025-04-14 14:36:20","bb671e3ae32f654b8954ea4c4635f915","","Mozilla/5.0 (Windows NT 10.0; Win64; x64) AppleWebKit/537.36 (KHTML, like Gecko) Chrome/134.0.0.0 Safari/537.36","WebKit","Chrome","134.0.0.0","Windows","10.0","https://hz8g1ckzuq.cognition.run/","en-US,en;q=0.9","r9rh9xeu4uehfzf","34","[""Black or African-American""]","No","Female","3267360.200000003","null","","<p></p>","null","rating","ctd","repulsion_2","2","washing machines","null","null","null","null","null","null","2","","","","","","","","","",""
"","","","","","rating_trial","survey-html-form","12","397086","0.0-3.0-1.4","181","1","2025-04-14 14:36:20","bb671e3ae32f654b8954ea4c4635f915","","Mozilla/5.0 (Windows NT 10.0; Win64; x64) AppleWebKit/537.36 (KHTML, like Gecko) Chrome/134.0.0.0 Safari/537.36","WebKit","Chrome","134.0.0.0","Windows","10.0","https://hz8g1ckzuq.cognition.run/","en-US,en;q=0.9","r9rh9xeu4uehfzf","34","[""Black or African-American""]","No","Female","3267360.200000003","29072","","","{""price_1"":""500"",""price_2"":""450"",""price_3"":""350""}","rating","ctd","repulsion_2","2","washing machines","null","null","null","null","null","null","2","30","40","20","100","90","100","Average lifespan","Energy savings","",""
"","","","","","rating_trial_setup","html-keyboard-response","13","397394","0.0-3.0-0.5","181","1","2025-04-14 14:36:20","bb671e3ae32f654b8954ea4c4635f915","","Mozilla/5.0 (Windows NT 10.0; Win64; x64) AppleWebKit/537.36 (KHTML, like Gecko) Chrome/134.0.0.0 Safari/537.36","WebKit","Chrome","134.0.0.0","Windows","10.0","https://hz8g1ckzuq.cognition.run/","en-US,en;q=0.9","r9rh9xeu4uehfzf","34","[""Black or African-American""]","No","Female","3267360.200000003","null","","<p></p>","null","rating","ctd","attraction_1","2","laptops","null","null","null","null","null","null","1","","","","","","","","","",""
"","","","","","rating_trial","survey-html-form","14","427935","0.0-3.0-1.5","181","1","2025-04-14 14:36:20","bb671e3ae32f654b8954ea4c4635f915","","Mozilla/5.0 (Windows NT 10.0; Win64; x64) AppleWebKit/537.36 (KHTML, like Gecko) Chrome/134.0.0.0 Safari/537.36","WebKit","Chrome","134.0.0.0","Windows","10.0","https://hz8g1ckzuq.cognition.run/","en-US,en;q=0.9","r9rh9xeu4uehfzf","34","[""Black or African-American""]","No","Female","3267360.200000003","30535","","","{""price_1"":""200"",""price_2"":""220"",""price_3"":""250""}","rating","ctd","attraction_1","2","laptops","null","null","null","null","null","null","1","50","60","45","60","50","60","Processing speed","Memory (RAM)","",""
"","","","","","rating_trial_setup","html-keyboard-response","15","428241","0.0-3.0-0.6","181","1","2025-04-14 14:36:20","bb671e3ae32f654b8954ea4c4635f915","","Mozilla/5.0 (Windows NT 10.0; Win64; x64) AppleWebKit/537.36 (KHTML, like Gecko) Chrome/134.0.0.0 Safari/537.36","WebKit","Chrome","134.0.0.0","Windows","10.0","https://hz8g1ckzuq.cognition.run/","en-US,en;q=0.9","r9rh9xeu4uehfzf","34","[""Black or African-American""]","No","Female","3267360.200000003","null","","<p></p>","null","rating","dtc","attraction_2","1","televisions","null","null","null","null","null","null","1","","","","","","","","","",""
"","","","","","rating_trial","survey-html-form","16","456753","0.0-3.0-1.6","181","1","2025-04-14 14:36:20","bb671e3ae32f654b8954ea4c4635f915","","Mozilla/5.0 (Windows NT 10.0; Win64; x64) AppleWebKit/537.36 (KHTML, like Gecko) Chrome/134.0.0.0 Safari/537.36","WebKit","Chrome","134.0.0.0","Windows","10.0","https://hz8g1ckzuq.cognition.run/","en-US,en;q=0.9","r9rh9xeu4uehfzf","34","[""Black or African-American""]","No","Female","3267360.200000003","28505","","","{""price_1"":""200"",""price_2"":""300"",""price_3"":""350""}","rating","dtc","attraction_2","1","televisions","null","null","null","null","null","null","1","60","50","60","50","60","40","Screen size","Average lifespan","",""
"","","","","","rating_trial_setup","html-keyboard-response","17","457059","0.0-3.0-0.7","181","1","2025-04-14 14:36:20","bb671e3ae32f654b8954ea4c4635f915","","Mozilla/5.0 (Windows NT 10.0; Win64; x64) AppleWebKit/537.36 (KHTML, like Gecko) Chrome/134.0.0.0 Safari/537.36","WebKit","Chrome","134.0.0.0","Windows","10.0","https://hz8g1ckzuq.cognition.run/","en-US,en;q=0.9","r9rh9xeu4uehfzf","34","[""Black or African-American""]","No","Female","3267360.200000003","null","","<p></p>","null","rating","ctd","attraction_1","1","washing machines","null","null","null","null","null","null","1","","","","","","","","","",""
"","","","","","rating_trial","survey-html-form","18","510564","0.0-3.0-1.7","181","1","2025-04-14 14:36:20","bb671e3ae32f654b8954ea4c4635f915","","Mozilla/5.0 (Windows NT 10.0; Win64; x64) AppleWebKit/537.36 (KHTML, like Gecko) Chrome/134.0.0.0 Safari/537.36","WebKit","Chrome","134.0.0.0","Windows","10.0","https://hz8g1ckzuq.cognition.run/","en-US,en;q=0.9","r9rh9xeu4uehfzf","34","[""Black or African-American""]","No","Female","3267360.200000003","53496","","","{""price_1"":""500"",""price_2"":""450"",""price_3"":""400""}","rating","ctd","attraction_1","1","washing machines","null","null","null","null","null","null","1","60","50","60","50","60","45","Average lifespan","Energy savings","",""
"","","","","","rating_trial_setup","html-keyboard-response","19","510869","0.0-3.0-0.8","181","1","2025-04-14 14:36:20","bb671e3ae32f654b8954ea4c4635f915","","Mozilla/5.0 (Windows NT 10.0; Win64; x64) AppleWebKit/537.36 (KHTML, like Gecko) Chrome/134.0.0.0 Safari/537.36","WebKit","Chrome","134.0.0.0","Windows","10.0","https://hz8g1ckzuq.cognition.run/","en-US,en;q=0.9","r9rh9xeu4uehfzf","34","[""Black or African-American""]","No","Female","3267360.200000003","null","","<p></p>","null","rating","wwb","catch","null","microwave ovens","85","90","25","5","20","25","2","","","","","","","","","",""
"","","","","","rating_trial","survey-html-form","20","532928","0.0-3.0-1.8","181","1","2025-04-14 14:36:20","bb671e3ae32f654b8954ea4c4635f915","","Mozilla/5.0 (Windows NT 10.0; Win64; x64) AppleWebKit/537.36 (KHTML, like Gecko) Chrome/134.0.0.0 Safari/537.36","WebKit","Chrome","134.0.0.0","Windows","10.0","https://hz8g1ckzuq.cognition.run/","en-US,en;q=0.9","r9rh9xeu4uehfzf","34","[""Black or African-American""]","No","Female","3267360.200000003","22050","","","{""price_1"":""30"",""price_2"":""100"",""price_3"":""170""}","rating","wwb","catch","null","microwave ovens","85","90","25","5","20","25","2","null","null","null","null","null","null","Warranty","Cooking power","",""
"","","","","","rating_trial_setup","html-keyboard-response","21","533235","0.0-3.0-0.9","181","1","2025-04-14 14:36:20","bb671e3ae32f654b8954ea4c4635f915","","Mozilla/5.0 (Windows NT 10.0; Win64; x64) AppleWebKit/537.36 (KHTML, like Gecko) Chrome/134.0.0.0 Safari/537.36","WebKit","Chrome","134.0.0.0","Windows","10.0","https://hz8g1ckzuq.cognition.run/","en-US,en;q=0.9","r9rh9xeu4uehfzf","34","[""Black or African-American""]","No","Female","3267360.200000003","null","","<p></p>","null","rating","cdt","repulsion_2","1","televisions","null","null","null","null","null","null","1","","","","","","","","","",""
"","","","","","rating_trial","survey-html-form","22","550253","0.0-3.0-1.9","181","1","2025-04-14 14:36:20","bb671e3ae32f654b8954ea4c4635f915","","Mozilla/5.0 (Windows NT 10.0; Win64; x64) AppleWebKit/537.36 (KHTML, like Gecko) Chrome/134.0.0.0 Safari/537.36","WebKit","Chrome","134.0.0.0","Windows","10.0","https://hz8g1ckzuq.cognition.run/","en-US,en;q=0.9","r9rh9xeu4uehfzf","34","[""Black or African-American""]","No","Female","3267360.200000003","17010","","","{""price_1"":""400"",""price_2"":""300"",""price_3"":""250""}","rating","cdt","repulsion_2","1","televisions","null","null","null","null","null","null","1","100","90","100","30","40","20","Screen size","Average lifespan","",""
"","","","","","rating_trial_setup","html-keyboard-response","23","550561","0.0-3.0-0.10","181","1","2025-04-14 14:36:20","bb671e3ae32f654b8954ea4c4635f915","","Mozilla/5.0 (Windows NT 10.0; Win64; x64) AppleWebKit/537.36 (KHTML, like Gecko) Chrome/134.0.0.0 Safari/537.36","WebKit","Chrome","134.0.0.0","Windows","10.0","https://hz8g1ckzuq.cognition.run/","en-US,en;q=0.9","r9rh9xeu4uehfzf","34","[""Black or African-American""]","No","Female","3267360.200000003","null","","<p></p>","null","rating","tcd","attraction_2","2","washing machines","null","null","null","null","null","null","2","","","","","","","","","",""
"","","","","","rating_trial","survey-html-form","24","576336","0.0-3.0-1.10","181","1","2025-04-14 14:36:20","bb671e3ae32f654b8954ea4c4635f915","","Mozilla/5.0 (Windows NT 10.0; Win64; x64) AppleWebKit/537.36 (KHTML, like Gecko) Chrome/134.0.0.0 Safari/537.36","WebKit","Chrome","134.0.0.0","Windows","10.0","https://hz8g1ckzuq.cognition.run/","en-US,en;q=0.9","r9rh9xeu4uehfzf","34","[""Black or African-American""]","No","Female","3267360.200000003","25769","","","{""price_1"":""400"",""price_2"":""450"",""price_3"":""300""}","rating","tcd","attraction_2","2","washing machines","null","null","null","null","null","null","2","50","60","40","60","50","60","Average lifespan","Energy savings","",""
"","","","","","rating_trial_setup","html-keyboard-response","25","576644","0.0-3.0-0.11","181","1","2025-04-14 14:36:20","bb671e3ae32f654b8954ea4c4635f915","","Mozilla/5.0 (Windows NT 10.0; Win64; x64) AppleWebKit/537.36 (KHTML, like Gecko) Chrome/134.0.0.0 Safari/537.36","WebKit","Chrome","134.0.0.0","Windows","10.0","https://hz8g1ckzuq.cognition.run/","en-US,en;q=0.9","r9rh9xeu4uehfzf","34","[""Black or African-American""]","No","Female","3267360.200000003","null","","<p></p>","null","rating","dtc","attraction_1","2","washing machines","null","null","null","null","null","null","2","","","","","","","","","",""
"","","","","","rating_trial","survey-html-form","26","594624","0.0-3.0-1.11","181","1","2025-04-14 14:36:20","bb671e3ae32f654b8954ea4c4635f915","","Mozilla/5.0 (Windows NT 10.0; Win64; x64) AppleWebKit/537.36 (KHTML, like Gecko) Chrome/134.0.0.0 Safari/537.36","WebKit","Chrome","134.0.0.0","Windows","10.0","https://hz8g1ckzuq.cognition.run/","en-US,en;q=0.9","r9rh9xeu4uehfzf","34","[""Black or African-American""]","No","Female","3267360.200000003","17974","","","{""price_1"":""700"",""price_2"":""600"",""price_3"":""500""}","rating","dtc","attraction_1","2","washing machines","null","null","null","null","null","null","2","50","60","45","60","50","60","Average lifespan","Energy savings","",""
"","","","","","rating_trial_setup","html-keyboard-response","27","594933","0.0-3.0-0.12","181","1","2025-04-14 14:36:20","bb671e3ae32f654b8954ea4c4635f915","","Mozilla/5.0 (Windows NT 10.0; Win64; x64) AppleWebKit/537.36 (KHTML, like Gecko) Chrome/134.0.0.0 Safari/537.36","WebKit","Chrome","134.0.0.0","Windows","10.0","https://hz8g1ckzuq.cognition.run/","en-US,en;q=0.9","r9rh9xeu4uehfzf","34","[""Black or African-American""]","No","Female","3267360.200000003","null","","<p></p>","null","rating","wwb","catch","null","laptops","65","60","20","45","50","45","1","","","","","","","","","",""
"","","","","","rating_trial","survey-html-form","28","619065","0.0-3.0-1.12","181","1","2025-04-14 14:36:20","bb671e3ae32f654b8954ea4c4635f915","","Mozilla/5.0 (Windows NT 10.0; Win64; x64) AppleWebKit/537.36 (KHTML, like Gecko) Chrome/134.0.0.0 Safari/537.36","WebKit","Chrome","134.0.0.0","Windows","10.0","https://hz8g1ckzuq.cognition.run/","en-US,en;q=0.9","r9rh9xeu4uehfzf","34","[""Black or African-American""]","No","Female","3267360.200000003","24126","","","{""price_1"":""200"",""price_2"":""300"",""price_3"":""400""}","rating","wwb","catch","null","laptops","65","60","20","45","50","45","1","null","null","null","null","null","null","Processing speed","Memory (RAM)","",""
"","","","","","rating_trial_setup","html-keyboard-response","29","619372","0.0-3.0-0.13","181","1","2025-04-14 14:36:20","bb671e3ae32f654b8954ea4c4635f915","","Mozilla/5.0 (Windows NT 10.0; Win64; x64) AppleWebKit/537.36 (KHTML, like Gecko) Chrome/134.0.0.0 Safari/537.36","WebKit","Chrome","134.0.0.0","Windows","10.0","https://hz8g1ckzuq.cognition.run/","en-US,en;q=0.9","r9rh9xeu4uehfzf","34","[""Black or African-American""]","No","Female","3267360.200000003","null","","<p></p>","null","rating","tcd","repulsion_2","1","laptops","null","null","null","null","null","null","1","","","","","","","","","",""
"","","","","","rating_trial","survey-html-form","30","638081","0.0-3.0-1.13","181","1","2025-04-14 14:36:20","bb671e3ae32f654b8954ea4c4635f915","","Mozilla/5.0 (Windows NT 10.0; Win64; x64) AppleWebKit/537.36 (KHTML, like Gecko) Chrome/134.0.0.0 Safari/537.36","WebKit","Chrome","134.0.0.0","Windows","10.0","https://hz8g1ckzuq.cognition.run/","en-US,en;q=0.9","r9rh9xeu4uehfzf","34","[""Black or African-American""]","No","Female","3267360.200000003","18700","","","{""price_1"":""350"",""price_2"":""350"",""price_3"":""300""}","rating","tcd","repulsion_2","1","laptops","null","null","null","null","null","null","1","100","90","100","30","40","20","Processing speed","Memory (RAM)","",""
"","","","","","rating_trial_setup","html-keyboard-response","31","638387","0.0-3.0-0.14","181","1","2025-04-14 14:36:20","bb671e3ae32f654b8954ea4c4635f915","","Mozilla/5.0 (Windows NT 10.0; Win64; x64) AppleWebKit/537.36 (KHTML, like Gecko) Chrome/134.0.0.0 Safari/537.36","WebKit","Chrome","134.0.0.0","Windows","10.0","https://hz8g1ckzuq.cognition.run/","en-US,en;q=0.9","r9rh9xeu4uehfzf","34","[""Black or African-American""]","No","Female","3267360.200000003","null","","<p></p>","null","rating","wbw","catch","null","televisions","80","65","45","35","35","50","1","","","","","","","","","",""
"","","","","","rating_trial","survey-html-form","32","656124","0.0-3.0-1.14","181","1","2025-04-14 14:36:20","bb671e3ae32f654b8954ea4c4635f915","","Mozilla/5.0 (Windows NT 10.0; Win64; x64) AppleWebKit/537.36 (KHTML, like Gecko) Chrome/134.0.0.0 Safari/537.36","WebKit","Chrome","134.0.0.0","Windows","10.0","https://hz8g1ckzuq.cognition.run/","en-US,en;q=0.9","r9rh9xeu4uehfzf","34","[""Black or African-American""]","No","Female","3267360.200000003","17728","","","{""price_1"":""250"",""price_2"":""300"",""price_3"":""350""}","rating","wbw","catch","null","televisions","80","65","45","35","35","50","1","null","null","null","null","null","null","Screen size","Average lifespan","",""
"","","","","","rating_trial_setup","html-keyboard-response","33","656432","0.0-3.0-0.15","181","1","2025-04-14 14:36:20","bb671e3ae32f654b8954ea4c4635f915","","Mozilla/5.0 (Windows NT 10.0; Win64; x64) AppleWebKit/537.36 (KHTML, like Gecko) Chrome/134.0.0.0 Safari/537.36","WebKit","Chrome","134.0.0.0","Windows","10.0","https://hz8g1ckzuq.cognition.run/","en-US,en;q=0.9","r9rh9xeu4uehfzf","34","[""Black or African-American""]","No","Female","3267360.200000003","null","","<p></p>","null","rating","ctd","repulsion_2","2","microwave ovens","null","null","null","null","null","null","1","","","","","","","","","",""
"","","","","","rating_trial","survey-html-form","34","680488","0.0-3.0-1.15","181","1","2025-04-14 14:36:20","bb671e3ae32f654b8954ea4c4635f915","","Mozilla/5.0 (Windows NT 10.0; Win64; x64) AppleWebKit/537.36 (KHTML, like Gecko) Chrome/134.0.0.0 Safari/537.36","WebKit","Chrome","134.0.0.0","Windows","10.0","https://hz8g1ckzuq.cognition.run/","en-US,en;q=0.9","r9rh9xeu4uehfzf","34","[""Black or African-American""]","No","Female","3267360.200000003","24048","","","{""price_1"":""80"",""price_2"":""70"",""price_3"":""60""}","rating","ctd","repulsion_2","2","microwave ovens","null","null","null","null","null","null","1","30","40","20","100","90","100","Warranty","Cooking power","",""
"","","","","","rating_trial_setup","html-keyboard-response","35","680794","0.0-3.0-0.16","181","1","2025-04-14 14:36:20","bb671e3ae32f654b8954ea4c4635f915","","Mozilla/5.0 (Windows NT 10.0; Win64; x64) AppleWebKit/537.36 (KHTML, like Gecko) Chrome/134.0.0.0 Safari/537.36","WebKit","Chrome","134.0.0.0","Windows","10.0","https://hz8g1ckzuq.cognition.run/","en-US,en;q=0.9","r9rh9xeu4uehfzf","34","[""Black or African-American""]","No","Female","3267360.200000003","null","","<p></p>","null","rating","ctd","repulsion_1","2","washing machines","null","null","null","null","null","null","2","","","","","","","","","",""
"","","","","","rating_trial","survey-html-form","36","696324","0.0-3.0-1.16","181","1","2025-04-14 14:36:20","bb671e3ae32f654b8954ea4c4635f915","","Mozilla/5.0 (Windows NT 10.0; Win64; x64) AppleWebKit/537.36 (KHTML, like Gecko) Chrome/134.0.0.0 Safari/537.36","WebKit","Chrome","134.0.0.0","Windows","10.0","https://hz8g1ckzuq.cognition.run/","en-US,en;q=0.9","r9rh9xeu4uehfzf","34","[""Black or African-American""]","No","Female","3267360.200000003","15522","","","{""price_1"":""700"",""price_2"":""600"",""price_3"":""500""}","rating","ctd","repulsion_1","2","washing machines","null","null","null","null","null","null","2","30","40","25","100","90","100","Average lifespan","Energy savings","",""
"","","","","","rating_trial_setup","html-keyboard-response","37","696630","0.0-3.0-0.17","181","1","2025-04-14 14:36:20","bb671e3ae32f654b8954ea4c4635f915","","Mozilla/5.0 (Windows NT 10.0; Win64; x64) AppleWebKit/537.36 (KHTML, like Gecko) Chrome/134.0.0.0 Safari/537.36","WebKit","Chrome","134.0.0.0","Windows","10.0","https://hz8g1ckzuq.cognition.run/","en-US,en;q=0.9","r9rh9xeu4uehfzf","34","[""Black or African-American""]","No","Female","3267360.200000003","null","","<p></p>","null","rating","cdt","repulsion_2","2","televisions","null","null","null","null","null","null","2","","","","","","","","","",""
"","","","","","rating_trial","survey-html-form","38","888814","0.0-3.0-1.17","181","1","2025-04-14 14:36:20","bb671e3ae32f654b8954ea4c4635f915","","Mozilla/5.0 (Windows NT 10.0; Win64; x64) AppleWebKit/537.36 (KHTML, like Gecko) Chrome/134.0.0.0 Safari/537.36","WebKit","Chrome","134.0.0.0","Windows","10.0","https://hz8g1ckzuq.cognition.run/","en-US,en;q=0.9","r9rh9xeu4uehfzf","34","[""Black or African-American""]","No","Female","3267360.200000003","192175","","","{""price_1"":""400"",""price_2"":""300"",""price_3"":""350""}","rating","cdt","repulsion_2","2","televisions","null","null","null","null","null","null","2","30","40","20","100","90","100","Screen size","Average lifespan","",""
"","","","","","rating_trial_setup","html-keyboard-response","39","889123","0.0-3.0-0.18","181","1","2025-04-14 14:36:20","bb671e3ae32f654b8954ea4c4635f915","","Mozilla/5.0 (Windows NT 10.0; Win64; x64) AppleWebKit/537.36 (KHTML, like Gecko) Chrome/134.0.0.0 Safari/537.36","WebKit","Chrome","134.0.0.0","Windows","10.0","https://hz8g1ckzuq.cognition.run/","en-US,en;q=0.9","r9rh9xeu4uehfzf","34","[""Black or African-American""]","No","Female","3267360.200000003","null","","<p></p>","null","rating","tcd","attraction_1","1","televisions","null","null","null","null","null","null","1","","","","","","","","","",""
"","","","","","rating_trial","survey-html-form","40","904069","0.0-3.0-1.18","181","1","2025-04-14 14:36:20","bb671e3ae32f654b8954ea4c4635f915","","Mozilla/5.0 (Windows NT 10.0; Win64; x64) AppleWebKit/537.36 (KHTML, like Gecko) Chrome/134.0.0.0 Safari/537.36","WebKit","Chrome","134.0.0.0","Windows","10.0","https://hz8g1ckzuq.cognition.run/","en-US,en;q=0.9","r9rh9xeu4uehfzf","34","[""Black or African-American""]","No","Female","3267360.200000003","14933","","","{""price_1"":""400"",""price_2"":""400"",""price_3"":""350""}","rating","tcd","attraction_1","1","televisions","null","null","null","null","null","null","1","60","50","60","50","60","45","Screen size","Average lifespan","",""
"","","","","","rating_trial_setup","html-keyboard-response","41","904376","0.0-3.0-0.19","181","1","2025-04-14 14:36:20","bb671e3ae32f654b8954ea4c4635f915","","Mozilla/5.0 (Windows NT 10.0; Win64; x64) AppleWebKit/537.36 (KHTML, like Gecko) Chrome/134.0.0.0 Safari/537.36","WebKit","Chrome","134.0.0.0","Windows","10.0","https://hz8g1ckzuq.cognition.run/","en-US,en;q=0.9","r9rh9xeu4uehfzf","34","[""Black or African-American""]","No","Female","3267360.200000003","null","","<p></p>","null","rating","tcd","attraction_1","2","televisions","null","null","null","null","null","null","1","","","","","","","","","",""
"","","","","","rating_trial","survey-html-form","42","916466","0.0-3.0-1.19","181","1","2025-04-14 14:36:20","bb671e3ae32f654b8954ea4c4635f915","","Mozilla/5.0 (Windows NT 10.0; Win64; x64) AppleWebKit/537.36 (KHTML, like Gecko) Chrome/134.0.0.0 Safari/537.36","WebKit","Chrome","134.0.0.0","Windows","10.0","https://hz8g1ckzuq.cognition.run/","en-US,en;q=0.9","r9rh9xeu4uehfzf","34","[""Black or African-American""]","No","Female","3267360.200000003","12081","","","{""price_1"":""400"",""price_2"":""400"",""price_3"":""350""}","rating","tcd","attraction_1","2","televisions","null","null","null","null","null","null","1","50","60","45","60","50","60","Screen size","Average lifespan","",""
"","","","","","rating_trial_setup","html-keyboard-response","43","916775","0.0-3.0-0.20","181","1","2025-04-14 14:36:20","bb671e3ae32f654b8954ea4c4635f915","","Mozilla/5.0 (Windows NT 10.0; Win64; x64) AppleWebKit/537.36 (KHTML, like Gecko) Chrome/134.0.0.0 Safari/537.36","WebKit","Chrome","134.0.0.0","Windows","10.0","https://hz8g1ckzuq.cognition.run/","en-US,en;q=0.9","r9rh9xeu4uehfzf","34","[""Black or African-American""]","No","Female","3267360.200000003","null","","<p></p>","null","rating","wwb","catch","null","washing machines","90","60","30","40","20","30","2","","","","","","","","","",""
"","","","","","rating_trial","survey-html-form","44","931106","0.0-3.0-1.20","181","1","2025-04-14 14:36:20","bb671e3ae32f654b8954ea4c4635f915","","Mozilla/5.0 (Windows NT 10.0; Win64; x64) AppleWebKit/537.36 (KHTML, like Gecko) Chrome/134.0.0.0 Safari/537.36","WebKit","Chrome","134.0.0.0","Windows","10.0","https://hz8g1ckzuq.cognition.run/","en-US,en;q=0.9","r9rh9xeu4uehfzf","34","[""Black or African-American""]","No","Female","3267360.200000003","14321","","","{""price_1"":""500"",""price_2"":""500"",""price_3"":""600""}","rating","wwb","catch","null","washing machines","90","60","30","40","20","30","2","null","null","null","null","null","null","Average lifespan","Energy savings","",""
"","","","","","rating_trial_setup","html-keyboard-response","45","931412","0.0-3.0-0.21","181","1","2025-04-14 14:36:20","bb671e3ae32f654b8954ea4c4635f915","","Mozilla/5.0 (Windows NT 10.0; Win64; x64) AppleWebKit/537.36 (KHTML, like Gecko) Chrome/134.0.0.0 Safari/537.36","WebKit","Chrome","134.0.0.0","Windows","10.0","https://hz8g1ckzuq.cognition.run/","en-US,en;q=0.9","r9rh9xeu4uehfzf","34","[""Black or African-American""]","No","Female","3267360.200000003","null","","<p></p>","null","rating","tcd","attraction_1","2","microwave ovens","null","null","null","null","null","null","2","","","","","","","","","",""
"","","","","","rating_trial","survey-html-form","46","1022956","0.0-3.0-1.21","181","1","2025-04-14 14:36:20","bb671e3ae32f654b8954ea4c4635f915","","Mozilla/5.0 (Windows NT 10.0; Win64; x64) AppleWebKit/537.36 (KHTML, like Gecko) Chrome/134.0.0.0 Safari/537.36","WebKit","Chrome","134.0.0.0","Windows","10.0","https://hz8g1ckzuq.cognition.run/","en-US,en;q=0.9","r9rh9xeu4uehfzf","34","[""Black or African-American""]","No","Female","3267360.200000003","91534","","","{""price_1"":""70"",""price_2"":""70"",""price_3"":""65""}","rating","tcd","attraction_1","2","microwave ovens","null","null","null","null","null","null","2","50","60","45","60","50","60","Warranty","Cooking power","",""
"","","","","","rating_trial_setup","html-keyboard-response","47","1023263","0.0-3.0-0.22","181","1","2025-04-14 14:36:20","bb671e3ae32f654b8954ea4c4635f915","","Mozilla/5.0 (Windows NT 10.0; Win64; x64) AppleWebKit/537.36 (KHTML, like Gecko) Chrome/134.0.0.0 Safari/537.36","WebKit","Chrome","134.0.0.0","Windows","10.0","https://hz8g1ckzuq.cognition.run/","en-US,en;q=0.9","r9rh9xeu4uehfzf","34","[""Black or African-American""]","No","Female","3267360.200000003","null","","<p></p>","null","rating","cdt","attraction_2","1","laptops","null","null","null","null","null","null","1","","","","","","","","","",""
"","","","","","rating_trial","survey-html-form","48","1059763","0.0-3.0-1.22","181","1","2025-04-14 14:36:20","bb671e3ae32f654b8954ea4c4635f915","","Mozilla/5.0 (Windows NT 10.0; Win64; x64) AppleWebKit/537.36 (KHTML, like Gecko) Chrome/134.0.0.0 Safari/537.36","WebKit","Chrome","134.0.0.0","Windows","10.0","https://hz8g1ckzuq.cognition.run/","en-US,en;q=0.9","r9rh9xeu4uehfzf","34","[""Black or African-American""]","No","Female","3267360.200000003","36491","","","{""price_1"":""300"",""price_2"":""300"",""price_3"":""400""}","rating","cdt","attraction_2","1","laptops","null","null","null","null","null","null","1","60","50","60","50","60","40","Processing speed","Memory (RAM)","",""
"","","","","","rating_trial_setup","html-keyboard-response","49","1060071","0.0-3.0-0.23","181","1","2025-04-14 14:36:20","bb671e3ae32f654b8954ea4c4635f915","","Mozilla/5.0 (Windows NT 10.0; Win64; x64) AppleWebKit/537.36 (KHTML, like Gecko) Chrome/134.0.0.0 Safari/537.36","WebKit","Chrome","134.0.0.0","Windows","10.0","https://hz8g1ckzuq.cognition.run/","en-US,en;q=0.9","r9rh9xeu4uehfzf","34","[""Black or African-American""]","No","Female","3267360.200000003","null","","<p></p>","null","rating","ctd","repulsion_1","2","laptops","null","null","null","null","null","null","1","","","","","","","","","",""
"","","","","","rating_trial","survey-html-form","50","1230576","0.0-3.0-1.23","181","1","2025-04-14 14:36:20","bb671e3ae32f654b8954ea4c4635f915","","Mozilla/5.0 (Windows NT 10.0; Win64; x64) AppleWebKit/537.36 (KHTML, like Gecko) Chrome/134.0.0.0 Safari/537.36","WebKit","Chrome","134.0.0.0","Windows","10.0","https://hz8g1ckzuq.cognition.run/","en-US,en;q=0.9","r9rh9xeu4uehfzf","34","[""Black or African-American""]","No","Female","3267360.200000003","170495","","","{""price_1"":""400"",""price_2"":""300"",""price_3"":""300""}","rating","ctd","repulsion_1","2","laptops","null","null","null","null","null","null","1","30","40","25","100","90","100","Processing speed","Memory (RAM)","",""
"","","","","","rating_trial_setup","html-keyboard-response","51","1230885","0.0-3.0-0.24","181","1","2025-04-14 14:36:20","bb671e3ae32f654b8954ea4c4635f915","","Mozilla/5.0 (Windows NT 10.0; Win64; x64) AppleWebKit/537.36 (KHTML, like Gecko) Chrome/134.0.0.0 Safari/537.36","WebKit","Chrome","134.0.0.0","Windows","10.0","https://hz8g1ckzuq.cognition.run/","en-US,en;q=0.9","r9rh9xeu4uehfzf","34","[""Black or African-American""]","No","Female","3267360.200000003","null","","<p></p>","null","rating","bww","catch","null","laptops","95","60","15","10","30","10","1","","","","","","","","","",""
"","","","","","rating_trial","survey-html-form","52","1304211","0.0-3.0-1.24","181","1","2025-04-14 14:36:20","bb671e3ae32f654b8954ea4c4635f915","","Mozilla/5.0 (Windows NT 10.0; Win64; x64) AppleWebKit/537.36 (KHTML, like Gecko) Chrome/134.0.0.0 Safari/537.36","WebKit","Chrome","134.0.0.0","Windows","10.0","https://hz8g1ckzuq.cognition.run/","en-US,en;q=0.9","r9rh9xeu4uehfzf","34","[""Black or African-American""]","No","Female","3267360.200000003","73317","","","{""price_1"":""500"",""price_2"":""150"",""price_3"":""200""}","rating","bww","catch","null","laptops","95","60","15","10","30","10","1","null","null","null","null","null","null","Processing speed","Memory (RAM)","",""
"","","","","","rating_trial_setup","html-keyboard-response","53","1304518","0.0-3.0-0.25","181","1","2025-04-14 14:36:20","bb671e3ae32f654b8954ea4c4635f915","","Mozilla/5.0 (Windows NT 10.0; Win64; x64) AppleWebKit/537.36 (KHTML, like Gecko) Chrome/134.0.0.0 Safari/537.36","WebKit","Chrome","134.0.0.0","Windows","10.0","https://hz8g1ckzuq.cognition.run/","en-US,en;q=0.9","r9rh9xeu4uehfzf","34","[""Black or African-American""]","No","Female","3267360.200000003","null","","<p></p>","null","rating","tdc","attraction_2","2","laptops","null","null","null","null","null","null","2","","","","","","","","","",""
"","","","","","rating_trial","survey-html-form","54","1339155","0.0-3.0-1.25","181","1","2025-04-14 14:36:20","bb671e3ae32f654b8954ea4c4635f915","","Mozilla/5.0 (Windows NT 10.0; Win64; x64) AppleWebKit/537.36 (KHTML, like Gecko) Chrome/134.0.0.0 Safari/537.36","WebKit","Chrome","134.0.0.0","Windows","10.0","https://hz8g1ckzuq.cognition.run/","en-US,en;q=0.9","r9rh9xeu4uehfzf","34","[""Black or African-American""]","No","Female","3267360.200000003","34627","","","{""price_1"":""400"",""price_2"":""350"",""price_3"":""400""}","rating","tdc","attraction_2","2","laptops","null","null","null","null","null","null","2","50","60","40","60","50","60","Processing speed","Memory (RAM)","",""
"","","","","","rating_trial_setup","html-keyboard-response","55","1339467","0.0-3.0-0.26","181","1","2025-04-14 14:36:20","bb671e3ae32f654b8954ea4c4635f915","","Mozilla/5.0 (Windows NT 10.0; Win64; x64) AppleWebKit/537.36 (KHTML, like Gecko) Chrome/134.0.0.0 Safari/537.36","WebKit","Chrome","134.0.0.0","Windows","10.0","https://hz8g1ckzuq.cognition.run/","en-US,en;q=0.9","r9rh9xeu4uehfzf","34","[""Black or African-American""]","No","Female","3267360.200000003","null","","<p></p>","null","rating","tdc","attraction_2","1","microwave ovens","null","null","null","null","null","null","2","","","","","","","","","",""
"","","","","","rating_trial","survey-html-form","56","1430440","0.0-3.0-1.26","181","1","2025-04-14 14:36:20","bb671e3ae32f654b8954ea4c4635f915","","Mozilla/5.0 (Windows NT 10.0; Win64; x64) AppleWebKit/537.36 (KHTML, like Gecko) Chrome/134.0.0.0 Safari/537.36","WebKit","Chrome","134.0.0.0","Windows","10.0","https://hz8g1ckzuq.cognition.run/","en-US,en;q=0.9","r9rh9xeu4uehfzf","34","[""Black or African-American""]","No","Female","3267360.200000003","90960","","","{""price_1"":""60"",""price_2"":""50"",""price_3"":""60""}","rating","tdc","attraction_2","1","microwave ovens","null","null","null","null","null","null","2","60","50","60","50","60","40","Warranty","Cooking power","",""
"","","","","","rating_trial_setup","html-keyboard-response","57","1430750","0.0-3.0-0.27","181","1","2025-04-14 14:36:20","bb671e3ae32f654b8954ea4c4635f915","","Mozilla/5.0 (Windows NT 10.0; Win64; x64) AppleWebKit/537.36 (KHTML, like Gecko) Chrome/134.0.0.0 Safari/537.36","WebKit","Chrome","134.0.0.0","Windows","10.0","https://hz8g1ckzuq.cognition.run/","en-US,en;q=0.9","r9rh9xeu4uehfzf","34","[""Black or African-American""]","No","Female","3267360.200000003","null","","<p></p>","null","rating","bww","catch","null","televisions","80","90","25","50","30","15","2","","","","","","","","","",""
"","","","","","rating_trial","survey-html-form","58","1444224","0.0-3.0-1.27","181","1","2025-04-14 14:36:20","bb671e3ae32f654b8954ea4c4635f915","","Mozilla/5.0 (Windows NT 10.0; Win64; x64) AppleWebKit/537.36 (KHTML, like Gecko) Chrome/134.0.0.0 Safari/537.36","WebKit","Chrome","134.0.0.0","Windows","10.0","https://hz8g1ckzuq.cognition.run/","en-US,en;q=0.9","r9rh9xeu4uehfzf","34","[""Black or African-American""]","No","Female","3267360.200000003","13464","","","{""price_1"":""500"",""price_2"":""300"",""price_3"":""200""}","rating","bww","catch","null","televisions","80","90","25","50","30","15","2","null","null","null","null","null","null","Screen size","Average lifespan","",""
"","","","","","rating_trial_setup","html-keyboard-response","59","1444532","0.0-3.0-0.28","181","1","2025-04-14 14:36:20","bb671e3ae32f654b8954ea4c4635f915","","Mozilla/5.0 (Windows NT 10.0; Win64; x64) AppleWebKit/537.36 (KHTML, like Gecko) Chrome/134.0.0.0 Safari/537.36","WebKit","Chrome","134.0.0.0","Windows","10.0","https://hz8g1ckzuq.cognition.run/","en-US,en;q=0.9","r9rh9xeu4uehfzf","34","[""Black or African-American""]","No","Female","3267360.200000003","null","","<p></p>","null","rating","wbw","catch","null","washing machines","55","80","25","40","25","30","1","","","","","","","","","",""
"","","","","","rating_trial","survey-html-form","60","1610803","0.0-3.0-1.28","181","1","2025-04-14 14:36:20","bb671e3ae32f654b8954ea4c4635f915","","Mozilla/5.0 (Windows NT 10.0; Win64; x64) AppleWebKit/537.36 (KHTML, like Gecko) Chrome/134.0.0.0 Safari/537.36","WebKit","Chrome","134.0.0.0","Windows","10.0","https://hz8g1ckzuq.cognition.run/","en-US,en;q=0.9","r9rh9xeu4uehfzf","34","[""Black or African-American""]","No","Female","3267360.200000003","166261","","","{""price_1"":""400"",""price_2"":""500"",""price_3"":""300""}","rating","wbw","catch","null","washing machines","55","80","25","40","25","30","1","null","null","null","null","null","null","Average lifespan","Energy savings","",""
"","","","","","rating_trial_setup","html-keyboard-response","61","1611115","0.0-3.0-0.29","181","1","2025-04-14 14:36:20","bb671e3ae32f654b8954ea4c4635f915","","Mozilla/5.0 (Windows NT 10.0; Win64; x64) AppleWebKit/537.36 (KHTML, like Gecko) Chrome/134.0.0.0 Safari/537.36","WebKit","Chrome","134.0.0.0","Windows","10.0","https://hz8g1ckzuq.cognition.run/","en-US,en;q=0.9","r9rh9xeu4uehfzf","34","[""Black or African-American""]","No","Female","3267360.200000003","null","","<p></p>","null","rating","cdt","repulsion_2","2","laptops","null","null","null","null","null","null","2","","","","","","","","","",""
"","","","","","rating_trial","survey-html-form","62","1639370","0.0-3.0-1.29","181","1","2025-04-14 14:36:20","bb671e3ae32f654b8954ea4c4635f915","","Mozilla/5.0 (Windows NT 10.0; Win64; x64) AppleWebKit/537.36 (KHTML, like Gecko) Chrome/134.0.0.0 Safari/537.36","WebKit","Chrome","134.0.0.0","Windows","10.0","https://hz8g1ckzuq.cognition.run/","en-US,en;q=0.9","r9rh9xeu4uehfzf","34","[""Black or African-American""]","No","Female","3267360.200000003","28244","","","{""price_1"":""350"",""price_2"":""300"",""price_3"":""350""}","rating","cdt","repulsion_2","2","laptops","null","null","null","null","null","null","2","30","40","20","100","90","100","Processing speed","Memory (RAM)","",""
"","","","","","rating_trial_setup","html-keyboard-response","63","1639692","0.0-3.0-0.30","181","1","2025-04-14 14:36:20","bb671e3ae32f654b8954ea4c4635f915","","Mozilla/5.0 (Windows NT 10.0; Win64; x64) AppleWebKit/537.36 (KHTML, like Gecko) Chrome/134.0.0.0 Safari/537.36","WebKit","Chrome","134.0.0.0","Windows","10.0","https://hz8g1ckzuq.cognition.run/","en-US,en;q=0.9","r9rh9xeu4uehfzf","34","[""Black or African-American""]","No","Female","3267360.200000003","null","","<p></p>","null","rating","dtc","repulsion_1","2","microwave ovens","null","null","null","null","null","null","2","","","","","","","","","",""
"","","","","","rating_trial","survey-html-form","64","1675887","0.0-3.0-1.30","181","1","2025-04-14 14:36:20","bb671e3ae32f654b8954ea4c4635f915","","Mozilla/5.0 (Windows NT 10.0; Win64; x64) AppleWebKit/537.36 (KHTML, like Gecko) Chrome/134.0.0.0 Safari/537.36","WebKit","Chrome","134.0.0.0","Windows","10.0","https://hz8g1ckzuq.cognition.run/","en-US,en;q=0.9","r9rh9xeu4uehfzf","34","[""Black or African-American""]","No","Female","3267360.200000003","36184","","","{""price_1"":""75"",""price_2"":""70"",""price_3"":""80""}","rating","dtc","repulsion_1","2","microwave ovens","null","null","null","null","null","null","2","30","40","25","100","90","100","Warranty","Cooking power","",""
"","","","","","rating_trial_setup","html-keyboard-response","65","1676195","0.0-3.0-0.31","181","1","2025-04-14 14:36:20","bb671e3ae32f654b8954ea4c4635f915","","Mozilla/5.0 (Windows NT 10.0; Win64; x64) AppleWebKit/537.36 (KHTML, like Gecko) Chrome/134.0.0.0 Safari/537.36","WebKit","Chrome","134.0.0.0","Windows","10.0","https://hz8g1ckzuq.cognition.run/","en-US,en;q=0.9","r9rh9xeu4uehfzf","34","[""Black or African-American""]","No","Female","3267360.200000003","null","","<p></p>","null","rating","dct","attraction_2","2","televisions","null","null","null","null","null","null","2","","","","","","","","","",""
"","","","","","rating_trial","survey-html-form","66","1694677","0.0-3.0-1.31","181","1","2025-04-14 14:36:20","bb671e3ae32f654b8954ea4c4635f915","","Mozilla/5.0 (Windows NT 10.0; Win64; x64) AppleWebKit/537.36 (KHTML, like Gecko) Chrome/134.0.0.0 Safari/537.36","WebKit","Chrome","134.0.0.0","Windows","10.0","https://hz8g1ckzuq.cognition.run/","en-US,en;q=0.9","r9rh9xeu4uehfzf","34","[""Black or African-American""]","No","Female","3267360.200000003","18472","","","{""price_1"":""400"",""price_2"":""400"",""price_3"":""400""}","rating","dct","attraction_2","2","televisions","null","null","null","null","null","null","2","50","60","40","60","50","60","Screen size","Average lifespan","",""
"","","","","","rating_trial_setup","html-keyboard-response","67","1694987","0.0-3.0-0.32","181","1","2025-04-14 14:36:20","bb671e3ae32f654b8954ea4c4635f915","","Mozilla/5.0 (Windows NT 10.0; Win64; x64) AppleWebKit/537.36 (KHTML, like Gecko) Chrome/134.0.0.0 Safari/537.36","WebKit","Chrome","134.0.0.0","Windows","10.0","https://hz8g1ckzuq.cognition.run/","en-US,en;q=0.9","r9rh9xeu4uehfzf","34","[""Black or African-American""]","No","Female","3267360.200000003","null","","<p></p>","null","rating","tdc","attraction_2","2","microwave ovens","null","null","null","null","null","null","2","","","","","","","","","",""
"","","","","","rating_trial","survey-html-form","68","1729286","0.0-3.0-1.32","181","1","2025-04-14 14:36:20","bb671e3ae32f654b8954ea4c4635f915","","Mozilla/5.0 (Windows NT 10.0; Win64; x64) AppleWebKit/537.36 (KHTML, like Gecko) Chrome/134.0.0.0 Safari/537.36","WebKit","Chrome","134.0.0.0","Windows","10.0","https://hz8g1ckzuq.cognition.run/","en-US,en;q=0.9","r9rh9xeu4uehfzf","34","[""Black or African-American""]","No","Female","3267360.200000003","34286","","","{""price_1"":""70"",""price_2"":""60"",""price_3"":""70""}","rating","tdc","attraction_2","2","microwave ovens","null","null","null","null","null","null","2","50","60","40","60","50","60","Warranty","Cooking power","",""
"","","","","","rating_trial_setup","html-keyboard-response","69","1729594","0.0-3.0-0.33","181","1","2025-04-14 14:36:20","bb671e3ae32f654b8954ea4c4635f915","","Mozilla/5.0 (Windows NT 10.0; Win64; x64) AppleWebKit/537.36 (KHTML, like Gecko) Chrome/134.0.0.0 Safari/537.36","WebKit","Chrome","134.0.0.0","Windows","10.0","https://hz8g1ckzuq.cognition.run/","en-US,en;q=0.9","r9rh9xeu4uehfzf","34","[""Black or African-American""]","No","Female","3267360.200000003","null","","<p></p>","null","rating","tdc","attraction_1","1","microwave ovens","null","null","null","null","null","null","1","","","","","","","","","",""
"","","","","","rating_trial","survey-html-form","70","1777330","0.0-3.0-1.33","181","1","2025-04-14 14:36:20","bb671e3ae32f654b8954ea4c4635f915","","Mozilla/5.0 (Windows NT 10.0; Win64; x64) AppleWebKit/537.36 (KHTML, like Gecko) Chrome/134.0.0.0 Safari/537.36","WebKit","Chrome","134.0.0.0","Windows","10.0","https://hz8g1ckzuq.cognition.run/","en-US,en;q=0.9","r9rh9xeu4uehfzf","34","[""Black or African-American""]","No","Female","3267360.200000003","47726","","","{""price_1"":""70"",""price_2"":""60"",""price_3"":""70""}","rating","tdc","attraction_1","1","microwave ovens","null","null","null","null","null","null","1","60","50","60","50","60","45","Warranty","Cooking power","",""
"","","","","","rating_trial_setup","html-keyboard-response","71","1777641","0.0-3.0-0.34","181","1","2025-04-14 14:36:20","bb671e3ae32f654b8954ea4c4635f915","","Mozilla/5.0 (Windows NT 10.0; Win64; x64) AppleWebKit/537.36 (KHTML, like Gecko) Chrome/134.0.0.0 Safari/537.36","WebKit","Chrome","134.0.0.0","Windows","10.0","https://hz8g1ckzuq.cognition.run/","en-US,en;q=0.9","r9rh9xeu4uehfzf","34","[""Black or African-American""]","No","Female","3267360.200000003","null","","<p></p>","null","rating","tcd","repulsion_1","1","laptops","null","null","null","null","null","null","1","","","","","","","","","",""
"","","","","","rating_trial","survey-html-form","72","1853465","0.0-3.0-1.34","181","1","2025-04-14 14:36:20","bb671e3ae32f654b8954ea4c4635f915","","Mozilla/5.0 (Windows NT 10.0; Win64; x64) AppleWebKit/537.36 (KHTML, like Gecko) Chrome/134.0.0.0 Safari/537.36","WebKit","Chrome","134.0.0.0","Windows","10.0","https://hz8g1ckzuq.cognition.run/","en-US,en;q=0.9","r9rh9xeu4uehfzf","34","[""Black or African-American""]","No","Female","3267360.200000003","75811","","","{""price_1"":""400"",""price_2"":""300"",""price_3"":""300""}","rating","tcd","repulsion_1","1","laptops","null","null","null","null","null","null","1","100","90","100","30","40","25","Processing speed","Memory (RAM)","",""
"","","","","","rating_trial_setup","html-keyboard-response","73","1853777","0.0-3.0-0.35","181","1","2025-04-14 14:36:20","bb671e3ae32f654b8954ea4c4635f915","","Mozilla/5.0 (Windows NT 10.0; Win64; x64) AppleWebKit/537.36 (KHTML, like Gecko) Chrome/134.0.0.0 Safari/537.36","WebKit","Chrome","134.0.0.0","Windows","10.0","https://hz8g1ckzuq.cognition.run/","en-US,en;q=0.9","r9rh9xeu4uehfzf","34","[""Black or African-American""]","No","Female","3267360.200000003","null","","<p></p>","null","rating","dtc","repulsion_1","1","washing machines","null","null","null","null","null","null","1","","","","","","","","","",""
"","","","","","rating_trial","survey-html-form","74","1879381","0.0-3.0-1.35","181","1","2025-04-14 14:36:20","bb671e3ae32f654b8954ea4c4635f915","","Mozilla/5.0 (Windows NT 10.0; Win64; x64) AppleWebKit/537.36 (KHTML, like Gecko) Chrome/134.0.0.0 Safari/537.36","WebKit","Chrome","134.0.0.0","Windows","10.0","https://hz8g1ckzuq.cognition.run/","en-US,en;q=0.9","r9rh9xeu4uehfzf","34","[""Black or African-American""]","No","Female","3267360.200000003","25593","","","{""price_1"":""400"",""price_2"":""450"",""price_3"":""500""}","rating","dtc","repulsion_1","1","washing machines","null","null","null","null","null","null","1","100","90","100","30","40","25","Average lifespan","Energy savings","",""
"","","","","","rating_trial_setup","html-keyboard-response","75","1879692","0.0-3.0-0.36","181","1","2025-04-14 14:36:20","bb671e3ae32f654b8954ea4c4635f915","","Mozilla/5.0 (Windows NT 10.0; Win64; x64) AppleWebKit/537.36 (KHTML, like Gecko) Chrome/134.0.0.0 Safari/537.36","WebKit","Chrome","134.0.0.0","Windows","10.0","https://hz8g1ckzuq.cognition.run/","en-US,en;q=0.9","r9rh9xeu4uehfzf","34","[""Black or African-American""]","No","Female","3267360.200000003","null","","<p></p>","null","rating","dtc","attraction_2","1","washing machines","null","null","null","null","null","null","1","","","","","","","","","",""
"","","","","","rating_trial","survey-html-form","76","1905897","0.0-3.0-1.36","181","1","2025-04-14 14:36:20","bb671e3ae32f654b8954ea4c4635f915","","Mozilla/5.0 (Windows NT 10.0; Win64; x64) AppleWebKit/537.36 (KHTML, like Gecko) Chrome/134.0.0.0 Safari/537.36","WebKit","Chrome","134.0.0.0","Windows","10.0","https://hz8g1ckzuq.cognition.run/","en-US,en;q=0.9","r9rh9xeu4uehfzf","34","[""Black or African-American""]","No","Female","3267360.200000003","26195","","","{""price_1"":""500"",""price_2"":""550"",""price_3"":""600""}","rating","dtc","attraction_2","1","washing machines","null","null","null","null","null","null","1","60","50","60","50","60","40","Average lifespan","Energy savings","",""
"","","","","","rating_trial_setup","html-keyboard-response","77","1906209","0.0-3.0-0.37","181","1","2025-04-14 14:36:20","bb671e3ae32f654b8954ea4c4635f915","","Mozilla/5.0 (Windows NT 10.0; Win64; x64) AppleWebKit/537.36 (KHTML, like Gecko) Chrome/134.0.0.0 Safari/537.36","WebKit","Chrome","134.0.0.0","Windows","10.0","https://hz8g1ckzuq.cognition.run/","en-US,en;q=0.9","r9rh9xeu4uehfzf","34","[""Black or African-American""]","No","Female","3267360.200000003","null","","<p></p>","null","rating","ctd","repulsion_2","1","microwave ovens","null","null","null","null","null","null","1","","","","","","","","","",""
"","","","","","rating_trial","survey-html-form","78","2223565","0.0-3.0-1.37","181","1","2025-04-14 14:36:20","bb671e3ae32f654b8954ea4c4635f915","","Mozilla/5.0 (Windows NT 10.0; Win64; x64) AppleWebKit/537.36 (KHTML, like Gecko) Chrome/134.0.0.0 Safari/537.36","WebKit","Chrome","134.0.0.0","Windows","10.0","https://hz8g1ckzuq.cognition.run/","en-US,en;q=0.9","r9rh9xeu4uehfzf","34","[""Black or African-American""]","No","Female","3267360.200000003","317346","","","{""price_1"":""70"",""price_2"":""60"",""price_3"":""40""}","rating","ctd","repulsion_2","1","microwave ovens","null","null","null","null","null","null","1","100","90","100","30","40","20","Warranty","Cooking power","",""
"","","","","","rating_trial_setup","html-keyboard-response","79","2223872","0.0-3.0-0.38","181","1","2025-04-14 14:36:20","bb671e3ae32f654b8954ea4c4635f915","","Mozilla/5.0 (Windows NT 10.0; Win64; x64) AppleWebKit/537.36 (KHTML, like Gecko) Chrome/134.0.0.0 Safari/537.36","WebKit","Chrome","134.0.0.0","Windows","10.0","https://hz8g1ckzuq.cognition.run/","en-US,en;q=0.9","r9rh9xeu4uehfzf","34","[""Black or African-American""]","No","Female","3267360.200000003","null","","<p></p>","null","rating","tdc","repulsion_1","1","microwave ovens","null","null","null","null","null","null","2","","","","","","","","","",""
"","","","","","rating_trial","survey-html-form","80","2251116","0.0-3.0-1.38","181","1","2025-04-14 14:36:20","bb671e3ae32f654b8954ea4c4635f915","","Mozilla/5.0 (Windows NT 10.0; Win64; x64) AppleWebKit/537.36 (KHTML, like Gecko) Chrome/134.0.0.0 Safari/537.36","WebKit","Chrome","134.0.0.0","Windows","10.0","https://hz8g1ckzuq.cognition.run/","en-US,en;q=0.9","r9rh9xeu4uehfzf","34","[""Black or African-American""]","No","Female","3267360.200000003","27234","","","{""price_1"":""75"",""price_2"":""70"",""price_3"":""80""}","rating","tdc","repulsion_1","1","microwave ovens","null","null","null","null","null","null","2","100","90","100","30","40","25","Warranty","Cooking power","",""
"","","","","","rating_trial_setup","html-keyboard-response","81","2251429","0.0-3.0-0.39","181","1","2025-04-14 14:36:20","bb671e3ae32f654b8954ea4c4635f915","","Mozilla/5.0 (Windows NT 10.0; Win64; x64) AppleWebKit/537.36 (KHTML, like Gecko) Chrome/134.0.0.0 Safari/537.36","WebKit","Chrome","134.0.0.0","Windows","10.0","https://hz8g1ckzuq.cognition.run/","en-US,en;q=0.9","r9rh9xeu4uehfzf","34","[""Black or African-American""]","No","Female","3267360.200000003","null","","<p></p>","null","rating","cdt","attraction_1","1","laptops","null","null","null","null","null","null","2","","","","","","","","","",""
"","","","","","rating_trial","survey-html-form","82","2281055","0.0-3.0-1.39","181","1","2025-04-14 14:36:20","bb671e3ae32f654b8954ea4c4635f915","","Mozilla/5.0 (Windows NT 10.0; Win64; x64) AppleWebKit/537.36 (KHTML, like Gecko) Chrome/134.0.0.0 Safari/537.36","WebKit","Chrome","134.0.0.0","Windows","10.0","https://hz8g1ckzuq.cognition.run/","en-US,en;q=0.9","r9rh9xeu4uehfzf","34","[""Black or African-American""]","No","Female","3267360.200000003","29614","","","{""price_1"":""400"",""price_2"":""350"",""price_3"":""400""}","rating","cdt","attraction_1","1","laptops","null","null","null","null","null","null","2","60","50","60","50","60","45","Processing speed","Memory (RAM)","",""
"","","","","","","instructions","83","2345963","0.0-4.0","181","1","2025-04-14 14:36:20","bb671e3ae32f654b8954ea4c4635f915","","Mozilla/5.0 (Windows NT 10.0; Win64; x64) AppleWebKit/537.36 (KHTML, like Gecko) Chrome/134.0.0.0 Safari/537.36","WebKit","Chrome","134.0.0.0","Windows","10.0","https://hz8g1ckzuq.cognition.run/","en-US,en;q=0.9","r9rh9xeu4uehfzf","34","[""Black or African-American""]","No","Female","3267360.200000003","64897","[{""page_index"":0,""viewing_time"":2529},{""page_index"":1,""viewing_time"":1959},{""page_index"":2,""viewing_time"":3992},{""page_index"":3,""viewing_time"":6018},{""page_index"":4,""viewing_time"":3171},{""page_index"":5,""viewing_time"":11227},{""page_index"":6,""viewing_time"":26245},{""page_index"":7,""viewing_time"":9755}]","","","","","","","","","","","","","","","","","","","","","","","",""
"","","","","","choice_trial_setup","html-keyboard-response","84","2346275","0.0-5.0-0.0","181","1","2025-04-14 14:36:20","bb671e3ae32f654b8954ea4c4635f915","","Mozilla/5.0 (Windows NT 10.0; Win64; x64) AppleWebKit/537.36 (KHTML, like Gecko) Chrome/134.0.0.0 Safari/537.36","WebKit","Chrome","134.0.0.0","Windows","10.0","https://hz8g1ckzuq.cognition.run/","en-US,en;q=0.9","r9rh9xeu4uehfzf","34","[""Black or African-American""]","No","Female","3267360.200000003","null","","<p></p>","null","choice","wbw","catch","null","laptops","70","65","30","10","50","45","2","","","","","","","","","",""
"","","","","","choice_trial","survey-html-form","85","2356399","0.0-5.0-1.0","181","1","2025-04-14 14:36:20","bb671e3ae32f654b8954ea4c4635f915","","Mozilla/5.0 (Windows NT 10.0; Win64; x64) AppleWebKit/537.36 (KHTML, like Gecko) Chrome/134.0.0.0 Safari/537.36","WebKit","Chrome","134.0.0.0","Windows","10.0","https://hz8g1ckzuq.cognition.run/","en-US,en;q=0.9","r9rh9xeu4uehfzf","34","[""Black or African-American""]","No","Female","3267360.200000003","10110","","","{""product_choice"":""B""}","choice","wbw","catch","null","laptops","70","65","30","10","50","45","2","null","null","null","null","null","null","Processing speed","Memory (RAM)","",""
"","","","","","choice_trial_setup","html-keyboard-response","86","2356710","0.0-5.0-0.1","181","1","2025-04-14 14:36:20","bb671e3ae32f654b8954ea4c4635f915","","Mozilla/5.0 (Windows NT 10.0; Win64; x64) AppleWebKit/537.36 (KHTML, like Gecko) Chrome/134.0.0.0 Safari/537.36","WebKit","Chrome","134.0.0.0","Windows","10.0","https://hz8g1ckzuq.cognition.run/","en-US,en;q=0.9","r9rh9xeu4uehfzf","34","[""Black or African-American""]","No","Female","3267360.200000003","null","","<p></p>","null","choice","dtc","repulsion_1","1","washing machines","null","null","null","null","null","null","1","","","","","","","","","",""
"","","","","","choice_trial","survey-html-form","87","2371609","0.0-5.0-1.1","181","1","2025-04-14 14:36:20","bb671e3ae32f654b8954ea4c4635f915","","Mozilla/5.0 (Windows NT 10.0; Win64; x64) AppleWebKit/537.36 (KHTML, like Gecko) Chrome/134.0.0.0 Safari/537.36","WebKit","Chrome","134.0.0.0","Windows","10.0","https://hz8g1ckzuq.cognition.run/","en-US,en;q=0.9","r9rh9xeu4uehfzf","34","[""Black or African-American""]","No","Female","3267360.200000003","14890","","","{""product_choice"":""C""}","choice","dtc","repulsion_1","1","washing machines","null","null","null","null","null","null","1","100","90","100","30","40","25","Average lifespan","Energy savings","",""
"","","","","","choice_trial_setup","html-keyboard-response","88","2371921","0.0-5.0-0.2","181","1","2025-04-14 14:36:20","bb671e3ae32f654b8954ea4c4635f915","","Mozilla/5.0 (Windows NT 10.0; Win64; x64) AppleWebKit/537.36 (KHTML, like Gecko) Chrome/134.0.0.0 Safari/537.36","WebKit","Chrome","134.0.0.0","Windows","10.0","https://hz8g1ckzuq.cognition.run/","en-US,en;q=0.9","r9rh9xeu4uehfzf","34","[""Black or African-American""]","No","Female","3267360.200000003","null","","<p></p>","null","choice","tcd","attraction_1","2","washing machines","null","null","null","null","null","null","1","","","","","","","","","",""
"","","","","","choice_trial","survey-html-form","89","2379025","0.0-5.0-1.2","181","1","2025-04-14 14:36:20","bb671e3ae32f654b8954ea4c4635f915","","Mozilla/5.0 (Windows NT 10.0; Win64; x64) AppleWebKit/537.36 (KHTML, like Gecko) Chrome/134.0.0.0 Safari/537.36","WebKit","Chrome","134.0.0.0","Windows","10.0","https://hz8g1ckzuq.cognition.run/","en-US,en;q=0.9","r9rh9xeu4uehfzf","34","[""Black or African-American""]","No","Female","3267360.200000003","7093","","","{""product_choice"":""A""}","choice","tcd","attraction_1","2","washing machines","null","null","null","null","null","null","1","50","60","45","60","50","60","Average lifespan","Energy savings","",""
"","","","","","choice_trial_setup","html-keyboard-response","90","2379335","0.0-5.0-0.3","181","1","2025-04-14 14:36:20","bb671e3ae32f654b8954ea4c4635f915","","Mozilla/5.0 (Windows NT 10.0; Win64; x64) AppleWebKit/537.36 (KHTML, like Gecko) Chrome/134.0.0.0 Safari/537.36","WebKit","Chrome","134.0.0.0","Windows","10.0","https://hz8g1ckzuq.cognition.run/","en-US,en;q=0.9","r9rh9xeu4uehfzf","34","[""Black or African-American""]","No","Female","3267360.200000003","null","","<p></p>","null","choice","bww","catch","null","televisions","60","60","40","35","30","5","1","","","","","","","","","",""
"","","","","","choice_trial","survey-html-form","91","2386189","0.0-5.0-1.3","181","1","2025-04-14 14:36:20","bb671e3ae32f654b8954ea4c4635f915","","Mozilla/5.0 (Windows NT 10.0; Win64; x64) AppleWebKit/537.36 (KHTML, like Gecko) Chrome/134.0.0.0 Safari/537.36","WebKit","Chrome","134.0.0.0","Windows","10.0","https://hz8g1ckzuq.cognition.run/","en-US,en;q=0.9","r9rh9xeu4uehfzf","34","[""Black or African-American""]","No","Female","3267360.200000003","6844","","","{""product_choice"":""A""}","choice","bww","catch","null","televisions","60","60","40","35","30","5","1","null","null","null","null","null","null","Screen size","Average lifespan","",""
"","","","","","choice_trial_setup","html-keyboard-response","92","2386498","0.0-5.0-0.4","181","1","2025-04-14 14:36:20","bb671e3ae32f654b8954ea4c4635f915","","Mozilla/5.0 (Windows NT 10.0; Win64; x64) AppleWebKit/537.36 (KHTML, like Gecko) Chrome/134.0.0.0 Safari/537.36","WebKit","Chrome","134.0.0.0","Windows","10.0","https://hz8g1ckzuq.cognition.run/","en-US,en;q=0.9","r9rh9xeu4uehfzf","34","[""Black or African-American""]","No","Female","3267360.200000003","null","","<p></p>","null","choice","dct","attraction_1","2","televisions","null","null","null","null","null","null","1","","","","","","","","","",""
"","","","","","choice_trial","survey-html-form","93","2397982","0.0-5.0-1.4","181","1","2025-04-14 14:36:20","bb671e3ae32f654b8954ea4c4635f915","","Mozilla/5.0 (Windows NT 10.0; Win64; x64) AppleWebKit/537.36 (KHTML, like Gecko) Chrome/134.0.0.0 Safari/537.36","WebKit","Chrome","134.0.0.0","Windows","10.0","https://hz8g1ckzuq.cognition.run/","en-US,en;q=0.9","r9rh9xeu4uehfzf","34","[""Black or African-American""]","No","Female","3267360.200000003","11472","","","{""product_choice"":""B""}","choice","dct","attraction_1","2","televisions","null","null","null","null","null","null","1","50","60","45","60","50","60","Screen size","Average lifespan","",""
"","","","","","choice_trial_setup","html-keyboard-response","94","2398292","0.0-5.0-0.5","181","1","2025-04-14 14:36:20","bb671e3ae32f654b8954ea4c4635f915","","Mozilla/5.0 (Windows NT 10.0; Win64; x64) AppleWebKit/537.36 (KHTML, like Gecko) Chrome/134.0.0.0 Safari/537.36","WebKit","Chrome","134.0.0.0","Windows","10.0","https://hz8g1ckzuq.cognition.run/","en-US,en;q=0.9","r9rh9xeu4uehfzf","34","[""Black or African-American""]","No","Female","3267360.200000003","null","","<p></p>","null","choice","tcd","attraction_2","1","laptops","null","null","null","null","null","null","1","","","","","","","","","",""
"","","","","","choice_trial","survey-html-form","95","2404076","0.0-5.0-1.5","181","1","2025-04-14 14:36:20","bb671e3ae32f654b8954ea4c4635f915","","Mozilla/5.0 (Windows NT 10.0; Win64; x64) AppleWebKit/537.36 (KHTML, like Gecko) Chrome/134.0.0.0 Safari/537.36","WebKit","Chrome","134.0.0.0","Windows","10.0","https://hz8g1ckzuq.cognition.run/","en-US,en;q=0.9","r9rh9xeu4uehfzf","34","[""Black or African-American""]","No","Female","3267360.200000003","5771","","","{""product_choice"":""B""}","choice","tcd","attraction_2","1","laptops","null","null","null","null","null","null","1","60","50","60","50","60","40","Processing speed","Memory (RAM)","",""
"","","","","","choice_trial_setup","html-keyboard-response","96","2404387","0.0-5.0-0.6","181","1","2025-04-14 14:36:20","bb671e3ae32f654b8954ea4c4635f915","","Mozilla/5.0 (Windows NT 10.0; Win64; x64) AppleWebKit/537.36 (KHTML, like Gecko) Chrome/134.0.0.0 Safari/537.36","WebKit","Chrome","134.0.0.0","Windows","10.0","https://hz8g1ckzuq.cognition.run/","en-US,en;q=0.9","r9rh9xeu4uehfzf","34","[""Black or African-American""]","No","Female","3267360.200000003","null","","<p></p>","null","choice","tcd","repulsion_2","2","microwave ovens","null","null","null","null","null","null","1","","","","","","","","","",""
"","","","","","choice_trial","survey-html-form","97","2411061","0.0-5.0-1.6","181","1","2025-04-14 14:36:20","bb671e3ae32f654b8954ea4c4635f915","","Mozilla/5.0 (Windows NT 10.0; Win64; x64) AppleWebKit/537.36 (KHTML, like Gecko) Chrome/134.0.0.0 Safari/537.36","WebKit","Chrome","134.0.0.0","Windows","10.0","https://hz8g1ckzuq.cognition.run/","en-US,en;q=0.9","r9rh9xeu4uehfzf","34","[""Black or African-American""]","No","Female","3267360.200000003","6662","","","{""product_choice"":""A""}","choice","tcd","repulsion_2","2","microwave ovens","null","null","null","null","null","null","1","30","40","20","100","90","100","Warranty","Cooking power","",""
"","","","","","choice_trial_setup","html-keyboard-response","98","2411372","0.0-5.0-0.7","181","1","2025-04-14 14:36:20","bb671e3ae32f654b8954ea4c4635f915","","Mozilla/5.0 (Windows NT 10.0; Win64; x64) AppleWebKit/537.36 (KHTML, like Gecko) Chrome/134.0.0.0 Safari/537.36","WebKit","Chrome","134.0.0.0","Windows","10.0","https://hz8g1ckzuq.cognition.run/","en-US,en;q=0.9","r9rh9xeu4uehfzf","34","[""Black or African-American""]","No","Female","3267360.200000003","null","","<p></p>","null","choice","dct","repulsion_1","2","laptops","null","null","null","null","null","null","1","","","","","","","","","",""
"","","","","","choice_trial","survey-html-form","99","2417773","0.0-5.0-1.7","181","1","2025-04-14 14:36:20","bb671e3ae32f654b8954ea4c4635f915","","Mozilla/5.0 (Windows NT 10.0; Win64; x64) AppleWebKit/537.36 (KHTML, like Gecko) Chrome/134.0.0.0 Safari/537.36","WebKit","Chrome","134.0.0.0","Windows","10.0","https://hz8g1ckzuq.cognition.run/","en-US,en;q=0.9","r9rh9xeu4uehfzf","34","[""Black or African-American""]","No","Female","3267360.200000003","6386","","","{""product_choice"":""C""}","choice","dct","repulsion_1","2","laptops","null","null","null","null","null","null","1","30","40","25","100","90","100","Processing speed","Memory (RAM)","",""
"","","","","","choice_trial_setup","html-keyboard-response","100","2418086","0.0-5.0-0.8","181","1","2025-04-14 14:36:20","bb671e3ae32f654b8954ea4c4635f915","","Mozilla/5.0 (Windows NT 10.0; Win64; x64) AppleWebKit/537.36 (KHTML, like Gecko) Chrome/134.0.0.0 Safari/537.36","WebKit","Chrome","134.0.0.0","Windows","10.0","https://hz8g1ckzuq.cognition.run/","en-US,en;q=0.9","r9rh9xeu4uehfzf","34","[""Black or African-American""]","No","Female","3267360.200000003","null","","<p></p>","null","choice","dtc","repulsion_1","2","microwave ovens","null","null","null","null","null","null","1","","","","","","","","","",""
"","","","","","choice_trial","survey-html-form","101","2427495","0.0-5.0-1.8","181","1","2025-04-14 14:36:20","bb671e3ae32f654b8954ea4c4635f915","","Mozilla/5.0 (Windows NT 10.0; Win64; x64) AppleWebKit/537.36 (KHTML, like Gecko) Chrome/134.0.0.0 Safari/537.36","WebKit","Chrome","134.0.0.0","Windows","10.0","https://hz8g1ckzuq.cognition.run/","en-US,en;q=0.9","r9rh9xeu4uehfzf","34","[""Black or African-American""]","No","Female","3267360.200000003","9397","","","{""product_choice"":""B""}","choice","dtc","repulsion_1","2","microwave ovens","null","null","null","null","null","null","1","30","40","25","100","90","100","Warranty","Cooking power","",""
"","","","","","choice_trial_setup","html-keyboard-response","102","2427806","0.0-5.0-0.9","181","1","2025-04-14 14:36:20","bb671e3ae32f654b8954ea4c4635f915","","Mozilla/5.0 (Windows NT 10.0; Win64; x64) AppleWebKit/537.36 (KHTML, like Gecko) Chrome/134.0.0.0 Safari/537.36","WebKit","Chrome","134.0.0.0","Windows","10.0","https://hz8g1ckzuq.cognition.run/","en-US,en;q=0.9","r9rh9xeu4uehfzf","34","[""Black or African-American""]","No","Female","3267360.200000003","null","","<p></p>","null","choice","ctd","repulsion_2","1","washing machines","null","null","null","null","null","null","1","","","","","","","","","",""
"","","","","","choice_trial","survey-html-form","103","2433074","0.0-5.0-1.9","181","1","2025-04-14 14:36:20","bb671e3ae32f654b8954ea4c4635f915","","Mozilla/5.0 (Windows NT 10.0; Win64; x64) AppleWebKit/537.36 (KHTML, like Gecko) Chrome/134.0.0.0 Safari/537.36","WebKit","Chrome","134.0.0.0","Windows","10.0","https://hz8g1ckzuq.cognition.run/","en-US,en;q=0.9","r9rh9xeu4uehfzf","34","[""Black or African-American""]","No","Female","3267360.200000003","5255","","","{""product_choice"":""A""}","choice","ctd","repulsion_2","1","washing machines","null","null","null","null","null","null","1","100","90","100","30","40","20","Average lifespan","Energy savings","",""
"","","","","","choice_trial_setup","html-keyboard-response","104","2433386","0.0-5.0-0.10","181","1","2025-04-14 14:36:20","bb671e3ae32f654b8954ea4c4635f915","","Mozilla/5.0 (Windows NT 10.0; Win64; x64) AppleWebKit/537.36 (KHTML, like Gecko) Chrome/134.0.0.0 Safari/537.36","WebKit","Chrome","134.0.0.0","Windows","10.0","https://hz8g1ckzuq.cognition.run/","en-US,en;q=0.9","r9rh9xeu4uehfzf","34","[""Black or African-American""]","No","Female","3267360.200000003","null","","<p></p>","null","choice","tcd","repulsion_2","2","washing machines","null","null","null","null","null","null","1","","","","","","","","","",""
"","","","","","choice_trial","survey-html-form","105","2437921","0.0-5.0-1.10","181","1","2025-04-14 14:36:20","bb671e3ae32f654b8954ea4c4635f915","","Mozilla/5.0 (Windows NT 10.0; Win64; x64) AppleWebKit/537.36 (KHTML, like Gecko) Chrome/134.0.0.0 Safari/537.36","WebKit","Chrome","134.0.0.0","Windows","10.0","https://hz8g1ckzuq.cognition.run/","en-US,en;q=0.9","r9rh9xeu4uehfzf","34","[""Black or African-American""]","No","Female","3267360.200000003","4522","","","{""product_choice"":""B""}","choice","tcd","repulsion_2","2","washing machines","null","null","null","null","null","null","1","30","40","20","100","90","100","Average lifespan","Energy savings","",""
"","","","","","choice_trial_setup","html-keyboard-response","106","2438233","0.0-5.0-0.11","181","1","2025-04-14 14:36:20","bb671e3ae32f654b8954ea4c4635f915","","Mozilla/5.0 (Windows NT 10.0; Win64; x64) AppleWebKit/537.36 (KHTML, like Gecko) Chrome/134.0.0.0 Safari/537.36","WebKit","Chrome","134.0.0.0","Windows","10.0","https://hz8g1ckzuq.cognition.run/","en-US,en;q=0.9","r9rh9xeu4uehfzf","34","[""Black or African-American""]","No","Female","3267360.200000003","null","","<p></p>","null","choice","dtc","attraction_2","2","laptops","null","null","null","null","null","null","1","","","","","","","","","",""
"","","","","","choice_trial","survey-html-form","107","2456873","0.0-5.0-1.11","181","1","2025-04-14 14:36:20","bb671e3ae32f654b8954ea4c4635f915","","Mozilla/5.0 (Windows NT 10.0; Win64; x64) AppleWebKit/537.36 (KHTML, like Gecko) Chrome/134.0.0.0 Safari/537.36","WebKit","Chrome","134.0.0.0","Windows","10.0","https://hz8g1ckzuq.cognition.run/","en-US,en;q=0.9","r9rh9xeu4uehfzf","34","[""Black or African-American""]","No","Female","3267360.200000003","18629","","","{""product_choice"":""C""}","choice","dtc","attraction_2","2","laptops","null","null","null","null","null","null","1","50","60","40","60","50","60","Processing speed","Memory (RAM)","",""
"","","","","","choice_trial_setup","html-keyboard-response","108","2457189","0.0-5.0-0.12","181","1","2025-04-14 14:36:20","bb671e3ae32f654b8954ea4c4635f915","","Mozilla/5.0 (Windows NT 10.0; Win64; x64) AppleWebKit/537.36 (KHTML, like Gecko) Chrome/134.0.0.0 Safari/537.36","WebKit","Chrome","134.0.0.0","Windows","10.0","https://hz8g1ckzuq.cognition.run/","en-US,en;q=0.9","r9rh9xeu4uehfzf","34","[""Black or African-American""]","No","Female","3267360.200000003","null","","<p></p>","null","choice","dtc","attraction_1","1","laptops","null","null","null","null","null","null","1","","","","","","","","","",""
"","","","","","choice_trial","survey-html-form","109","2464994","0.0-5.0-1.12","181","1","2025-04-14 14:36:20","bb671e3ae32f654b8954ea4c4635f915","","Mozilla/5.0 (Windows NT 10.0; Win64; x64) AppleWebKit/537.36 (KHTML, like Gecko) Chrome/134.0.0.0 Safari/537.36","WebKit","Chrome","134.0.0.0","Windows","10.0","https://hz8g1ckzuq.cognition.run/","en-US,en;q=0.9","r9rh9xeu4uehfzf","34","[""Black or African-American""]","No","Female","3267360.200000003","7792","","","{""product_choice"":""C""}","choice","dtc","attraction_1","1","laptops","null","null","null","null","null","null","1","60","50","60","50","60","45","Processing speed","Memory (RAM)","",""
"","","","","","choice_trial_setup","html-keyboard-response","110","2465307","0.0-5.0-0.13","181","1","2025-04-14 14:36:20","bb671e3ae32f654b8954ea4c4635f915","","Mozilla/5.0 (Windows NT 10.0; Win64; x64) AppleWebKit/537.36 (KHTML, like Gecko) Chrome/134.0.0.0 Safari/537.36","WebKit","Chrome","134.0.0.0","Windows","10.0","https://hz8g1ckzuq.cognition.run/","en-US,en;q=0.9","r9rh9xeu4uehfzf","34","[""Black or African-American""]","No","Female","3267360.200000003","null","","<p></p>","null","choice","ctd","attraction_1","1","televisions","null","null","null","null","null","null","1","","","","","","","","","",""
"","","","","","choice_trial","survey-html-form","111","2476312","0.0-5.0-1.13","181","1","2025-04-14 14:36:20","bb671e3ae32f654b8954ea4c4635f915","","Mozilla/5.0 (Windows NT 10.0; Win64; x64) AppleWebKit/537.36 (KHTML, like Gecko) Chrome/134.0.0.0 Safari/537.36","WebKit","Chrome","134.0.0.0","Windows","10.0","https://hz8g1ckzuq.cognition.run/","en-US,en;q=0.9","r9rh9xeu4uehfzf","34","[""Black or African-American""]","No","Female","3267360.200000003","10992","","","{""product_choice"":""B""}","choice","ctd","attraction_1","1","televisions","null","null","null","null","null","null","1","60","50","60","50","60","45","Screen size","Average lifespan","",""
"","","","","","choice_trial_setup","html-keyboard-response","112","2476625","0.0-5.0-0.14","181","1","2025-04-14 14:36:20","bb671e3ae32f654b8954ea4c4635f915","","Mozilla/5.0 (Windows NT 10.0; Win64; x64) AppleWebKit/537.36 (KHTML, like Gecko) Chrome/134.0.0.0 Safari/537.36","WebKit","Chrome","134.0.0.0","Windows","10.0","https://hz8g1ckzuq.cognition.run/","en-US,en;q=0.9","r9rh9xeu4uehfzf","34","[""Black or African-American""]","No","Female","3267360.200000003","null","","<p></p>","null","choice","ctd","attraction_1","1","washing machines","null","null","null","null","null","null","1","","","","","","","","","",""
"","","","","","choice_trial","survey-html-form","113","2600275","0.0-5.0-1.14","181","1","2025-04-14 14:36:20","bb671e3ae32f654b8954ea4c4635f915","","Mozilla/5.0 (Windows NT 10.0; Win64; x64) AppleWebKit/537.36 (KHTML, like Gecko) Chrome/134.0.0.0 Safari/537.36","WebKit","Chrome","134.0.0.0","Windows","10.0","https://hz8g1ckzuq.cognition.run/","en-US,en;q=0.9","r9rh9xeu4uehfzf","34","[""Black or African-American""]","No","Female","3267360.200000003","123637","","","{""product_choice"":""A""}","choice","ctd","attraction_1","1","washing machines","null","null","null","null","null","null","1","60","50","60","50","60","45","Average lifespan","Energy savings","",""
"","","","","","choice_trial_setup","html-keyboard-response","114","2600589","0.0-5.0-0.15","181","1","2025-04-14 14:36:20","bb671e3ae32f654b8954ea4c4635f915","","Mozilla/5.0 (Windows NT 10.0; Win64; x64) AppleWebKit/537.36 (KHTML, like Gecko) Chrome/134.0.0.0 Safari/537.36","WebKit","Chrome","134.0.0.0","Windows","10.0","https://hz8g1ckzuq.cognition.run/","en-US,en;q=0.9","r9rh9xeu4uehfzf","34","[""Black or African-American""]","No","Female","3267360.200000003","null","","<p></p>","null","choice","dtc","repulsion_1","2","televisions","null","null","null","null","null","null","2","","","","","","","","","",""
"","","","","","choice_trial","survey-html-form","115","2613499","0.0-5.0-1.15","181","1","2025-04-14 14:36:20","bb671e3ae32f654b8954ea4c4635f915","","Mozilla/5.0 (Windows NT 10.0; Win64; x64) AppleWebKit/537.36 (KHTML, like Gecko) Chrome/134.0.0.0 Safari/537.36","WebKit","Chrome","134.0.0.0","Windows","10.0","https://hz8g1ckzuq.cognition.run/","en-US,en;q=0.9","r9rh9xeu4uehfzf","34","[""Black or African-American""]","No","Female","3267360.200000003","12900","","","{""product_choice"":""C""}","choice","dtc","repulsion_1","2","televisions","null","null","null","null","null","null","2","30","40","25","100","90","100","Screen size","Average lifespan","",""
"","","","","","choice_trial_setup","html-keyboard-response","116","2613817","0.0-5.0-0.16","181","1","2025-04-14 14:36:20","bb671e3ae32f654b8954ea4c4635f915","","Mozilla/5.0 (Windows NT 10.0; Win64; x64) AppleWebKit/537.36 (KHTML, like Gecko) Chrome/134.0.0.0 Safari/537.36","WebKit","Chrome","134.0.0.0","Windows","10.0","https://hz8g1ckzuq.cognition.run/","en-US,en;q=0.9","r9rh9xeu4uehfzf","34","[""Black or African-American""]","No","Female","3267360.200000003","null","","<p></p>","null","choice","tcd","attraction_2","1","televisions","null","null","null","null","null","null","2","","","","","","","","","",""
"","","","","","choice_trial","survey-html-form","117","2625203","0.0-5.0-1.16","181","1","2025-04-14 14:36:20","bb671e3ae32f654b8954ea4c4635f915","","Mozilla/5.0 (Windows NT 10.0; Win64; x64) AppleWebKit/537.36 (KHTML, like Gecko) Chrome/134.0.0.0 Safari/537.36","WebKit","Chrome","134.0.0.0","Windows","10.0","https://hz8g1ckzuq.cognition.run/","en-US,en;q=0.9","r9rh9xeu4uehfzf","34","[""Black or African-American""]","No","Female","3267360.200000003","11372","","","{""product_choice"":""A""}","choice","tcd","attraction_2","1","televisions","null","null","null","null","null","null","2","60","50","60","50","60","40","Screen size","Average lifespan","",""
"","","","","","choice_trial_setup","html-keyboard-response","118","2625515","0.0-5.0-0.17","181","1","2025-04-14 14:36:20","bb671e3ae32f654b8954ea4c4635f915","","Mozilla/5.0 (Windows NT 10.0; Win64; x64) AppleWebKit/537.36 (KHTML, like Gecko) Chrome/134.0.0.0 Safari/537.36","WebKit","Chrome","134.0.0.0","Windows","10.0","https://hz8g1ckzuq.cognition.run/","en-US,en;q=0.9","r9rh9xeu4uehfzf","34","[""Black or African-American""]","No","Female","3267360.200000003","null","","<p></p>","null","choice","dtc","attraction_2","1","washing machines","null","null","null","null","null","null","1","","","","","","","","","",""
"","","","","","choice_trial","survey-html-form","119","2631473","0.0-5.0-1.17","181","1","2025-04-14 14:36:20","bb671e3ae32f654b8954ea4c4635f915","","Mozilla/5.0 (Windows NT 10.0; Win64; x64) AppleWebKit/537.36 (KHTML, like Gecko) Chrome/134.0.0.0 Safari/537.36","WebKit","Chrome","134.0.0.0","Windows","10.0","https://hz8g1ckzuq.cognition.run/","en-US,en;q=0.9","r9rh9xeu4uehfzf","34","[""Black or African-American""]","No","Female","3267360.200000003","5943","","","{""product_choice"":""C""}","choice","dtc","attraction_2","1","washing machines","null","null","null","null","null","null","1","60","50","60","50","60","40","Average lifespan","Energy savings","",""
"","","","","","choice_trial_setup","html-keyboard-response","120","2631788","0.0-5.0-0.18","181","1","2025-04-14 14:36:20","bb671e3ae32f654b8954ea4c4635f915","","Mozilla/5.0 (Windows NT 10.0; Win64; x64) AppleWebKit/537.36 (KHTML, like Gecko) Chrome/134.0.0.0 Safari/537.36","WebKit","Chrome","134.0.0.0","Windows","10.0","https://hz8g1ckzuq.cognition.run/","en-US,en;q=0.9","r9rh9xeu4uehfzf","34","[""Black or African-American""]","No","Female","3267360.200000003","null","","<p></p>","null","choice","cdt","repulsion_1","1","laptops","null","null","null","null","null","null","1","","","","","","","","","",""
"","","","","","choice_trial","survey-html-form","121","2636922","0.0-5.0-1.18","181","1","2025-04-14 14:36:20","bb671e3ae32f654b8954ea4c4635f915","","Mozilla/5.0 (Windows NT 10.0; Win64; x64) AppleWebKit/537.36 (KHTML, like Gecko) Chrome/134.0.0.0 Safari/537.36","WebKit","Chrome","134.0.0.0","Windows","10.0","https://hz8g1ckzuq.cognition.run/","en-US,en;q=0.9","r9rh9xeu4uehfzf","34","[""Black or African-American""]","No","Female","3267360.200000003","5119","","","{""product_choice"":""A""}","choice","cdt","repulsion_1","1","laptops","null","null","null","null","null","null","1","100","90","100","30","40","25","Processing speed","Memory (RAM)","",""
"","","","","","choice_trial_setup","html-keyboard-response","122","2637237","0.0-5.0-0.19","181","1","2025-04-14 14:36:20","bb671e3ae32f654b8954ea4c4635f915","","Mozilla/5.0 (Windows NT 10.0; Win64; x64) AppleWebKit/537.36 (KHTML, like Gecko) Chrome/134.0.0.0 Safari/537.36","WebKit","Chrome","134.0.0.0","Windows","10.0","https://hz8g1ckzuq.cognition.run/","en-US,en;q=0.9","r9rh9xeu4uehfzf","34","[""Black or African-American""]","No","Female","3267360.200000003","null","","<p></p>","null","choice","cdt","repulsion_2","2","televisions","null","null","null","null","null","null","1","","","","","","","","","",""
"","","","","","choice_trial","survey-html-form","123","2662242","0.0-5.0-1.19","181","1","2025-04-14 14:36:20","bb671e3ae32f654b8954ea4c4635f915","","Mozilla/5.0 (Windows NT 10.0; Win64; x64) AppleWebKit/537.36 (KHTML, like Gecko) Chrome/134.0.0.0 Safari/537.36","WebKit","Chrome","134.0.0.0","Windows","10.0","https://hz8g1ckzuq.cognition.run/","en-US,en;q=0.9","r9rh9xeu4uehfzf","34","[""Black or African-American""]","No","Female","3267360.200000003","24992","","","{""product_choice"":""A""}","choice","cdt","repulsion_2","2","televisions","null","null","null","null","null","null","1","30","40","20","100","90","100","Screen size","Average lifespan","",""
"","","","","","choice_trial_setup","html-keyboard-response","124","2662558","0.0-5.0-0.20","181","1","2025-04-14 14:36:20","bb671e3ae32f654b8954ea4c4635f915","","Mozilla/5.0 (Windows NT 10.0; Win64; x64) AppleWebKit/537.36 (KHTML, like Gecko) Chrome/134.0.0.0 Safari/537.36","WebKit","Chrome","134.0.0.0","Windows","10.0","https://hz8g1ckzuq.cognition.run/","en-US,en;q=0.9","r9rh9xeu4uehfzf","34","[""Black or African-American""]","No","Female","3267360.200000003","null","","<p></p>","null","choice","tcd","attraction_2","2","televisions","null","null","null","null","null","null","2","","","","","","","","","",""
"","","","","","choice_trial","survey-html-form","125","2675316","0.0-5.0-1.20","181","1","2025-04-14 14:36:20","bb671e3ae32f654b8954ea4c4635f915","","Mozilla/5.0 (Windows NT 10.0; Win64; x64) AppleWebKit/537.36 (KHTML, like Gecko) Chrome/134.0.0.0 Safari/537.36","WebKit","Chrome","134.0.0.0","Windows","10.0","https://hz8g1ckzuq.cognition.run/","en-US,en;q=0.9","r9rh9xeu4uehfzf","34","[""Black or African-American""]","No","Female","3267360.200000003","12742","","","{""product_choice"":""B""}","choice","tcd","attraction_2","2","televisions","null","null","null","null","null","null","2","50","60","40","60","50","60","Screen size","Average lifespan","",""
"","","","","","choice_trial_setup","html-keyboard-response","126","2675630","0.0-5.0-0.21","181","1","2025-04-14 14:36:20","bb671e3ae32f654b8954ea4c4635f915","","Mozilla/5.0 (Windows NT 10.0; Win64; x64) AppleWebKit/537.36 (KHTML, like Gecko) Chrome/134.0.0.0 Safari/537.36","WebKit","Chrome","134.0.0.0","Windows","10.0","https://hz8g1ckzuq.cognition.run/","en-US,en;q=0.9","r9rh9xeu4uehfzf","34","[""Black or African-American""]","No","Female","3267360.200000003","null","","<p></p>","null","choice","ctd","attraction_1","2","laptops","null","null","null","null","null","null","2","","","","","","","","","",""
"","","","","","choice_trial","survey-html-form","127","2695693","0.0-5.0-1.21","181","1","2025-04-14 14:36:20","bb671e3ae32f654b8954ea4c4635f915","","Mozilla/5.0 (Windows NT 10.0; Win64; x64) AppleWebKit/537.36 (KHTML, like Gecko) Chrome/134.0.0.0 Safari/537.36","WebKit","Chrome","134.0.0.0","Windows","10.0","https://hz8g1ckzuq.cognition.run/","en-US,en;q=0.9","r9rh9xeu4uehfzf","34","[""Black or African-American""]","No","Female","3267360.200000003","20049","","","{""product_choice"":""A""}","choice","ctd","attraction_1","2","laptops","null","null","null","null","null","null","2","50","60","45","60","50","60","Processing speed","Memory (RAM)","",""
"","","","","","choice_trial_setup","html-keyboard-response","128","2696007","0.0-5.0-0.22","181","1","2025-04-14 14:36:20","bb671e3ae32f654b8954ea4c4635f915","","Mozilla/5.0 (Windows NT 10.0; Win64; x64) AppleWebKit/537.36 (KHTML, like Gecko) Chrome/134.0.0.0 Safari/537.36","WebKit","Chrome","134.0.0.0","Windows","10.0","https://hz8g1ckzuq.cognition.run/","en-US,en;q=0.9","r9rh9xeu4uehfzf","34","[""Black or African-American""]","No","Female","3267360.200000003","null","","<p></p>","null","choice","dct","repulsion_1","2","washing machines","null","null","null","null","null","null","2","","","","","","","","","",""
"","","","","","choice_trial","survey-html-form","129","2828495","0.0-5.0-1.22","181","1","2025-04-14 14:36:20","bb671e3ae32f654b8954ea4c4635f915","","Mozilla/5.0 (Windows NT 10.0; Win64; x64) AppleWebKit/537.36 (KHTML, like Gecko) Chrome/134.0.0.0 Safari/537.36","WebKit","Chrome","134.0.0.0","Windows","10.0","https://hz8g1ckzuq.cognition.run/","en-US,en;q=0.9","r9rh9xeu4uehfzf","34","[""Black or African-American""]","No","Female","3267360.200000003","132472","","","{""product_choice"":""C""}","choice","dct","repulsion_1","2","washing machines","null","null","null","null","null","null","2","30","40","25","100","90","100","Average lifespan","Energy savings","",""
"","","","","","choice_trial_setup","html-keyboard-response","130","2828808","0.0-5.0-0.23","181","1","2025-04-14 14:36:20","bb671e3ae32f654b8954ea4c4635f915","","Mozilla/5.0 (Windows NT 10.0; Win64; x64) AppleWebKit/537.36 (KHTML, like Gecko) Chrome/134.0.0.0 Safari/537.36","WebKit","Chrome","134.0.0.0","Windows","10.0","https://hz8g1ckzuq.cognition.run/","en-US,en;q=0.9","r9rh9xeu4uehfzf","34","[""Black or African-American""]","No","Female","3267360.200000003","null","","<p></p>","null","choice","dct","attraction_1","1","microwave ovens","null","null","null","null","null","null","1","","","","","","","","","",""
"","","","","","choice_trial","survey-html-form","131","2913662","0.0-5.0-1.23","181","1","2025-04-14 14:36:20","bb671e3ae32f654b8954ea4c4635f915","","Mozilla/5.0 (Windows NT 10.0; Win64; x64) AppleWebKit/537.36 (KHTML, like Gecko) Chrome/134.0.0.0 Safari/537.36","WebKit","Chrome","134.0.0.0","Windows","10.0","https://hz8g1ckzuq.cognition.run/","en-US,en;q=0.9","r9rh9xeu4uehfzf","34","[""Black or African-American""]","No","Female","3267360.200000003","84841","","","{""product_choice"":""B""}","choice","dct","attraction_1","1","microwave ovens","null","null","null","null","null","null","1","60","50","60","50","60","45","Warranty","Cooking power","",""
"","","","","","choice_trial_setup","html-keyboard-response","132","2913978","0.0-5.0-0.24","181","1","2025-04-14 14:36:20","bb671e3ae32f654b8954ea4c4635f915","","Mozilla/5.0 (Windows NT 10.0; Win64; x64) AppleWebKit/537.36 (KHTML, like Gecko) Chrome/134.0.0.0 Safari/537.36","WebKit","Chrome","134.0.0.0","Windows","10.0","https://hz8g1ckzuq.cognition.run/","en-US,en;q=0.9","r9rh9xeu4uehfzf","34","[""Black or African-American""]","No","Female","3267360.200000003","null","","<p></p>","null","choice","cdt","repulsion_1","1","televisions","null","null","null","null","null","null","1","","","","","","","","","",""
"","","","","","choice_trial","survey-html-form","133","2955715","0.0-5.0-1.24","181","1","2025-04-14 14:36:20","bb671e3ae32f654b8954ea4c4635f915","","Mozilla/5.0 (Windows NT 10.0; Win64; x64) AppleWebKit/537.36 (KHTML, like Gecko) Chrome/134.0.0.0 Safari/537.36","WebKit","Chrome","134.0.0.0","Windows","10.0","https://hz8g1ckzuq.cognition.run/","en-US,en;q=0.9","r9rh9xeu4uehfzf","34","[""Black or African-American""]","No","Female","3267360.200000003","41721","","","{""product_choice"":""A""}","choice","cdt","repulsion_1","1","televisions","null","null","null","null","null","null","1","100","90","100","30","40","25","Screen size","Average lifespan","",""
"","","","","","choice_trial_setup","html-keyboard-response","134","2956030","0.0-5.0-0.25","181","1","2025-04-14 14:36:20","bb671e3ae32f654b8954ea4c4635f915","","Mozilla/5.0 (Windows NT 10.0; Win64; x64) AppleWebKit/537.36 (KHTML, like Gecko) Chrome/134.0.0.0 Safari/537.36","WebKit","Chrome","134.0.0.0","Windows","10.0","https://hz8g1ckzuq.cognition.run/","en-US,en;q=0.9","r9rh9xeu4uehfzf","34","[""Black or African-American""]","No","Female","3267360.200000003","null","","<p></p>","null","choice","dct","attraction_1","2","microwave ovens","null","null","null","null","null","null","1","","","","","","","","","",""
"","","","","","choice_trial","survey-html-form","135","2960545","0.0-5.0-1.25","181","1","2025-04-14 14:36:20","bb671e3ae32f654b8954ea4c4635f915","","Mozilla/5.0 (Windows NT 10.0; Win64; x64) AppleWebKit/537.36 (KHTML, like Gecko) Chrome/134.0.0.0 Safari/537.36","WebKit","Chrome","134.0.0.0","Windows","10.0","https://hz8g1ckzuq.cognition.run/","en-US,en;q=0.9","r9rh9xeu4uehfzf","34","[""Black or African-American""]","No","Female","3267360.200000003","4501","","","{""product_choice"":""C""}","choice","dct","attraction_1","2","microwave ovens","null","null","null","null","null","null","1","50","60","45","60","50","60","Warranty","Cooking power","",""
"","","","","","choice_trial_setup","html-keyboard-response","136","2960864","0.0-5.0-0.26","181","1","2025-04-14 14:36:20","bb671e3ae32f654b8954ea4c4635f915","","Mozilla/5.0 (Windows NT 10.0; Win64; x64) AppleWebKit/537.36 (KHTML, like Gecko) Chrome/134.0.0.0 Safari/537.36","WebKit","Chrome","134.0.0.0","Windows","10.0","https://hz8g1ckzuq.cognition.run/","en-US,en;q=0.9","r9rh9xeu4uehfzf","34","[""Black or African-American""]","No","Female","3267360.200000003","null","","<p></p>","null","choice","bww","catch","null","microwave ovens","80","95","45","15","5","40","1","","","","","","","","","",""
"","","","","","choice_trial","survey-html-form","137","2998161","0.0-5.0-1.26","181","1","2025-04-14 14:36:20","bb671e3ae32f654b8954ea4c4635f915","","Mozilla/5.0 (Windows NT 10.0; Win64; x64) AppleWebKit/537.36 (KHTML, like Gecko) Chrome/134.0.0.0 Safari/537.36","WebKit","Chrome","134.0.0.0","Windows","10.0","https://hz8g1ckzuq.cognition.run/","en-US,en;q=0.9","r9rh9xeu4uehfzf","34","[""Black or African-American""]","No","Female","3267360.200000003","37282","","","{""product_choice"":""A""}","choice","bww","catch","null","microwave ovens","80","95","45","15","5","40","1","null","null","null","null","null","null","Warranty","Cooking power","",""
"","","","","","choice_trial_setup","html-keyboard-response","138","2998477","0.0-5.0-0.27","181","1","2025-04-14 14:36:20","bb671e3ae32f654b8954ea4c4635f915","","Mozilla/5.0 (Windows NT 10.0; Win64; x64) AppleWebKit/537.36 (KHTML, like Gecko) Chrome/134.0.0.0 Safari/537.36","WebKit","Chrome","134.0.0.0","Windows","10.0","https://hz8g1ckzuq.cognition.run/","en-US,en;q=0.9","r9rh9xeu4uehfzf","34","[""Black or African-American""]","No","Female","3267360.200000003","null","","<p></p>","null","choice","dtc","repulsion_2","1","televisions","null","null","null","null","null","null","2","","","","","","","","","",""
"","","","","","choice_trial","survey-html-form","139","3008170","0.0-5.0-1.27","181","1","2025-04-14 14:36:20","bb671e3ae32f654b8954ea4c4635f915","","Mozilla/5.0 (Windows NT 10.0; Win64; x64) AppleWebKit/537.36 (KHTML, like Gecko) Chrome/134.0.0.0 Safari/537.36","WebKit","Chrome","134.0.0.0","Windows","10.0","https://hz8g1ckzuq.cognition.run/","en-US,en;q=0.9","r9rh9xeu4uehfzf","34","[""Black or African-American""]","No","Female","3267360.200000003","9679","","","{""product_choice"":""C""}","choice","dtc","repulsion_2","1","televisions","null","null","null","null","null","null","2","100","90","100","30","40","20","Screen size","Average lifespan","",""
"","","","","","choice_trial_setup","html-keyboard-response","140","3008486","0.0-5.0-0.28","181","1","2025-04-14 14:36:20","bb671e3ae32f654b8954ea4c4635f915","","Mozilla/5.0 (Windows NT 10.0; Win64; x64) AppleWebKit/537.36 (KHTML, like Gecko) Chrome/134.0.0.0 Safari/537.36","WebKit","Chrome","134.0.0.0","Windows","10.0","https://hz8g1ckzuq.cognition.run/","en-US,en;q=0.9","r9rh9xeu4uehfzf","34","[""Black or African-American""]","No","Female","3267360.200000003","null","","<p></p>","null","choice","wwb","catch","null","washing machines","85","70","45","45","40","20","1","","","","","","","","","",""
"","","","","","choice_trial","survey-html-form","141","3015144","0.0-5.0-1.28","181","1","2025-04-14 14:36:20","bb671e3ae32f654b8954ea4c4635f915","","Mozilla/5.0 (Windows NT 10.0; Win64; x64) AppleWebKit/537.36 (KHTML, like Gecko) Chrome/134.0.0.0 Safari/537.36","WebKit","Chrome","134.0.0.0","Windows","10.0","https://hz8g1ckzuq.cognition.run/","en-US,en;q=0.9","r9rh9xeu4uehfzf","34","[""Black or African-American""]","No","Female","3267360.200000003","6642","","","{""product_choice"":""C""}","choice","wwb","catch","null","washing machines","85","70","45","45","40","20","1","null","null","null","null","null","null","Average lifespan","Energy savings","",""
"","","","","","choice_trial_setup","html-keyboard-response","142","3015461","0.0-5.0-0.29","181","1","2025-04-14 14:36:20","bb671e3ae32f654b8954ea4c4635f915","","Mozilla/5.0 (Windows NT 10.0; Win64; x64) AppleWebKit/537.36 (KHTML, like Gecko) Chrome/134.0.0.0 Safari/537.36","WebKit","Chrome","134.0.0.0","Windows","10.0","https://hz8g1ckzuq.cognition.run/","en-US,en;q=0.9","r9rh9xeu4uehfzf","34","[""Black or African-American""]","No","Female","3267360.200000003","null","","<p></p>","null","choice","cdt","repulsion_1","1","microwave ovens","null","null","null","null","null","null","2","","","","","","","","","",""
"","","","","","choice_trial","survey-html-form","143","3025955","0.0-5.0-1.29","181","1","2025-04-14 14:36:20","bb671e3ae32f654b8954ea4c4635f915","","Mozilla/5.0 (Windows NT 10.0; Win64; x64) AppleWebKit/537.36 (KHTML, like Gecko) Chrome/134.0.0.0 Safari/537.36","WebKit","Chrome","134.0.0.0","Windows","10.0","https://hz8g1ckzuq.cognition.run/","en-US,en;q=0.9","r9rh9xeu4uehfzf","34","[""Black or African-American""]","No","Female","3267360.200000003","10480","","","{""product_choice"":""A""}","choice","cdt","repulsion_1","1","microwave ovens","null","null","null","null","null","null","2","100","90","100","30","40","25","Warranty","Cooking power","",""
"","","","","","choice_trial_setup","html-keyboard-response","144","3026270","0.0-5.0-0.30","181","1","2025-04-14 14:36:20","bb671e3ae32f654b8954ea4c4635f915","","Mozilla/5.0 (Windows NT 10.0; Win64; x64) AppleWebKit/537.36 (KHTML, like Gecko) Chrome/134.0.0.0 Safari/537.36","WebKit","Chrome","134.0.0.0","Windows","10.0","https://hz8g1ckzuq.cognition.run/","en-US,en;q=0.9","r9rh9xeu4uehfzf","34","[""Black or African-American""]","No","Female","3267360.200000003","null","","<p></p>","null","choice","tdc","attraction_2","2","microwave ovens","null","null","null","null","null","null","2","","","","","","","","","",""
"","","","","","choice_trial","survey-html-form","145","3087090","0.0-5.0-1.30","181","1","2025-04-14 14:36:20","bb671e3ae32f654b8954ea4c4635f915","","Mozilla/5.0 (Windows NT 10.0; Win64; x64) AppleWebKit/537.36 (KHTML, like Gecko) Chrome/134.0.0.0 Safari/537.36","WebKit","Chrome","134.0.0.0","Windows","10.0","https://hz8g1ckzuq.cognition.run/","en-US,en;q=0.9","r9rh9xeu4uehfzf","34","[""Black or African-American""]","No","Female","3267360.200000003","60804","","","{""product_choice"":""A""}","choice","tdc","attraction_2","2","microwave ovens","null","null","null","null","null","null","2","50","60","40","60","50","60","Warranty","Cooking power","",""
"","","","","","choice_trial_setup","html-keyboard-response","146","3087408","0.0-5.0-0.31","181","1","2025-04-14 14:36:20","bb671e3ae32f654b8954ea4c4635f915","","Mozilla/5.0 (Windows NT 10.0; Win64; x64) AppleWebKit/537.36 (KHTML, like Gecko) Chrome/134.0.0.0 Safari/537.36","WebKit","Chrome","134.0.0.0","Windows","10.0","https://hz8g1ckzuq.cognition.run/","en-US,en;q=0.9","r9rh9xeu4uehfzf","34","[""Black or African-American""]","No","Female","3267360.200000003","null","","<p></p>","null","choice","tdc","attraction_2","2","washing machines","null","null","null","null","null","null","2","","","","","","","","","",""
"","","","","","choice_trial","survey-html-form","147","3108101","0.0-5.0-1.31","181","1","2025-04-14 14:36:20","bb671e3ae32f654b8954ea4c4635f915","","Mozilla/5.0 (Windows NT 10.0; Win64; x64) AppleWebKit/537.36 (KHTML, like Gecko) Chrome/134.0.0.0 Safari/537.36","WebKit","Chrome","134.0.0.0","Windows","10.0","https://hz8g1ckzuq.cognition.run/","en-US,en;q=0.9","r9rh9xeu4uehfzf","34","[""Black or African-American""]","No","Female","3267360.200000003","20675","","","{""product_choice"":""A""}","choice","tdc","attraction_2","2","washing machines","null","null","null","null","null","null","2","50","60","40","60","50","60","Average lifespan","Energy savings","",""
"","","","","","choice_trial_setup","html-keyboard-response","148","3108418","0.0-5.0-0.32","181","1","2025-04-14 14:36:20","bb671e3ae32f654b8954ea4c4635f915","","Mozilla/5.0 (Windows NT 10.0; Win64; x64) AppleWebKit/537.36 (KHTML, like Gecko) Chrome/134.0.0.0 Safari/537.36","WebKit","Chrome","134.0.0.0","Windows","10.0","https://hz8g1ckzuq.cognition.run/","en-US,en;q=0.9","r9rh9xeu4uehfzf","34","[""Black or African-American""]","No","Female","3267360.200000003","null","","<p></p>","null","choice","cdt","repulsion_2","1","microwave ovens","null","null","null","null","null","null","2","","","","","","","","","",""
"","","","","","choice_trial","survey-html-form","149","3136636","0.0-5.0-1.32","181","1","2025-04-14 14:36:20","bb671e3ae32f654b8954ea4c4635f915","","Mozilla/5.0 (Windows NT 10.0; Win64; x64) AppleWebKit/537.36 (KHTML, like Gecko) Chrome/134.0.0.0 Safari/537.36","WebKit","Chrome","134.0.0.0","Windows","10.0","https://hz8g1ckzuq.cognition.run/","en-US,en;q=0.9","r9rh9xeu4uehfzf","34","[""Black or African-American""]","No","Female","3267360.200000003","28202","","","{""product_choice"":""A""}","choice","cdt","repulsion_2","1","microwave ovens","null","null","null","null","null","null","2","100","90","100","30","40","20","Warranty","Cooking power","",""
"","","","","","choice_trial_setup","html-keyboard-response","150","3136953","0.0-5.0-0.33","181","1","2025-04-14 14:36:20","bb671e3ae32f654b8954ea4c4635f915","","Mozilla/5.0 (Windows NT 10.0; Win64; x64) AppleWebKit/537.36 (KHTML, like Gecko) Chrome/134.0.0.0 Safari/537.36","WebKit","Chrome","134.0.0.0","Windows","10.0","https://hz8g1ckzuq.cognition.run/","en-US,en;q=0.9","r9rh9xeu4uehfzf","34","[""Black or African-American""]","No","Female","3267360.200000003","null","","<p></p>","null","choice","bww","catch","null","microwave ovens","80","80","45","15","30","45","2","","","","","","","","","",""
"","","","","","choice_trial","survey-html-form","151","3141940","0.0-5.0-1.33","181","1","2025-04-14 14:36:20","bb671e3ae32f654b8954ea4c4635f915","","Mozilla/5.0 (Windows NT 10.0; Win64; x64) AppleWebKit/537.36 (KHTML, like Gecko) Chrome/134.0.0.0 Safari/537.36","WebKit","Chrome","134.0.0.0","Windows","10.0","https://hz8g1ckzuq.cognition.run/","en-US,en;q=0.9","r9rh9xeu4uehfzf","34","[""Black or African-American""]","No","Female","3267360.200000003","4971","","","{""product_choice"":""A""}","choice","bww","catch","null","microwave ovens","80","80","45","15","30","45","2","null","null","null","null","null","null","Warranty","Cooking power","",""
"","","","","","choice_trial_setup","html-keyboard-response","152","3142256","0.0-5.0-0.34","181","1","2025-04-14 14:36:20","bb671e3ae32f654b8954ea4c4635f915","","Mozilla/5.0 (Windows NT 10.0; Win64; x64) AppleWebKit/537.36 (KHTML, like Gecko) Chrome/134.0.0.0 Safari/537.36","WebKit","Chrome","134.0.0.0","Windows","10.0","https://hz8g1ckzuq.cognition.run/","en-US,en;q=0.9","r9rh9xeu4uehfzf","34","[""Black or African-American""]","No","Female","3267360.200000003","null","","<p></p>","null","choice","bww","catch","null","washing machines","50","75","25","5","25","30","1","","","","","","","","","",""
