"success","timeout","failed_images","failed_audio","failed_video","screen_id","trial_type","trial_index","time_elapsed","internal_node_id","run_id","condition","recorded_at","source_code_version","ip","user_agent","device","browser","browser_version","platform","platform_version","referer","accept_language","ppt_id","age","race","ethnicity","gender","exp_duration","rt","view_history","stimulus","response","phase","order","effect","t_high","category","d1_best","d2_best","d1_worst1","d2_worst1","d1_worst2","d2_worst2","first_dim","d1_t","d1_c","d1_d","d2_t","d2_c","d2_d","d1_name","d2_name","strategy_response","question_order"
"true","false","[]","[]","[]","img preload","preload","0","870","0.0-0.0","182","1","2025-04-14 14:36:28","bb671e3ae32f654b8954ea4c4635f915","","Mozilla/5.0 (Macintosh; Intel Mac OS X 10_15_7) AppleWebKit/537.36 (KHTML, like Gecko) Chrome/135.0.0.0 Safari/537.36","Macintosh","Chrome","135.0.0.0","OS X","10_15_7","https://hz8g1ckzuq.cognition.run/","en-US,en;q=0.9","ae8qska6c1uu8by","43","[""White""]","No","Female","2262868.5999999996","","","","","","","","","","","","","","","","","","","","","","","","","",""
"true","","","","","","fullscreen","1","40051","0.0-1.0","182","1","2025-04-14 14:36:28","bb671e3ae32f654b8954ea4c4635f915","","Mozilla/5.0 (Macintosh; Intel Mac OS X 10_15_7) AppleWebKit/537.36 (KHTML, like Gecko) Chrome/135.0.0.0 Safari/537.36","Macintosh","Chrome","135.0.0.0","OS X","10_15_7","https://hz8g1ckzuq.cognition.run/","en-US,en;q=0.9","ae8qska6c1uu8by","43","[""White""]","No","Female","2262868.5999999996","38178","","","","","","","","","","","","","","","","","","","","","","","","",""
"","","","","","","instructions","2","217252","0.0-2.0","182","1","2025-04-14 14:36:28","bb671e3ae32f654b8954ea4c4635f915","","Mozilla/5.0 (Macintosh; Intel Mac OS X 10_15_7) AppleWebKit/537.36 (KHTML, like Gecko) Chrome/135.0.0.0 Safari/537.36","Macintosh","Chrome","135.0.0.0","OS X","10_15_7","https://hz8g1ckzuq.cognition.run/","en-US,en;q=0.9","ae8qska6c1uu8by","43","[""White""]","No","Female","2262868.5999999996","177202","[{""page_index"":0,""viewing_time"":28815},{""page_index"":1,""viewing_time"":32250},{""page_index"":2,""viewing_time"":3267},{""page_index"":3,""viewing_time"":53684},{""page_index"":4,""viewing_time"":12585},{""page_index"":5,""viewing_time"":5017},{""page_index"":6,""viewing_time"":5267},{""page_index"":7,""viewing_time"":20400},{""page_index"":8,""viewing_time"":9701},{""page_index"":9,""viewing_time"":6217}]","","","","","","","","","","","","","","","","","","","","","","","",""
"","","","","","rating_trial_setup","html-keyboard-response","3","217558","0.0-3.0-0.0","182","1","2025-04-14 14:36:28","bb671e3ae32f654b8954ea4c4635f915","","Mozilla/5.0 (Macintosh; Intel Mac OS X 10_15_7) AppleWebKit/537.36 (KHTML, like Gecko) Chrome/135.0.0.0 Safari/537.36","Macintosh","Chrome","135.0.0.0","OS X","10_15_7","https://hz8g1ckzuq.cognition.run/","en-US,en;q=0.9","ae8qska6c1uu8by","43","[""White""]","No","Female","2262868.5999999996","null","","<p></p>","null","rating","tdc","attraction_2","2","microwave ovens","null","null","null","null","null","null","2","","","","","","","","","",""
"","","","","","rating_trial","survey-html-form","4","255253","0.0-3.0-1.0","182","1","2025-04-14 14:36:28","bb671e3ae32f654b8954ea4c4635f915","","Mozilla/5.0 (Macintosh; Intel Mac OS X 10_15_7) AppleWebKit/537.36 (KHTML, like Gecko) Chrome/135.0.0.0 Safari/537.36","Macintosh","Chrome","135.0.0.0","OS X","10_15_7","https://hz8g1ckzuq.cognition.run/","en-US,en;q=0.9","ae8qska6c1uu8by","43","[""White""]","No","Female","2262868.5999999996","37688","","","{""price_1"":""225"",""price_2"":""200"",""price_3"":""189""}","rating","tdc","attraction_2","2","microwave ovens","null","null","null","null","null","null","2","50","60","40","60","50","60","Warranty","Cooking power","",""
"","","","","","rating_trial_setup","html-keyboard-response","5","255556","0.0-3.0-0.1","182","1","2025-04-14 14:36:28","bb671e3ae32f654b8954ea4c4635f915","","Mozilla/5.0 (Macintosh; Intel Mac OS X 10_15_7) AppleWebKit/537.36 (KHTML, like Gecko) Chrome/135.0.0.0 Safari/537.36","Macintosh","Chrome","135.0.0.0","OS X","10_15_7","https://hz8g1ckzuq.cognition.run/","en-US,en;q=0.9","ae8qska6c1uu8by","43","[""White""]","No","Female","2262868.5999999996","null","","<p></p>","null","rating","dct","attraction_1","2","laptops","null","null","null","null","null","null","2","","","","","","","","","",""
"","","","","","rating_trial","survey-html-form","6","406621","0.0-3.0-1.1","182","1","2025-04-14 14:36:28","bb671e3ae32f654b8954ea4c4635f915","","Mozilla/5.0 (Macintosh; Intel Mac OS X 10_15_7) AppleWebKit/537.36 (KHTML, like Gecko) Chrome/135.0.0.0 Safari/537.36","Macintosh","Chrome","135.0.0.0","OS X","10_15_7","https://hz8g1ckzuq.cognition.run/","en-US,en;q=0.9","ae8qska6c1uu8by","43","[""White""]","No","Female","2262868.5999999996","151064","","","{""price_1"":""995"",""price_2"":""999"",""price_3"":""999""}","rating","dct","attraction_1","2","laptops","null","null","null","null","null","null","2","50","60","45","60","50","60","Processing speed","Memory (RAM)","",""
"","","","","","rating_trial_setup","html-keyboard-response","7","406924","0.0-3.0-0.2","182","1","2025-04-14 14:36:28","bb671e3ae32f654b8954ea4c4635f915","","Mozilla/5.0 (Macintosh; Intel Mac OS X 10_15_7) AppleWebKit/537.36 (KHTML, like Gecko) Chrome/135.0.0.0 Safari/537.36","Macintosh","Chrome","135.0.0.0","OS X","10_15_7","https://hz8g1ckzuq.cognition.run/","en-US,en;q=0.9","ae8qska6c1uu8by","43","[""White""]","No","Female","2262868.5999999996","null","","<p></p>","null","rating","ctd","attraction_1","2","microwave ovens","null","null","null","null","null","null","2","","","","","","","","","",""
"","","","","","rating_trial","survey-html-form","8","464622","0.0-3.0-1.2","182","1","2025-04-14 14:36:28","bb671e3ae32f654b8954ea4c4635f915","","Mozilla/5.0 (Macintosh; Intel Mac OS X 10_15_7) AppleWebKit/537.36 (KHTML, like Gecko) Chrome/135.0.0.0 Safari/537.36","Macintosh","Chrome","135.0.0.0","OS X","10_15_7","https://hz8g1ckzuq.cognition.run/","en-US,en;q=0.9","ae8qska6c1uu8by","43","[""White""]","No","Female","2262868.5999999996","57696","","","{""price_1"":""218"",""price_2"":""225"",""price_3"":""204""}","rating","ctd","attraction_1","2","microwave ovens","null","null","null","null","null","null","2","50","60","45","60","50","60","Warranty","Cooking power","",""
"","","","","","rating_trial_setup","html-keyboard-response","9","464924","0.0-3.0-0.3","182","1","2025-04-14 14:36:28","bb671e3ae32f654b8954ea4c4635f915","","Mozilla/5.0 (Macintosh; Intel Mac OS X 10_15_7) AppleWebKit/537.36 (KHTML, like Gecko) Chrome/135.0.0.0 Safari/537.36","Macintosh","Chrome","135.0.0.0","OS X","10_15_7","https://hz8g1ckzuq.cognition.run/","en-US,en;q=0.9","ae8qska6c1uu8by","43","[""White""]","No","Female","2262868.5999999996","null","","<p></p>","null","rating","bww","catch","null","washing machines","55","85","25","10","20","35","2","","","","","","","","","",""
"","","","","","rating_trial","survey-html-form","10","896468","0.0-3.0-1.3","182","1","2025-04-14 14:36:28","bb671e3ae32f654b8954ea4c4635f915","","Mozilla/5.0 (Macintosh; Intel Mac OS X 10_15_7) AppleWebKit/537.36 (KHTML, like Gecko) Chrome/135.0.0.0 Safari/537.36","Macintosh","Chrome","135.0.0.0","OS X","10_15_7","https://hz8g1ckzuq.cognition.run/","en-US,en;q=0.9","ae8qska6c1uu8by","43","[""White""]","No","Female","2262868.5999999996","431636","","","{""price_1"":""995"",""price_2"":""600"",""price_3"":""575""}","rating","bww","catch","null","washing machines","55","85","25","10","20","35","2","null","null","null","null","null","null","Average lifespan","Energy savings","",""
"","","","","","rating_trial_setup","html-keyboard-response","11","896770","0.0-3.0-0.4","182","1","2025-04-14 14:36:28","bb671e3ae32f654b8954ea4c4635f915","","Mozilla/5.0 (Macintosh; Intel Mac OS X 10_15_7) AppleWebKit/537.36 (KHTML, like Gecko) Chrome/135.0.0.0 Safari/537.36","Macintosh","Chrome","135.0.0.0","OS X","10_15_7","https://hz8g1ckzuq.cognition.run/","en-US,en;q=0.9","ae8qska6c1uu8by","43","[""White""]","No","Female","2262868.5999999996","null","","<p></p>","null","rating","wwb","catch","null","washing machines","70","80","10","35","35","25","1","","","","","","","","","",""
"","","","","","rating_trial","survey-html-form","12","940684","0.0-3.0-1.4","182","1","2025-04-14 14:36:28","bb671e3ae32f654b8954ea4c4635f915","","Mozilla/5.0 (Macintosh; Intel Mac OS X 10_15_7) AppleWebKit/537.36 (KHTML, like Gecko) Chrome/135.0.0.0 Safari/537.36","Macintosh","Chrome","135.0.0.0","OS X","10_15_7","https://hz8g1ckzuq.cognition.run/","en-US,en;q=0.9","ae8qska6c1uu8by","43","[""White""]","No","Female","2262868.5999999996","43913","","","{""price_1"":""895"",""price_2"":""899"",""price_3"":""1015""}","rating","wwb","catch","null","washing machines","70","80","10","35","35","25","1","null","null","null","null","null","null","Average lifespan","Energy savings","",""
"","","","","","rating_trial_setup","html-keyboard-response","13","940987","0.0-3.0-0.5","182","1","2025-04-14 14:36:28","bb671e3ae32f654b8954ea4c4635f915","","Mozilla/5.0 (Macintosh; Intel Mac OS X 10_15_7) AppleWebKit/537.36 (KHTML, like Gecko) Chrome/135.0.0.0 Safari/537.36","Macintosh","Chrome","135.0.0.0","OS X","10_15_7","https://hz8g1ckzuq.cognition.run/","en-US,en;q=0.9","ae8qska6c1uu8by","43","[""White""]","No","Female","2262868.5999999996","null","","<p></p>","null","rating","wbw","catch","null","microwave ovens","75","95","50","30","10","10","2","","","","","","","","","",""
"","","","","","rating_trial","survey-html-form","14","977217","0.0-3.0-1.5","182","1","2025-04-14 14:36:28","bb671e3ae32f654b8954ea4c4635f915","","Mozilla/5.0 (Macintosh; Intel Mac OS X 10_15_7) AppleWebKit/537.36 (KHTML, like Gecko) Chrome/135.0.0.0 Safari/537.36","Macintosh","Chrome","135.0.0.0","OS X","10_15_7","https://hz8g1ckzuq.cognition.run/","en-US,en;q=0.9","ae8qska6c1uu8by","43","[""White""]","No","Female","2262868.5999999996","36228","","","{""price_1"":""199"",""price_2"":""349"",""price_3"":""195""}","rating","wbw","catch","null","microwave ovens","75","95","50","30","10","10","2","null","null","null","null","null","null","Warranty","Cooking power","",""
"","","","","","rating_trial_setup","html-keyboard-response","15","977519","0.0-3.0-0.6","182","1","2025-04-14 14:36:28","bb671e3ae32f654b8954ea4c4635f915","","Mozilla/5.0 (Macintosh; Intel Mac OS X 10_15_7) AppleWebKit/537.36 (KHTML, like Gecko) Chrome/135.0.0.0 Safari/537.36","Macintosh","Chrome","135.0.0.0","OS X","10_15_7","https://hz8g1ckzuq.cognition.run/","en-US,en;q=0.9","ae8qska6c1uu8by","43","[""White""]","No","Female","2262868.5999999996","null","","<p></p>","null","rating","tdc","repulsion_1","1","televisions","null","null","null","null","null","null","2","","","","","","","","","",""
"","","","","","rating_trial","survey-html-form","16","1008985","0.0-3.0-1.6","182","1","2025-04-14 14:36:28","bb671e3ae32f654b8954ea4c4635f915","","Mozilla/5.0 (Macintosh; Intel Mac OS X 10_15_7) AppleWebKit/537.36 (KHTML, like Gecko) Chrome/135.0.0.0 Safari/537.36","Macintosh","Chrome","135.0.0.0","OS X","10_15_7","https://hz8g1ckzuq.cognition.run/","en-US,en;q=0.9","ae8qska6c1uu8by","43","[""White""]","No","Female","2262868.5999999996","31463","","","{""price_1"":""995"",""price_2"":""995"",""price_3"":""995""}","rating","tdc","repulsion_1","1","televisions","null","null","null","null","null","null","2","100","90","100","30","40","25","Screen size","Average lifespan","",""
"","","","","","rating_trial_setup","html-keyboard-response","17","1009287","0.0-3.0-0.7","182","1","2025-04-14 14:36:28","bb671e3ae32f654b8954ea4c4635f915","","Mozilla/5.0 (Macintosh; Intel Mac OS X 10_15_7) AppleWebKit/537.36 (KHTML, like Gecko) Chrome/135.0.0.0 Safari/537.36","Macintosh","Chrome","135.0.0.0","OS X","10_15_7","https://hz8g1ckzuq.cognition.run/","en-US,en;q=0.9","ae8qska6c1uu8by","43","[""White""]","No","Female","2262868.5999999996","null","","<p></p>","null","rating","wwb","catch","null","televisions","55","60","25","35","5","40","1","","","","","","","","","",""
"","","","","","rating_trial","survey-html-form","18","1030300","0.0-3.0-1.7","182","1","2025-04-14 14:36:28","bb671e3ae32f654b8954ea4c4635f915","","Mozilla/5.0 (Macintosh; Intel Mac OS X 10_15_7) AppleWebKit/537.36 (KHTML, like Gecko) Chrome/135.0.0.0 Safari/537.36","Macintosh","Chrome","135.0.0.0","OS X","10_15_7","https://hz8g1ckzuq.cognition.run/","en-US,en;q=0.9","ae8qska6c1uu8by","43","[""White""]","No","Female","2262868.5999999996","21011","","","{""price_1"":""555"",""price_2"":""495"",""price_3"":""895""}","rating","wwb","catch","null","televisions","55","60","25","35","5","40","1","null","null","null","null","null","null","Screen size","Average lifespan","",""
"","","","","","rating_trial_setup","html-keyboard-response","19","1030603","0.0-3.0-0.8","182","1","2025-04-14 14:36:28","bb671e3ae32f654b8954ea4c4635f915","","Mozilla/5.0 (Macintosh; Intel Mac OS X 10_15_7) AppleWebKit/537.36 (KHTML, like Gecko) Chrome/135.0.0.0 Safari/537.36","Macintosh","Chrome","135.0.0.0","OS X","10_15_7","https://hz8g1ckzuq.cognition.run/","en-US,en;q=0.9","ae8qska6c1uu8by","43","[""White""]","No","Female","2262868.5999999996","null","","<p></p>","null","rating","tdc","attraction_1","1","microwave ovens","null","null","null","null","null","null","2","","","","","","","","","",""
"","","","","","rating_trial","survey-html-form","20","1074916","0.0-3.0-1.8","182","1","2025-04-14 14:36:28","bb671e3ae32f654b8954ea4c4635f915","","Mozilla/5.0 (Macintosh; Intel Mac OS X 10_15_7) AppleWebKit/537.36 (KHTML, like Gecko) Chrome/135.0.0.0 Safari/537.36","Macintosh","Chrome","135.0.0.0","OS X","10_15_7","https://hz8g1ckzuq.cognition.run/","en-US,en;q=0.9","ae8qska6c1uu8by","43","[""White""]","No","Female","2262868.5999999996","44311","","","{""price_1"":""225"",""price_2"":""199"",""price_3"":""225""}","rating","tdc","attraction_1","1","microwave ovens","null","null","null","null","null","null","2","60","50","60","50","60","45","Warranty","Cooking power","",""
"","","","","","rating_trial_setup","html-keyboard-response","21","1075219","0.0-3.0-0.9","182","1","2025-04-14 14:36:28","bb671e3ae32f654b8954ea4c4635f915","","Mozilla/5.0 (Macintosh; Intel Mac OS X 10_15_7) AppleWebKit/537.36 (KHTML, like Gecko) Chrome/135.0.0.0 Safari/537.36","Macintosh","Chrome","135.0.0.0","OS X","10_15_7","https://hz8g1ckzuq.cognition.run/","en-US,en;q=0.9","ae8qska6c1uu8by","43","[""White""]","No","Female","2262868.5999999996","null","","<p></p>","null","rating","tdc","repulsion_1","2","microwave ovens","null","null","null","null","null","null","1","","","","","","","","","",""
"","","","","","rating_trial","survey-html-form","22","1104233","0.0-3.0-1.9","182","1","2025-04-14 14:36:28","bb671e3ae32f654b8954ea4c4635f915","","Mozilla/5.0 (Macintosh; Intel Mac OS X 10_15_7) AppleWebKit/537.36 (KHTML, like Gecko) Chrome/135.0.0.0 Safari/537.36","Macintosh","Chrome","135.0.0.0","OS X","10_15_7","https://hz8g1ckzuq.cognition.run/","en-US,en;q=0.9","ae8qska6c1uu8by","43","[""White""]","No","Female","2262868.5999999996","29009","","","{""price_1"":""225"",""price_2"":""225"",""price_3"":""225""}","rating","tdc","repulsion_1","2","microwave ovens","null","null","null","null","null","null","1","30","40","25","100","90","100","Warranty","Cooking power","",""
"","","","","","rating_trial_setup","html-keyboard-response","23","1104536","0.0-3.0-0.10","182","1","2025-04-14 14:36:28","bb671e3ae32f654b8954ea4c4635f915","","Mozilla/5.0 (Macintosh; Intel Mac OS X 10_15_7) AppleWebKit/537.36 (KHTML, like Gecko) Chrome/135.0.0.0 Safari/537.36","Macintosh","Chrome","135.0.0.0","OS X","10_15_7","https://hz8g1ckzuq.cognition.run/","en-US,en;q=0.9","ae8qska6c1uu8by","43","[""White""]","No","Female","2262868.5999999996","null","","<p></p>","null","rating","bww","catch","null","laptops","50","65","50","25","10","30","2","","","","","","","","","",""
"","","","","","rating_trial","survey-html-form","24","1124616","0.0-3.0-1.10","182","1","2025-04-14 14:36:28","bb671e3ae32f654b8954ea4c4635f915","","Mozilla/5.0 (Macintosh; Intel Mac OS X 10_15_7) AppleWebKit/537.36 (KHTML, like Gecko) Chrome/135.0.0.0 Safari/537.36","Macintosh","Chrome","135.0.0.0","OS X","10_15_7","https://hz8g1ckzuq.cognition.run/","en-US,en;q=0.9","ae8qska6c1uu8by","43","[""White""]","No","Female","2262868.5999999996","20077","","","{""price_1"":""1015"",""price_2"":""895"",""price_3"":""795""}","rating","bww","catch","null","laptops","50","65","50","25","10","30","2","null","null","null","null","null","null","Processing speed","Memory (RAM)","",""
"","","","","","rating_trial_setup","html-keyboard-response","25","1124919","0.0-3.0-0.11","182","1","2025-04-14 14:36:28","bb671e3ae32f654b8954ea4c4635f915","","Mozilla/5.0 (Macintosh; Intel Mac OS X 10_15_7) AppleWebKit/537.36 (KHTML, like Gecko) Chrome/135.0.0.0 Safari/537.36","Macintosh","Chrome","135.0.0.0","OS X","10_15_7","https://hz8g1ckzuq.cognition.run/","en-US,en;q=0.9","ae8qska6c1uu8by","43","[""White""]","No","Female","2262868.5999999996","null","","<p></p>","null","rating","tcd","attraction_2","2","washing machines","null","null","null","null","null","null","2","","","","","","","","","",""
"","","","","","rating_trial","survey-html-form","26","1164682","0.0-3.0-1.11","182","1","2025-04-14 14:36:28","bb671e3ae32f654b8954ea4c4635f915","","Mozilla/5.0 (Macintosh; Intel Mac OS X 10_15_7) AppleWebKit/537.36 (KHTML, like Gecko) Chrome/135.0.0.0 Safari/537.36","Macintosh","Chrome","135.0.0.0","OS X","10_15_7","https://hz8g1ckzuq.cognition.run/","en-US,en;q=0.9","ae8qska6c1uu8by","43","[""White""]","No","Female","2262868.5999999996","39759","","","{""price_1"":""875"",""price_2"":""875"",""price_3"":""805""}","rating","tcd","attraction_2","2","washing machines","null","null","null","null","null","null","2","50","60","40","60","50","60","Average lifespan","Energy savings","",""
"","","","","","rating_trial_setup","html-keyboard-response","27","1164986","0.0-3.0-0.12","182","1","2025-04-14 14:36:28","bb671e3ae32f654b8954ea4c4635f915","","Mozilla/5.0 (Macintosh; Intel Mac OS X 10_15_7) AppleWebKit/537.36 (KHTML, like Gecko) Chrome/135.0.0.0 Safari/537.36","Macintosh","Chrome","135.0.0.0","OS X","10_15_7","https://hz8g1ckzuq.cognition.run/","en-US,en;q=0.9","ae8qska6c1uu8by","43","[""White""]","No","Female","2262868.5999999996","null","","<p></p>","null","rating","dct","attraction_2","2","laptops","null","null","null","null","null","null","2","","","","","","","","","",""
"","","","","","rating_trial","survey-html-form","28","1183882","0.0-3.0-1.12","182","1","2025-04-14 14:36:28","bb671e3ae32f654b8954ea4c4635f915","","Mozilla/5.0 (Macintosh; Intel Mac OS X 10_15_7) AppleWebKit/537.36 (KHTML, like Gecko) Chrome/135.0.0.0 Safari/537.36","Macintosh","Chrome","135.0.0.0","OS X","10_15_7","https://hz8g1ckzuq.cognition.run/","en-US,en;q=0.9","ae8qska6c1uu8by","43","[""White""]","No","Female","2262868.5999999996","18892","","","{""price_1"":""899"",""price_2"":""995"",""price_3"":""995""}","rating","dct","attraction_2","2","laptops","null","null","null","null","null","null","2","50","60","40","60","50","60","Processing speed","Memory (RAM)","",""
"","","","","","rating_trial_setup","html-keyboard-response","29","1184185","0.0-3.0-0.13","182","1","2025-04-14 14:36:28","bb671e3ae32f654b8954ea4c4635f915","","Mozilla/5.0 (Macintosh; Intel Mac OS X 10_15_7) AppleWebKit/537.36 (KHTML, like Gecko) Chrome/135.0.0.0 Safari/537.36","Macintosh","Chrome","135.0.0.0","OS X","10_15_7","https://hz8g1ckzuq.cognition.run/","en-US,en;q=0.9","ae8qska6c1uu8by","43","[""White""]","No","Female","2262868.5999999996","null","","<p></p>","null","rating","dtc","repulsion_1","2","televisions","null","null","null","null","null","null","2","","","","","","","","","",""
"","","","","","rating_trial","survey-html-form","30","1205449","0.0-3.0-1.13","182","1","2025-04-14 14:36:28","bb671e3ae32f654b8954ea4c4635f915","","Mozilla/5.0 (Macintosh; Intel Mac OS X 10_15_7) AppleWebKit/537.36 (KHTML, like Gecko) Chrome/135.0.0.0 Safari/537.36","Macintosh","Chrome","135.0.0.0","OS X","10_15_7","https://hz8g1ckzuq.cognition.run/","en-US,en;q=0.9","ae8qska6c1uu8by","43","[""White""]","No","Female","2262868.5999999996","21259","","","{""price_1"":""1095"",""price_2"":""1095"",""price_3"":""1095""}","rating","dtc","repulsion_1","2","televisions","null","null","null","null","null","null","2","30","40","25","100","90","100","Screen size","Average lifespan","",""
"","","","","","rating_trial_setup","html-keyboard-response","31","1205752","0.0-3.0-0.14","182","1","2025-04-14 14:36:28","bb671e3ae32f654b8954ea4c4635f915","","Mozilla/5.0 (Macintosh; Intel Mac OS X 10_15_7) AppleWebKit/537.36 (KHTML, like Gecko) Chrome/135.0.0.0 Safari/537.36","Macintosh","Chrome","135.0.0.0","OS X","10_15_7","https://hz8g1ckzuq.cognition.run/","en-US,en;q=0.9","ae8qska6c1uu8by","43","[""White""]","No","Female","2262868.5999999996","null","","<p></p>","null","rating","dtc","attraction_2","1","washing machines","null","null","null","null","null","null","2","","","","","","","","","",""
"","","","","","rating_trial","survey-html-form","32","1255132","0.0-3.0-1.14","182","1","2025-04-14 14:36:28","bb671e3ae32f654b8954ea4c4635f915","","Mozilla/5.0 (Macintosh; Intel Mac OS X 10_15_7) AppleWebKit/537.36 (KHTML, like Gecko) Chrome/135.0.0.0 Safari/537.36","Macintosh","Chrome","135.0.0.0","OS X","10_15_7","https://hz8g1ckzuq.cognition.run/","en-US,en;q=0.9","ae8qska6c1uu8by","43","[""White""]","No","Female","2262868.5999999996","49375","","","{""price_1"":""896"",""price_2"":""895"",""price_3"":""895""}","rating","dtc","attraction_2","1","washing machines","null","null","null","null","null","null","2","60","50","60","50","60","40","Average lifespan","Energy savings","",""
"","","","","","rating_trial_setup","html-keyboard-response","33","1255436","0.0-3.0-0.15","182","1","2025-04-14 14:36:28","bb671e3ae32f654b8954ea4c4635f915","","Mozilla/5.0 (Macintosh; Intel Mac OS X 10_15_7) AppleWebKit/537.36 (KHTML, like Gecko) Chrome/135.0.0.0 Safari/537.36","Macintosh","Chrome","135.0.0.0","OS X","10_15_7","https://hz8g1ckzuq.cognition.run/","en-US,en;q=0.9","ae8qska6c1uu8by","43","[""White""]","No","Female","2262868.5999999996","null","","<p></p>","null","rating","cdt","repulsion_2","2","washing machines","null","null","null","null","null","null","1","","","","","","","","","",""
"","","","","","rating_trial","survey-html-form","34","1285799","0.0-3.0-1.15","182","1","2025-04-14 14:36:28","bb671e3ae32f654b8954ea4c4635f915","","Mozilla/5.0 (Macintosh; Intel Mac OS X 10_15_7) AppleWebKit/537.36 (KHTML, like Gecko) Chrome/135.0.0.0 Safari/537.36","Macintosh","Chrome","135.0.0.0","OS X","10_15_7","https://hz8g1ckzuq.cognition.run/","en-US,en;q=0.9","ae8qska6c1uu8by","43","[""White""]","No","Female","2262868.5999999996","30361","","","{""price_1"":""895"",""price_2"":""795"",""price_3"":""815""}","rating","cdt","repulsion_2","2","washing machines","null","null","null","null","null","null","1","30","40","20","100","90","100","Average lifespan","Energy savings","",""
"","","","","","rating_trial_setup","html-keyboard-response","35","1286102","0.0-3.0-0.16","182","1","2025-04-14 14:36:28","bb671e3ae32f654b8954ea4c4635f915","","Mozilla/5.0 (Macintosh; Intel Mac OS X 10_15_7) AppleWebKit/537.36 (KHTML, like Gecko) Chrome/135.0.0.0 Safari/537.36","Macintosh","Chrome","135.0.0.0","OS X","10_15_7","https://hz8g1ckzuq.cognition.run/","en-US,en;q=0.9","ae8qska6c1uu8by","43","[""White""]","No","Female","2262868.5999999996","null","","<p></p>","null","rating","tcd","repulsion_2","1","washing machines","null","null","null","null","null","null","1","","","","","","","","","",""
"","","","","","rating_trial","survey-html-form","36","1310031","0.0-3.0-1.16","182","1","2025-04-14 14:36:28","bb671e3ae32f654b8954ea4c4635f915","","Mozilla/5.0 (Macintosh; Intel Mac OS X 10_15_7) AppleWebKit/537.36 (KHTML, like Gecko) Chrome/135.0.0.0 Safari/537.36","Macintosh","Chrome","135.0.0.0","OS X","10_15_7","https://hz8g1ckzuq.cognition.run/","en-US,en;q=0.9","ae8qska6c1uu8by","43","[""White""]","No","Female","2262868.5999999996","23928","","","{""price_1"":""895"",""price_2"":""895"",""price_3"":""895""}","rating","tcd","repulsion_2","1","washing machines","null","null","null","null","null","null","1","100","90","100","30","40","20","Average lifespan","Energy savings","",""
"","","","","","rating_trial_setup","html-keyboard-response","37","1310335","0.0-3.0-0.17","182","1","2025-04-14 14:36:28","bb671e3ae32f654b8954ea4c4635f915","","Mozilla/5.0 (Macintosh; Intel Mac OS X 10_15_7) AppleWebKit/537.36 (KHTML, like Gecko) Chrome/135.0.0.0 Safari/537.36","Macintosh","Chrome","135.0.0.0","OS X","10_15_7","https://hz8g1ckzuq.cognition.run/","en-US,en;q=0.9","ae8qska6c1uu8by","43","[""White""]","No","Female","2262868.5999999996","null","","<p></p>","null","rating","bww","catch","null","microwave ovens","50","90","45","20","15","30","2","","","","","","","","","",""
"","","","","","rating_trial","survey-html-form","38","1337364","0.0-3.0-1.17","182","1","2025-04-14 14:36:28","bb671e3ae32f654b8954ea4c4635f915","","Mozilla/5.0 (Macintosh; Intel Mac OS X 10_15_7) AppleWebKit/537.36 (KHTML, like Gecko) Chrome/135.0.0.0 Safari/537.36","Macintosh","Chrome","135.0.0.0","OS X","10_15_7","https://hz8g1ckzuq.cognition.run/","en-US,en;q=0.9","ae8qska6c1uu8by","43","[""White""]","No","Female","2262868.5999999996","27023","","","{""price_1"":""325"",""price_2"":""195"",""price_3"":""99""}","rating","bww","catch","null","microwave ovens","50","90","45","20","15","30","2","null","null","null","null","null","null","Warranty","Cooking power","",""
"","","","","","rating_trial_setup","html-keyboard-response","39","1337668","0.0-3.0-0.18","182","1","2025-04-14 14:36:28","bb671e3ae32f654b8954ea4c4635f915","","Mozilla/5.0 (Macintosh; Intel Mac OS X 10_15_7) AppleWebKit/537.36 (KHTML, like Gecko) Chrome/135.0.0.0 Safari/537.36","Macintosh","Chrome","135.0.0.0","OS X","10_15_7","https://hz8g1ckzuq.cognition.run/","en-US,en;q=0.9","ae8qska6c1uu8by","43","[""White""]","No","Female","2262868.5999999996","null","","<p></p>","null","rating","tcd","attraction_1","1","washing machines","null","null","null","null","null","null","1","","","","","","","","","",""
"","","","","","rating_trial","survey-html-form","40","1394332","0.0-3.0-1.18","182","1","2025-04-14 14:36:28","bb671e3ae32f654b8954ea4c4635f915","","Mozilla/5.0 (Macintosh; Intel Mac OS X 10_15_7) AppleWebKit/537.36 (KHTML, like Gecko) Chrome/135.0.0.0 Safari/537.36","Macintosh","Chrome","135.0.0.0","OS X","10_15_7","https://hz8g1ckzuq.cognition.run/","en-US,en;q=0.9","ae8qska6c1uu8by","43","[""White""]","No","Female","2262868.5999999996","56658","","","{""price_1"":""895"",""price_2"":""895"",""price_3"":""845""}","rating","tcd","attraction_1","1","washing machines","null","null","null","null","null","null","1","60","50","60","50","60","45","Average lifespan","Energy savings","",""
"","","","","","rating_trial_setup","html-keyboard-response","41","1394635","0.0-3.0-0.19","182","1","2025-04-14 14:36:28","bb671e3ae32f654b8954ea4c4635f915","","Mozilla/5.0 (Macintosh; Intel Mac OS X 10_15_7) AppleWebKit/537.36 (KHTML, like Gecko) Chrome/135.0.0.0 Safari/537.36","Macintosh","Chrome","135.0.0.0","OS X","10_15_7","https://hz8g1ckzuq.cognition.run/","en-US,en;q=0.9","ae8qska6c1uu8by","43","[""White""]","No","Female","2262868.5999999996","null","","<p></p>","null","rating","dct","repulsion_2","2","laptops","null","null","null","null","null","null","2","","","","","","","","","",""
"","","","","","rating_trial","survey-html-form","42","1418632","0.0-3.0-1.19","182","1","2025-04-14 14:36:28","bb671e3ae32f654b8954ea4c4635f915","","Mozilla/5.0 (Macintosh; Intel Mac OS X 10_15_7) AppleWebKit/537.36 (KHTML, like Gecko) Chrome/135.0.0.0 Safari/537.36","Macintosh","Chrome","135.0.0.0","OS X","10_15_7","https://hz8g1ckzuq.cognition.run/","en-US,en;q=0.9","ae8qska6c1uu8by","43","[""White""]","No","Female","2262868.5999999996","23992","","","{""price_1"":""905"",""price_2"":""999"",""price_3"":""995""}","rating","dct","repulsion_2","2","laptops","null","null","null","null","null","null","2","30","40","20","100","90","100","Processing speed","Memory (RAM)","",""
"","","","","","rating_trial_setup","html-keyboard-response","43","1418935","0.0-3.0-0.20","182","1","2025-04-14 14:36:28","bb671e3ae32f654b8954ea4c4635f915","","Mozilla/5.0 (Macintosh; Intel Mac OS X 10_15_7) AppleWebKit/537.36 (KHTML, like Gecko) Chrome/135.0.0.0 Safari/537.36","Macintosh","Chrome","135.0.0.0","OS X","10_15_7","https://hz8g1ckzuq.cognition.run/","en-US,en;q=0.9","ae8qska6c1uu8by","43","[""White""]","No","Female","2262868.5999999996","null","","<p></p>","null","rating","dct","repulsion_1","1","microwave ovens","null","null","null","null","null","null","1","","","","","","","","","",""
"","","","","","rating_trial","survey-html-form","44","1461380","0.0-3.0-1.20","182","1","2025-04-14 14:36:28","bb671e3ae32f654b8954ea4c4635f915","","Mozilla/5.0 (Macintosh; Intel Mac OS X 10_15_7) AppleWebKit/537.36 (KHTML, like Gecko) Chrome/135.0.0.0 Safari/537.36","Macintosh","Chrome","135.0.0.0","OS X","10_15_7","https://hz8g1ckzuq.cognition.run/","en-US,en;q=0.9","ae8qska6c1uu8by","43","[""White""]","No","Female","2262868.5999999996","42440","","","{""price_1"":""99"",""price_2"":""199"",""price_3"":""195""}","rating","dct","repulsion_1","1","microwave ovens","null","null","null","null","null","null","1","100","90","100","30","40","25","Warranty","Cooking power","",""
"","","","","","rating_trial_setup","html-keyboard-response","45","1461684","0.0-3.0-0.21","182","1","2025-04-14 14:36:28","bb671e3ae32f654b8954ea4c4635f915","","Mozilla/5.0 (Macintosh; Intel Mac OS X 10_15_7) AppleWebKit/537.36 (KHTML, like Gecko) Chrome/135.0.0.0 Safari/537.36","Macintosh","Chrome","135.0.0.0","OS X","10_15_7","https://hz8g1ckzuq.cognition.run/","en-US,en;q=0.9","ae8qska6c1uu8by","43","[""White""]","No","Female","2262868.5999999996","null","","<p></p>","null","rating","cdt","attraction_2","1","televisions","null","null","null","null","null","null","1","","","","","","","","","",""
"","","","","","rating_trial","survey-html-form","46","1481782","0.0-3.0-1.21","182","1","2025-04-14 14:36:28","bb671e3ae32f654b8954ea4c4635f915","","Mozilla/5.0 (Macintosh; Intel Mac OS X 10_15_7) AppleWebKit/537.36 (KHTML, like Gecko) Chrome/135.0.0.0 Safari/537.36","Macintosh","Chrome","135.0.0.0","OS X","10_15_7","https://hz8g1ckzuq.cognition.run/","en-US,en;q=0.9","ae8qska6c1uu8by","43","[""White""]","No","Female","2262868.5999999996","20093","","","{""price_1"":""795"",""price_2"":""795"",""price_3"":""745""}","rating","cdt","attraction_2","1","televisions","null","null","null","null","null","null","1","60","50","60","50","60","40","Screen size","Average lifespan","",""
"","","","","","rating_trial_setup","html-keyboard-response","47","1482085","0.0-3.0-0.22","182","1","2025-04-14 14:36:28","bb671e3ae32f654b8954ea4c4635f915","","Mozilla/5.0 (Macintosh; Intel Mac OS X 10_15_7) AppleWebKit/537.36 (KHTML, like Gecko) Chrome/135.0.0.0 Safari/537.36","Macintosh","Chrome","135.0.0.0","OS X","10_15_7","https://hz8g1ckzuq.cognition.run/","en-US,en;q=0.9","ae8qska6c1uu8by","43","[""White""]","No","Female","2262868.5999999996","null","","<p></p>","null","rating","tdc","attraction_2","1","laptops","null","null","null","null","null","null","2","","","","","","","","","",""
"","","","","","rating_trial","survey-html-form","48","1527331","0.0-3.0-1.22","182","1","2025-04-14 14:36:28","bb671e3ae32f654b8954ea4c4635f915","","Mozilla/5.0 (Macintosh; Intel Mac OS X 10_15_7) AppleWebKit/537.36 (KHTML, like Gecko) Chrome/135.0.0.0 Safari/537.36","Macintosh","Chrome","135.0.0.0","OS X","10_15_7","https://hz8g1ckzuq.cognition.run/","en-US,en;q=0.9","ae8qska6c1uu8by","43","[""White""]","No","Female","2262868.5999999996","45240","","","{""price_1"":""895"",""price_2"":""796"",""price_3"":""895""}","rating","tdc","attraction_2","1","laptops","null","null","null","null","null","null","2","60","50","60","50","60","40","Processing speed","Memory (RAM)","",""
"","","","","","rating_trial_setup","html-keyboard-response","49","1527634","0.0-3.0-0.23","182","1","2025-04-14 14:36:28","bb671e3ae32f654b8954ea4c4635f915","","Mozilla/5.0 (Macintosh; Intel Mac OS X 10_15_7) AppleWebKit/537.36 (KHTML, like Gecko) Chrome/135.0.0.0 Safari/537.36","Macintosh","Chrome","135.0.0.0","OS X","10_15_7","https://hz8g1ckzuq.cognition.run/","en-US,en;q=0.9","ae8qska6c1uu8by","43","[""White""]","No","Female","2262868.5999999996","null","","<p></p>","null","rating","tcd","repulsion_2","1","laptops","null","null","null","null","null","null","1","","","","","","","","","",""
"","","","","","rating_trial","survey-html-form","50","1542330","0.0-3.0-1.23","182","1","2025-04-14 14:36:28","bb671e3ae32f654b8954ea4c4635f915","","Mozilla/5.0 (Macintosh; Intel Mac OS X 10_15_7) AppleWebKit/537.36 (KHTML, like Gecko) Chrome/135.0.0.0 Safari/537.36","Macintosh","Chrome","135.0.0.0","OS X","10_15_7","https://hz8g1ckzuq.cognition.run/","en-US,en;q=0.9","ae8qska6c1uu8by","43","[""White""]","No","Female","2262868.5999999996","14689","","","{""price_1"":""795"",""price_2"":""795"",""price_3"":""695""}","rating","tcd","repulsion_2","1","laptops","null","null","null","null","null","null","1","100","90","100","30","40","20","Processing speed","Memory (RAM)","",""
"","","","","","rating_trial_setup","html-keyboard-response","51","1542634","0.0-3.0-0.24","182","1","2025-04-14 14:36:28","bb671e3ae32f654b8954ea4c4635f915","","Mozilla/5.0 (Macintosh; Intel Mac OS X 10_15_7) AppleWebKit/537.36 (KHTML, like Gecko) Chrome/135.0.0.0 Safari/537.36","Macintosh","Chrome","135.0.0.0","OS X","10_15_7","https://hz8g1ckzuq.cognition.run/","en-US,en;q=0.9","ae8qska6c1uu8by","43","[""White""]","No","Female","2262868.5999999996","null","","<p></p>","null","rating","dtc","attraction_2","2","televisions","null","null","null","null","null","null","2","","","","","","","","","",""
"","","","","","rating_trial","survey-html-form","52","1588831","0.0-3.0-1.24","182","1","2025-04-14 14:36:28","bb671e3ae32f654b8954ea4c4635f915","","Mozilla/5.0 (Macintosh; Intel Mac OS X 10_15_7) AppleWebKit/537.36 (KHTML, like Gecko) Chrome/135.0.0.0 Safari/537.36","Macintosh","Chrome","135.0.0.0","OS X","10_15_7","https://hz8g1ckzuq.cognition.run/","en-US,en;q=0.9","ae8qska6c1uu8by","43","[""White""]","No","Female","2262868.5999999996","46189","","","{""price_1"":""895"",""price_2"":""895"",""price_3"":""895""}","rating","dtc","attraction_2","2","televisions","null","null","null","null","null","null","2","50","60","40","60","50","60","Screen size","Average lifespan","",""
"","","","","","rating_trial_setup","html-keyboard-response","53","1589134","0.0-3.0-0.25","182","1","2025-04-14 14:36:28","bb671e3ae32f654b8954ea4c4635f915","","Mozilla/5.0 (Macintosh; Intel Mac OS X 10_15_7) AppleWebKit/537.36 (KHTML, like Gecko) Chrome/135.0.0.0 Safari/537.36","Macintosh","Chrome","135.0.0.0","OS X","10_15_7","https://hz8g1ckzuq.cognition.run/","en-US,en;q=0.9","ae8qska6c1uu8by","43","[""White""]","No","Female","2262868.5999999996","null","","<p></p>","null","rating","bww","catch","null","laptops","85","50","25","30","15","35","2","","","","","","","","","",""
"","","","","","rating_trial","survey-html-form","54","1609028","0.0-3.0-1.25","182","1","2025-04-14 14:36:28","bb671e3ae32f654b8954ea4c4635f915","","Mozilla/5.0 (Macintosh; Intel Mac OS X 10_15_7) AppleWebKit/537.36 (KHTML, like Gecko) Chrome/135.0.0.0 Safari/537.36","Macintosh","Chrome","135.0.0.0","OS X","10_15_7","https://hz8g1ckzuq.cognition.run/","en-US,en;q=0.9","ae8qska6c1uu8by","43","[""White""]","No","Female","2262868.5999999996","19878","","","{""price_1"":""345"",""price_2"":""225"",""price_3"":""125""}","rating","bww","catch","null","laptops","85","50","25","30","15","35","2","null","null","null","null","null","null","Processing speed","Memory (RAM)","",""
"","","","","","rating_trial_setup","html-keyboard-response","55","1609332","0.0-3.0-0.26","182","1","2025-04-14 14:36:28","bb671e3ae32f654b8954ea4c4635f915","","Mozilla/5.0 (Macintosh; Intel Mac OS X 10_15_7) AppleWebKit/537.36 (KHTML, like Gecko) Chrome/135.0.0.0 Safari/537.36","Macintosh","Chrome","135.0.0.0","OS X","10_15_7","https://hz8g1ckzuq.cognition.run/","en-US,en;q=0.9","ae8qska6c1uu8by","43","[""White""]","No","Female","2262868.5999999996","null","","<p></p>","null","rating","tcd","repulsion_1","2","laptops","null","null","null","null","null","null","2","","","","","","","","","",""
"","","","","","rating_trial","survey-html-form","56","1625166","0.0-3.0-1.26","182","1","2025-04-14 14:36:28","bb671e3ae32f654b8954ea4c4635f915","","Mozilla/5.0 (Macintosh; Intel Mac OS X 10_15_7) AppleWebKit/537.36 (KHTML, like Gecko) Chrome/135.0.0.0 Safari/537.36","Macintosh","Chrome","135.0.0.0","OS X","10_15_7","https://hz8g1ckzuq.cognition.run/","en-US,en;q=0.9","ae8qska6c1uu8by","43","[""White""]","No","Female","2262868.5999999996","15823","","","{""price_1"":""695"",""price_2"":""695"",""price_3"":""325""}","rating","tcd","repulsion_1","2","laptops","null","null","null","null","null","null","2","30","40","25","100","90","100","Processing speed","Memory (RAM)","",""
"","","","","","rating_trial_setup","html-keyboard-response","57","1625469","0.0-3.0-0.27","182","1","2025-04-14 14:36:28","bb671e3ae32f654b8954ea4c4635f915","","Mozilla/5.0 (Macintosh; Intel Mac OS X 10_15_7) AppleWebKit/537.36 (KHTML, like Gecko) Chrome/135.0.0.0 Safari/537.36","Macintosh","Chrome","135.0.0.0","OS X","10_15_7","https://hz8g1ckzuq.cognition.run/","en-US,en;q=0.9","ae8qska6c1uu8by","43","[""White""]","No","Female","2262868.5999999996","null","","<p></p>","null","rating","dtc","repulsion_2","2","televisions","null","null","null","null","null","null","1","","","","","","","","","",""
"","","","","","rating_trial","survey-html-form","58","1641950","0.0-3.0-1.27","182","1","2025-04-14 14:36:28","bb671e3ae32f654b8954ea4c4635f915","","Mozilla/5.0 (Macintosh; Intel Mac OS X 10_15_7) AppleWebKit/537.36 (KHTML, like Gecko) Chrome/135.0.0.0 Safari/537.36","Macintosh","Chrome","135.0.0.0","OS X","10_15_7","https://hz8g1ckzuq.cognition.run/","en-US,en;q=0.9","ae8qska6c1uu8by","43","[""White""]","No","Female","2262868.5999999996","16472","","","{""price_1"":""795"",""price_2"":""895"",""price_3"":""895""}","rating","dtc","repulsion_2","2","televisions","null","null","null","null","null","null","1","30","40","20","100","90","100","Screen size","Average lifespan","",""
"","","","","","rating_trial_setup","html-keyboard-response","59","1642254","0.0-3.0-0.28","182","1","2025-04-14 14:36:28","bb671e3ae32f654b8954ea4c4635f915","","Mozilla/5.0 (Macintosh; Intel Mac OS X 10_15_7) AppleWebKit/537.36 (KHTML, like Gecko) Chrome/135.0.0.0 Safari/537.36","Macintosh","Chrome","135.0.0.0","OS X","10_15_7","https://hz8g1ckzuq.cognition.run/","en-US,en;q=0.9","ae8qska6c1uu8by","43","[""White""]","No","Female","2262868.5999999996","null","","<p></p>","null","rating","tcd","repulsion_2","1","microwave ovens","null","null","null","null","null","null","2","","","","","","","","","",""
"","","","","","rating_trial","survey-html-form","60","1661533","0.0-3.0-1.28","182","1","2025-04-14 14:36:28","bb671e3ae32f654b8954ea4c4635f915","","Mozilla/5.0 (Macintosh; Intel Mac OS X 10_15_7) AppleWebKit/537.36 (KHTML, like Gecko) Chrome/135.0.0.0 Safari/537.36","Macintosh","Chrome","135.0.0.0","OS X","10_15_7","https://hz8g1ckzuq.cognition.run/","en-US,en;q=0.9","ae8qska6c1uu8by","43","[""White""]","No","Female","2262868.5999999996","19270","","","{""price_1"":""199"",""price_2"":""225"",""price_3"":""175""}","rating","tcd","repulsion_2","1","microwave ovens","null","null","null","null","null","null","2","100","90","100","30","40","20","Warranty","Cooking power","",""
"","","","","","rating_trial_setup","html-keyboard-response","61","1661838","0.0-3.0-0.29","182","1","2025-04-14 14:36:28","bb671e3ae32f654b8954ea4c4635f915","","Mozilla/5.0 (Macintosh; Intel Mac OS X 10_15_7) AppleWebKit/537.36 (KHTML, like Gecko) Chrome/135.0.0.0 Safari/537.36","Macintosh","Chrome","135.0.0.0","OS X","10_15_7","https://hz8g1ckzuq.cognition.run/","en-US,en;q=0.9","ae8qska6c1uu8by","43","[""White""]","No","Female","2262868.5999999996","null","","<p></p>","null","rating","cdt","attraction_1","1","televisions","null","null","null","null","null","null","1","","","","","","","","","",""
"","","","","","rating_trial","survey-html-form","62","1691417","0.0-3.0-1.29","182","1","2025-04-14 14:36:28","bb671e3ae32f654b8954ea4c4635f915","","Mozilla/5.0 (Macintosh; Intel Mac OS X 10_15_7) AppleWebKit/537.36 (KHTML, like Gecko) Chrome/135.0.0.0 Safari/537.36","Macintosh","Chrome","135.0.0.0","OS X","10_15_7","https://hz8g1ckzuq.cognition.run/","en-US,en;q=0.9","ae8qska6c1uu8by","43","[""White""]","No","Female","2262868.5999999996","29570","","","{""price_1"":""795"",""price_2"":""795"",""price_3"":""795""}","rating","cdt","attraction_1","1","televisions","null","null","null","null","null","null","1","60","50","60","50","60","45","Screen size","Average lifespan","",""
"","","","","","rating_trial_setup","html-keyboard-response","63","1691721","0.0-3.0-0.30","182","1","2025-04-14 14:36:28","bb671e3ae32f654b8954ea4c4635f915","","Mozilla/5.0 (Macintosh; Intel Mac OS X 10_15_7) AppleWebKit/537.36 (KHTML, like Gecko) Chrome/135.0.0.0 Safari/537.36","Macintosh","Chrome","135.0.0.0","OS X","10_15_7","https://hz8g1ckzuq.cognition.run/","en-US,en;q=0.9","ae8qska6c1uu8by","43","[""White""]","No","Female","2262868.5999999996","null","","<p></p>","null","rating","dtc","attraction_1","2","televisions","null","null","null","null","null","null","1","","","","","","","","","",""
"","","","","","rating_trial","survey-html-form","64","1704535","0.0-3.0-1.30","182","1","2025-04-14 14:36:28","bb671e3ae32f654b8954ea4c4635f915","","Mozilla/5.0 (Macintosh; Intel Mac OS X 10_15_7) AppleWebKit/537.36 (KHTML, like Gecko) Chrome/135.0.0.0 Safari/537.36","Macintosh","Chrome","135.0.0.0","OS X","10_15_7","https://hz8g1ckzuq.cognition.run/","en-US,en;q=0.9","ae8qska6c1uu8by","43","[""White""]","No","Female","2262868.5999999996","12805","","","{""price_1"":""695"",""price_2"":""695"",""price_3"":""695""}","rating","dtc","attraction_1","2","televisions","null","null","null","null","null","null","1","50","60","45","60","50","60","Screen size","Average lifespan","",""
"","","","","","rating_trial_setup","html-keyboard-response","65","1704839","0.0-3.0-0.31","182","1","2025-04-14 14:36:28","bb671e3ae32f654b8954ea4c4635f915","","Mozilla/5.0 (Macintosh; Intel Mac OS X 10_15_7) AppleWebKit/537.36 (KHTML, like Gecko) Chrome/135.0.0.0 Safari/537.36","Macintosh","Chrome","135.0.0.0","OS X","10_15_7","https://hz8g1ckzuq.cognition.run/","en-US,en;q=0.9","ae8qska6c1uu8by","43","[""White""]","No","Female","2262868.5999999996","null","","<p></p>","null","rating","dtc","repulsion_2","2","microwave ovens","null","null","null","null","null","null","2","","","","","","","","","",""
"","","","","","rating_trial","survey-html-form","66","1745418","0.0-3.0-1.31","182","1","2025-04-14 14:36:28","bb671e3ae32f654b8954ea4c4635f915","","Mozilla/5.0 (Macintosh; Intel Mac OS X 10_15_7) AppleWebKit/537.36 (KHTML, like Gecko) Chrome/135.0.0.0 Safari/537.36","Macintosh","Chrome","135.0.0.0","OS X","10_15_7","https://hz8g1ckzuq.cognition.run/","en-US,en;q=0.9","ae8qska6c1uu8by","43","[""White""]","No","Female","2262868.5999999996","40569","","","{""price_1"":""215"",""price_2"":""225"",""price_3"":""225""}","rating","dtc","repulsion_2","2","microwave ovens","null","null","null","null","null","null","2","30","40","20","100","90","100","Warranty","Cooking power","",""
"","","","","","rating_trial_setup","html-keyboard-response","67","1745721","0.0-3.0-0.32","182","1","2025-04-14 14:36:28","bb671e3ae32f654b8954ea4c4635f915","","Mozilla/5.0 (Macintosh; Intel Mac OS X 10_15_7) AppleWebKit/537.36 (KHTML, like Gecko) Chrome/135.0.0.0 Safari/537.36","Macintosh","Chrome","135.0.0.0","OS X","10_15_7","https://hz8g1ckzuq.cognition.run/","en-US,en;q=0.9","ae8qska6c1uu8by","43","[""White""]","No","Female","2262868.5999999996","null","","<p></p>","null","rating","tcd","repulsion_1","2","washing machines","null","null","null","null","null","null","2","","","","","","","","","",""
"","","","","","rating_trial","survey-html-form","68","1761766","0.0-3.0-1.32","182","1","2025-04-14 14:36:28","bb671e3ae32f654b8954ea4c4635f915","","Mozilla/5.0 (Macintosh; Intel Mac OS X 10_15_7) AppleWebKit/537.36 (KHTML, like Gecko) Chrome/135.0.0.0 Safari/537.36","Macintosh","Chrome","135.0.0.0","OS X","10_15_7","https://hz8g1ckzuq.cognition.run/","en-US,en;q=0.9","ae8qska6c1uu8by","43","[""White""]","No","Female","2262868.5999999996","16038","","","{""price_1"":""895"",""price_2"":""895"",""price_3"":""795""}","rating","tcd","repulsion_1","2","washing machines","null","null","null","null","null","null","2","30","40","25","100","90","100","Average lifespan","Energy savings","",""
"","","","","","rating_trial_setup","html-keyboard-response","69","1762070","0.0-3.0-0.33","182","1","2025-04-14 14:36:28","bb671e3ae32f654b8954ea4c4635f915","","Mozilla/5.0 (Macintosh; Intel Mac OS X 10_15_7) AppleWebKit/537.36 (KHTML, like Gecko) Chrome/135.0.0.0 Safari/537.36","Macintosh","Chrome","135.0.0.0","OS X","10_15_7","https://hz8g1ckzuq.cognition.run/","en-US,en;q=0.9","ae8qska6c1uu8by","43","[""White""]","No","Female","2262868.5999999996","null","","<p></p>","null","rating","ctd","attraction_1","2","washing machines","null","null","null","null","null","null","2","","","","","","","","","",""
"","","","","","rating_trial","survey-html-form","70","1803300","0.0-3.0-1.33","182","1","2025-04-14 14:36:28","bb671e3ae32f654b8954ea4c4635f915","","Mozilla/5.0 (Macintosh; Intel Mac OS X 10_15_7) AppleWebKit/537.36 (KHTML, like Gecko) Chrome/135.0.0.0 Safari/537.36","Macintosh","Chrome","135.0.0.0","OS X","10_15_7","https://hz8g1ckzuq.cognition.run/","en-US,en;q=0.9","ae8qska6c1uu8by","43","[""White""]","No","Female","2262868.5999999996","41219","","","{""price_1"":""895"",""price_2"":""895"",""price_3"":""895""}","rating","ctd","attraction_1","2","washing machines","null","null","null","null","null","null","2","50","60","45","60","50","60","Average lifespan","Energy savings","",""
"","","","","","rating_trial_setup","html-keyboard-response","71","1803604","0.0-3.0-0.34","182","1","2025-04-14 14:36:28","bb671e3ae32f654b8954ea4c4635f915","","Mozilla/5.0 (Macintosh; Intel Mac OS X 10_15_7) AppleWebKit/537.36 (KHTML, like Gecko) Chrome/135.0.0.0 Safari/537.36","Macintosh","Chrome","135.0.0.0","OS X","10_15_7","https://hz8g1ckzuq.cognition.run/","en-US,en;q=0.9","ae8qska6c1uu8by","43","[""White""]","No","Female","2262868.5999999996","null","","<p></p>","null","rating","wbw","catch","null","televisions","75","70","5","45","25","10","1","","","","","","","","","",""
"","","","","","rating_trial","survey-html-form","72","1823867","0.0-3.0-1.34","182","1","2025-04-14 14:36:28","bb671e3ae32f654b8954ea4c4635f915","","Mozilla/5.0 (Macintosh; Intel Mac OS X 10_15_7) AppleWebKit/537.36 (KHTML, like Gecko) Chrome/135.0.0.0 Safari/537.36","Macintosh","Chrome","135.0.0.0","OS X","10_15_7","https://hz8g1ckzuq.cognition.run/","en-US,en;q=0.9","ae8qska6c1uu8by","43","[""White""]","No","Female","2262868.5999999996","20254","","","{""price_1"":""325"",""price_2"":""795"",""price_3"":""325""}","rating","wbw","catch","null","televisions","75","70","5","45","25","10","1","null","null","null","null","null","null","Screen size","Average lifespan","",""
"","","","","","rating_trial_setup","html-keyboard-response","73","1824171","0.0-3.0-0.35","182","1","2025-04-14 14:36:28","bb671e3ae32f654b8954ea4c4635f915","","Mozilla/5.0 (Macintosh; Intel Mac OS X 10_15_7) AppleWebKit/537.36 (KHTML, like Gecko) Chrome/135.0.0.0 Safari/537.36","Macintosh","Chrome","135.0.0.0","OS X","10_15_7","https://hz8g1ckzuq.cognition.run/","en-US,en;q=0.9","ae8qska6c1uu8by","43","[""White""]","No","Female","2262868.5999999996","null","","<p></p>","null","rating","tcd","repulsion_1","1","washing machines","null","null","null","null","null","null","1","","","","","","","","","",""
"","","","","","rating_trial","survey-html-form","74","1858267","0.0-3.0-1.35","182","1","2025-04-14 14:36:28","bb671e3ae32f654b8954ea4c4635f915","","Mozilla/5.0 (Macintosh; Intel Mac OS X 10_15_7) AppleWebKit/537.36 (KHTML, like Gecko) Chrome/135.0.0.0 Safari/537.36","Macintosh","Chrome","135.0.0.0","OS X","10_15_7","https://hz8g1ckzuq.cognition.run/","en-US,en;q=0.9","ae8qska6c1uu8by","43","[""White""]","No","Female","2262868.5999999996","34091","","","{""price_1"":""895"",""price_2"":""895"",""price_3"":""795""}","rating","tcd","repulsion_1","1","washing machines","null","null","null","null","null","null","1","100","90","100","30","40","25","Average lifespan","Energy savings","",""
"","","","","","rating_trial_setup","html-keyboard-response","75","1858572","0.0-3.0-0.36","182","1","2025-04-14 14:36:28","bb671e3ae32f654b8954ea4c4635f915","","Mozilla/5.0 (Macintosh; Intel Mac OS X 10_15_7) AppleWebKit/537.36 (KHTML, like Gecko) Chrome/135.0.0.0 Safari/537.36","Macintosh","Chrome","135.0.0.0","OS X","10_15_7","https://hz8g1ckzuq.cognition.run/","en-US,en;q=0.9","ae8qska6c1uu8by","43","[""White""]","No","Female","2262868.5999999996","null","","<p></p>","null","rating","tdc","attraction_2","1","microwave ovens","null","null","null","null","null","null","2","","","","","","","","","",""
"","","","","","rating_trial","survey-html-form","76","1868483","0.0-3.0-1.36","182","1","2025-04-14 14:36:28","bb671e3ae32f654b8954ea4c4635f915","","Mozilla/5.0 (Macintosh; Intel Mac OS X 10_15_7) AppleWebKit/537.36 (KHTML, like Gecko) Chrome/135.0.0.0 Safari/537.36","Macintosh","Chrome","135.0.0.0","OS X","10_15_7","https://hz8g1ckzuq.cognition.run/","en-US,en;q=0.9","ae8qska6c1uu8by","43","[""White""]","No","Female","2262868.5999999996","9900","","","{""price_1"":""199"",""price_2"":""199"",""price_3"":""199""}","rating","tdc","attraction_2","1","microwave ovens","null","null","null","null","null","null","2","60","50","60","50","60","40","Warranty","Cooking power","",""
"","","","","","rating_trial_setup","html-keyboard-response","77","1868787","0.0-3.0-0.37","182","1","2025-04-14 14:36:28","bb671e3ae32f654b8954ea4c4635f915","","Mozilla/5.0 (Macintosh; Intel Mac OS X 10_15_7) AppleWebKit/537.36 (KHTML, like Gecko) Chrome/135.0.0.0 Safari/537.36","Macintosh","Chrome","135.0.0.0","OS X","10_15_7","https://hz8g1ckzuq.cognition.run/","en-US,en;q=0.9","ae8qska6c1uu8by","43","[""White""]","No","Female","2262868.5999999996","null","","<p></p>","null","rating","tdc","repulsion_1","1","laptops","null","null","null","null","null","null","2","","","","","","","","","",""
"","","","","","rating_trial","survey-html-form","78","1889566","0.0-3.0-1.37","182","1","2025-04-14 14:36:28","bb671e3ae32f654b8954ea4c4635f915","","Mozilla/5.0 (Macintosh; Intel Mac OS X 10_15_7) AppleWebKit/537.36 (KHTML, like Gecko) Chrome/135.0.0.0 Safari/537.36","Macintosh","Chrome","135.0.0.0","OS X","10_15_7","https://hz8g1ckzuq.cognition.run/","en-US,en;q=0.9","ae8qska6c1uu8by","43","[""White""]","No","Female","2262868.5999999996","20768","","","{""price_1"":""895"",""price_2"":""805"",""price_3"":""895""}","rating","tdc","repulsion_1","1","laptops","null","null","null","null","null","null","2","100","90","100","30","40","25","Processing speed","Memory (RAM)","",""
"","","","","","rating_trial_setup","html-keyboard-response","79","1889871","0.0-3.0-0.38","182","1","2025-04-14 14:36:28","bb671e3ae32f654b8954ea4c4635f915","","Mozilla/5.0 (Macintosh; Intel Mac OS X 10_15_7) AppleWebKit/537.36 (KHTML, like Gecko) Chrome/135.0.0.0 Safari/537.36","Macintosh","Chrome","135.0.0.0","OS X","10_15_7","https://hz8g1ckzuq.cognition.run/","en-US,en;q=0.9","ae8qska6c1uu8by","43","[""White""]","No","Female","2262868.5999999996","null","","<p></p>","null","rating","cdt","repulsion_2","1","televisions","null","null","null","null","null","null","2","","","","","","","","","",""
"","","","","","rating_trial","survey-html-form","80","1904233","0.0-3.0-1.38","182","1","2025-04-14 14:36:28","bb671e3ae32f654b8954ea4c4635f915","","Mozilla/5.0 (Macintosh; Intel Mac OS X 10_15_7) AppleWebKit/537.36 (KHTML, like Gecko) Chrome/135.0.0.0 Safari/537.36","Macintosh","Chrome","135.0.0.0","OS X","10_15_7","https://hz8g1ckzuq.cognition.run/","en-US,en;q=0.9","ae8qska6c1uu8by","43","[""White""]","No","Female","2262868.5999999996","14352","","","{""price_1"":""889"",""price_2"":""889"",""price_3"":""889""}","rating","cdt","repulsion_2","1","televisions","null","null","null","null","null","null","2","100","90","100","30","40","20","Screen size","Average lifespan","",""
"","","","","","rating_trial_setup","html-keyboard-response","81","1904538","0.0-3.0-0.39","182","1","2025-04-14 14:36:28","bb671e3ae32f654b8954ea4c4635f915","","Mozilla/5.0 (Macintosh; Intel Mac OS X 10_15_7) AppleWebKit/537.36 (KHTML, like Gecko) Chrome/135.0.0.0 Safari/537.36","Macintosh","Chrome","135.0.0.0","OS X","10_15_7","https://hz8g1ckzuq.cognition.run/","en-US,en;q=0.9","ae8qska6c1uu8by","43","[""White""]","No","Female","2262868.5999999996","null","","<p></p>","null","rating","tcd","attraction_1","1","laptops","null","null","null","null","null","null","1","","","","","","","","","",""
"","","","","","rating_trial","survey-html-form","82","1915484","0.0-3.0-1.39","182","1","2025-04-14 14:36:28","bb671e3ae32f654b8954ea4c4635f915","","Mozilla/5.0 (Macintosh; Intel Mac OS X 10_15_7) AppleWebKit/537.36 (KHTML, like Gecko) Chrome/135.0.0.0 Safari/537.36","Macintosh","Chrome","135.0.0.0","OS X","10_15_7","https://hz8g1ckzuq.cognition.run/","en-US,en;q=0.9","ae8qska6c1uu8by","43","[""White""]","No","Female","2262868.5999999996","10933","","","{""price_1"":""795"",""price_2"":""795"",""price_3"":""795""}","rating","tcd","attraction_1","1","laptops","null","null","null","null","null","null","1","60","50","60","50","60","45","Processing speed","Memory (RAM)","",""
"","","","","","","instructions","83","1935885","0.0-4.0","182","1","2025-04-14 14:36:28","bb671e3ae32f654b8954ea4c4635f915","","Mozilla/5.0 (Macintosh; Intel Mac OS X 10_15_7) AppleWebKit/537.36 (KHTML, like Gecko) Chrome/135.0.0.0 Safari/537.36","Macintosh","Chrome","135.0.0.0","OS X","10_15_7","https://hz8g1ckzuq.cognition.run/","en-US,en;q=0.9","ae8qska6c1uu8by","43","[""White""]","No","Female","2262868.5999999996","20398","[{""page_index"":0,""viewing_time"":1797},{""page_index"":1,""viewing_time"":984},{""page_index"":2,""viewing_time"":1700},{""page_index"":3,""viewing_time"":2674},{""page_index"":4,""viewing_time"":2610},{""page_index"":5,""viewing_time"":2067},{""page_index"":6,""viewing_time"":6367},{""page_index"":7,""viewing_time"":2199}]","","","","","","","","","","","","","","","","","","","","","","","",""
"","","","","","choice_trial_setup","html-keyboard-response","84","1936196","0.0-5.0-0.0","182","1","2025-04-14 14:36:28","bb671e3ae32f654b8954ea4c4635f915","","Mozilla/5.0 (Macintosh; Intel Mac OS X 10_15_7) AppleWebKit/537.36 (KHTML, like Gecko) Chrome/135.0.0.0 Safari/537.36","Macintosh","Chrome","135.0.0.0","OS X","10_15_7","https://hz8g1ckzuq.cognition.run/","en-US,en;q=0.9","ae8qska6c1uu8by","43","[""White""]","No","Female","2262868.5999999996","null","","<p></p>","null","choice","tcd","attraction_2","2","microwave ovens","null","null","null","null","null","null","2","","","","","","","","","",""
"","","","","","choice_trial","survey-html-form","85","1946202","0.0-5.0-1.0","182","1","2025-04-14 14:36:28","bb671e3ae32f654b8954ea4c4635f915","","Mozilla/5.0 (Macintosh; Intel Mac OS X 10_15_7) AppleWebKit/537.36 (KHTML, like Gecko) Chrome/135.0.0.0 Safari/537.36","Macintosh","Chrome","135.0.0.0","OS X","10_15_7","https://hz8g1ckzuq.cognition.run/","en-US,en;q=0.9","ae8qska6c1uu8by","43","[""White""]","No","Female","2262868.5999999996","9994","","","{""product_choice"":""A""}","choice","tcd","attraction_2","2","microwave ovens","null","null","null","null","null","null","2","50","60","40","60","50","60","Warranty","Cooking power","",""
"","","","","","choice_trial_setup","html-keyboard-response","86","1946514","0.0-5.0-0.1","182","1","2025-04-14 14:36:28","bb671e3ae32f654b8954ea4c4635f915","","Mozilla/5.0 (Macintosh; Intel Mac OS X 10_15_7) AppleWebKit/537.36 (KHTML, like Gecko) Chrome/135.0.0.0 Safari/537.36","Macintosh","Chrome","135.0.0.0","OS X","10_15_7","https://hz8g1ckzuq.cognition.run/","en-US,en;q=0.9","ae8qska6c1uu8by","43","[""White""]","No","Female","2262868.5999999996","null","","<p></p>","null","choice","bww","catch","null","washing machines","90","55","30","5","25","10","2","","","","","","","","","",""
"","","","","","choice_trial","survey-html-form","87","1950935","0.0-5.0-1.1","182","1","2025-04-14 14:36:28","bb671e3ae32f654b8954ea4c4635f915","","Mozilla/5.0 (Macintosh; Intel Mac OS X 10_15_7) AppleWebKit/537.36 (KHTML, like Gecko) Chrome/135.0.0.0 Safari/537.36","Macintosh","Chrome","135.0.0.0","OS X","10_15_7","https://hz8g1ckzuq.cognition.run/","en-US,en;q=0.9","ae8qska6c1uu8by","43","[""White""]","No","Female","2262868.5999999996","4406","","","{""product_choice"":""A""}","choice","bww","catch","null","washing machines","90","55","30","5","25","10","2","null","null","null","null","null","null","Average lifespan","Energy savings","",""
"","","","","","choice_trial_setup","html-keyboard-response","88","1951246","0.0-5.0-0.2","182","1","2025-04-14 14:36:28","bb671e3ae32f654b8954ea4c4635f915","","Mozilla/5.0 (Macintosh; Intel Mac OS X 10_15_7) AppleWebKit/537.36 (KHTML, like Gecko) Chrome/135.0.0.0 Safari/537.36","Macintosh","Chrome","135.0.0.0","OS X","10_15_7","https://hz8g1ckzuq.cognition.run/","en-US,en;q=0.9","ae8qska6c1uu8by","43","[""White""]","No","Female","2262868.5999999996","null","","<p></p>","null","choice","dct","attraction_2","1","washing machines","null","null","null","null","null","null","2","","","","","","","","","",""
"","","","","","choice_trial","survey-html-form","89","1959485","0.0-5.0-1.2","182","1","2025-04-14 14:36:28","bb671e3ae32f654b8954ea4c4635f915","","Mozilla/5.0 (Macintosh; Intel Mac OS X 10_15_7) AppleWebKit/537.36 (KHTML, like Gecko) Chrome/135.0.0.0 Safari/537.36","Macintosh","Chrome","135.0.0.0","OS X","10_15_7","https://hz8g1ckzuq.cognition.run/","en-US,en;q=0.9","ae8qska6c1uu8by","43","[""White""]","No","Female","2262868.5999999996","8227","","","{""product_choice"":""C""}","choice","dct","attraction_2","1","washing machines","null","null","null","null","null","null","2","60","50","60","50","60","40","Average lifespan","Energy savings","",""
"","","","","","choice_trial_setup","html-keyboard-response","90","1959797","0.0-5.0-0.3","182","1","2025-04-14 14:36:28","bb671e3ae32f654b8954ea4c4635f915","","Mozilla/5.0 (Macintosh; Intel Mac OS X 10_15_7) AppleWebKit/537.36 (KHTML, like Gecko) Chrome/135.0.0.0 Safari/537.36","Macintosh","Chrome","135.0.0.0","OS X","10_15_7","https://hz8g1ckzuq.cognition.run/","en-US,en;q=0.9","ae8qska6c1uu8by","43","[""White""]","No","Female","2262868.5999999996","null","","<p></p>","null","choice","dct","repulsion_2","2","televisions","null","null","null","null","null","null","2","","","","","","","","","",""
"","","","","","choice_trial","survey-html-form","91","1970001","0.0-5.0-1.3","182","1","2025-04-14 14:36:28","bb671e3ae32f654b8954ea4c4635f915","","Mozilla/5.0 (Macintosh; Intel Mac OS X 10_15_7) AppleWebKit/537.36 (KHTML, like Gecko) Chrome/135.0.0.0 Safari/537.36","Macintosh","Chrome","135.0.0.0","OS X","10_15_7","https://hz8g1ckzuq.cognition.run/","en-US,en;q=0.9","ae8qska6c1uu8by","43","[""White""]","No","Female","2262868.5999999996","10192","","","{""product_choice"":""B""}","choice","dct","repulsion_2","2","televisions","null","null","null","null","null","null","2","30","40","20","100","90","100","Screen size","Average lifespan","",""
"","","","","","choice_trial_setup","html-keyboard-response","92","1970312","0.0-5.0-0.4","182","1","2025-04-14 14:36:28","bb671e3ae32f654b8954ea4c4635f915","","Mozilla/5.0 (Macintosh; Intel Mac OS X 10_15_7) AppleWebKit/537.36 (KHTML, like Gecko) Chrome/135.0.0.0 Safari/537.36","Macintosh","Chrome","135.0.0.0","OS X","10_15_7","https://hz8g1ckzuq.cognition.run/","en-US,en;q=0.9","ae8qska6c1uu8by","43","[""White""]","No","Female","2262868.5999999996","null","","<p></p>","null","choice","bww","catch","null","televisions","55","65","20","5","10","25","2","","","","","","","","","",""
"","","","","","choice_trial","survey-html-form","93","1975468","0.0-5.0-1.4","182","1","2025-04-14 14:36:28","bb671e3ae32f654b8954ea4c4635f915","","Mozilla/5.0 (Macintosh; Intel Mac OS X 10_15_7) AppleWebKit/537.36 (KHTML, like Gecko) Chrome/135.0.0.0 Safari/537.36","Macintosh","Chrome","135.0.0.0","OS X","10_15_7","https://hz8g1ckzuq.cognition.run/","en-US,en;q=0.9","ae8qska6c1uu8by","43","[""White""]","No","Female","2262868.5999999996","5143","","","{""product_choice"":""A""}","choice","bww","catch","null","televisions","55","65","20","5","10","25","2","null","null","null","null","null","null","Screen size","Average lifespan","",""
"","","","","","choice_trial_setup","html-keyboard-response","94","1975780","0.0-5.0-0.5","182","1","2025-04-14 14:36:28","bb671e3ae32f654b8954ea4c4635f915","","Mozilla/5.0 (Macintosh; Intel Mac OS X 10_15_7) AppleWebKit/537.36 (KHTML, like Gecko) Chrome/135.0.0.0 Safari/537.36","Macintosh","Chrome","135.0.0.0","OS X","10_15_7","https://hz8g1ckzuq.cognition.run/","en-US,en;q=0.9","ae8qska6c1uu8by","43","[""White""]","No","Female","2262868.5999999996","null","","<p></p>","null","choice","wwb","catch","null","microwave ovens","55","65","50","10","20","20","2","","","","","","","","","",""
"","","","","","choice_trial","survey-html-form","95","1980802","0.0-5.0-1.5","182","1","2025-04-14 14:36:28","bb671e3ae32f654b8954ea4c4635f915","","Mozilla/5.0 (Macintosh; Intel Mac OS X 10_15_7) AppleWebKit/537.36 (KHTML, like Gecko) Chrome/135.0.0.0 Safari/537.36","Macintosh","Chrome","135.0.0.0","OS X","10_15_7","https://hz8g1ckzuq.cognition.run/","en-US,en;q=0.9","ae8qska6c1uu8by","43","[""White""]","No","Female","2262868.5999999996","5010","","","{""product_choice"":""C""}","choice","wwb","catch","null","microwave ovens","55","65","50","10","20","20","2","null","null","null","null","null","null","Warranty","Cooking power","",""
"","","","","","choice_trial_setup","html-keyboard-response","96","1981115","0.0-5.0-0.6","182","1","2025-04-14 14:36:28","bb671e3ae32f654b8954ea4c4635f915","","Mozilla/5.0 (Macintosh; Intel Mac OS X 10_15_7) AppleWebKit/537.36 (KHTML, like Gecko) Chrome/135.0.0.0 Safari/537.36","Macintosh","Chrome","135.0.0.0","OS X","10_15_7","https://hz8g1ckzuq.cognition.run/","en-US,en;q=0.9","ae8qska6c1uu8by","43","[""White""]","No","Female","2262868.5999999996","null","","<p></p>","null","choice","dct","repulsion_1","1","laptops","null","null","null","null","null","null","2","","","","","","","","","",""
"","","","","","choice_trial","survey-html-form","97","1992535","0.0-5.0-1.6","182","1","2025-04-14 14:36:28","bb671e3ae32f654b8954ea4c4635f915","","Mozilla/5.0 (Macintosh; Intel Mac OS X 10_15_7) AppleWebKit/537.36 (KHTML, like Gecko) Chrome/135.0.0.0 Safari/537.36","Macintosh","Chrome","135.0.0.0","OS X","10_15_7","https://hz8g1ckzuq.cognition.run/","en-US,en;q=0.9","ae8qska6c1uu8by","43","[""White""]","No","Female","2262868.5999999996","11408","","","{""product_choice"":""C""}","choice","dct","repulsion_1","1","laptops","null","null","null","null","null","null","2","100","90","100","30","40","25","Processing speed","Memory (RAM)","",""
"","","","","","choice_trial_setup","html-keyboard-response","98","1992848","0.0-5.0-0.7","182","1","2025-04-14 14:36:28","bb671e3ae32f654b8954ea4c4635f915","","Mozilla/5.0 (Macintosh; Intel Mac OS X 10_15_7) AppleWebKit/537.36 (KHTML, like Gecko) Chrome/135.0.0.0 Safari/537.36","Macintosh","Chrome","135.0.0.0","OS X","10_15_7","https://hz8g1ckzuq.cognition.run/","en-US,en;q=0.9","ae8qska6c1uu8by","43","[""White""]","No","Female","2262868.5999999996","null","","<p></p>","null","choice","cdt","attraction_1","1","televisions","null","null","null","null","null","null","2","","","","","","","","","",""
"","","","","","choice_trial","survey-html-form","99","2000968","0.0-5.0-1.7","182","1","2025-04-14 14:36:28","bb671e3ae32f654b8954ea4c4635f915","","Mozilla/5.0 (Macintosh; Intel Mac OS X 10_15_7) AppleWebKit/537.36 (KHTML, like Gecko) Chrome/135.0.0.0 Safari/537.36","Macintosh","Chrome","135.0.0.0","OS X","10_15_7","https://hz8g1ckzuq.cognition.run/","en-US,en;q=0.9","ae8qska6c1uu8by","43","[""White""]","No","Female","2262868.5999999996","8108","","","{""product_choice"":""A""}","choice","cdt","attraction_1","1","televisions","null","null","null","null","null","null","2","60","50","60","50","60","45","Screen size","Average lifespan","",""
"","","","","","choice_trial_setup","html-keyboard-response","100","2001281","0.0-5.0-0.8","182","1","2025-04-14 14:36:28","bb671e3ae32f654b8954ea4c4635f915","","Mozilla/5.0 (Macintosh; Intel Mac OS X 10_15_7) AppleWebKit/537.36 (KHTML, like Gecko) Chrome/135.0.0.0 Safari/537.36","Macintosh","Chrome","135.0.0.0","OS X","10_15_7","https://hz8g1ckzuq.cognition.run/","en-US,en;q=0.9","ae8qska6c1uu8by","43","[""White""]","No","Female","2262868.5999999996","null","","<p></p>","null","choice","tdc","repulsion_2","1","laptops","null","null","null","null","null","null","2","","","","","","","","","",""
"","","","","","choice_trial","survey-html-form","101","2006769","0.0-5.0-1.8","182","1","2025-04-14 14:36:28","bb671e3ae32f654b8954ea4c4635f915","","Mozilla/5.0 (Macintosh; Intel Mac OS X 10_15_7) AppleWebKit/537.36 (KHTML, like Gecko) Chrome/135.0.0.0 Safari/537.36","Macintosh","Chrome","135.0.0.0","OS X","10_15_7","https://hz8g1ckzuq.cognition.run/","en-US,en;q=0.9","ae8qska6c1uu8by","43","[""White""]","No","Female","2262868.5999999996","5474","","","{""product_choice"":""A""}","choice","tdc","repulsion_2","1","laptops","null","null","null","null","null","null","2","100","90","100","30","40","20","Processing speed","Memory (RAM)","",""
"","","","","","choice_trial_setup","html-keyboard-response","102","2007081","0.0-5.0-0.9","182","1","2025-04-14 14:36:28","bb671e3ae32f654b8954ea4c4635f915","","Mozilla/5.0 (Macintosh; Intel Mac OS X 10_15_7) AppleWebKit/537.36 (KHTML, like Gecko) Chrome/135.0.0.0 Safari/537.36","Macintosh","Chrome","135.0.0.0","OS X","10_15_7","https://hz8g1ckzuq.cognition.run/","en-US,en;q=0.9","ae8qska6c1uu8by","43","[""White""]","No","Female","2262868.5999999996","null","","<p></p>","null","choice","tdc","attraction_2","2","televisions","null","null","null","null","null","null","2","","","","","","","","","",""
"","","","","","choice_trial","survey-html-form","103","2012585","0.0-5.0-1.9","182","1","2025-04-14 14:36:28","bb671e3ae32f654b8954ea4c4635f915","","Mozilla/5.0 (Macintosh; Intel Mac OS X 10_15_7) AppleWebKit/537.36 (KHTML, like Gecko) Chrome/135.0.0.0 Safari/537.36","Macintosh","Chrome","135.0.0.0","OS X","10_15_7","https://hz8g1ckzuq.cognition.run/","en-US,en;q=0.9","ae8qska6c1uu8by","43","[""White""]","No","Female","2262868.5999999996","5490","","","{""product_choice"":""A""}","choice","tdc","attraction_2","2","televisions","null","null","null","null","null","null","2","50","60","40","60","50","60","Screen size","Average lifespan","",""
"","","","","","choice_trial_setup","html-keyboard-response","104","2012899","0.0-5.0-0.10","182","1","2025-04-14 14:36:28","bb671e3ae32f654b8954ea4c4635f915","","Mozilla/5.0 (Macintosh; Intel Mac OS X 10_15_7) AppleWebKit/537.36 (KHTML, like Gecko) Chrome/135.0.0.0 Safari/537.36","Macintosh","Chrome","135.0.0.0","OS X","10_15_7","https://hz8g1ckzuq.cognition.run/","en-US,en;q=0.9","ae8qska6c1uu8by","43","[""White""]","No","Female","2262868.5999999996","null","","<p></p>","null","choice","tdc","repulsion_2","2","microwave ovens","null","null","null","null","null","null","1","","","","","","","","","",""
"","","","","","choice_trial","survey-html-form","105","2019085","0.0-5.0-1.10","182","1","2025-04-14 14:36:28","bb671e3ae32f654b8954ea4c4635f915","","Mozilla/5.0 (Macintosh; Intel Mac OS X 10_15_7) AppleWebKit/537.36 (KHTML, like Gecko) Chrome/135.0.0.0 Safari/537.36","Macintosh","Chrome","135.0.0.0","OS X","10_15_7","https://hz8g1ckzuq.cognition.run/","en-US,en;q=0.9","ae8qska6c1uu8by","43","[""White""]","No","Female","2262868.5999999996","6174","","","{""product_choice"":""C""}","choice","tdc","repulsion_2","2","microwave ovens","null","null","null","null","null","null","1","30","40","20","100","90","100","Warranty","Cooking power","",""
"","","","","","choice_trial_setup","html-keyboard-response","106","2019398","0.0-5.0-0.11","182","1","2025-04-14 14:36:28","bb671e3ae32f654b8954ea4c4635f915","","Mozilla/5.0 (Macintosh; Intel Mac OS X 10_15_7) AppleWebKit/537.36 (KHTML, like Gecko) Chrome/135.0.0.0 Safari/537.36","Macintosh","Chrome","135.0.0.0","OS X","10_15_7","https://hz8g1ckzuq.cognition.run/","en-US,en;q=0.9","ae8qska6c1uu8by","43","[""White""]","No","Female","2262868.5999999996","null","","<p></p>","null","choice","wbw","catch","null","laptops","85","70","5","5","35","20","2","","","","","","","","","",""
"","","","","","choice_trial","survey-html-form","107","2024518","0.0-5.0-1.11","182","1","2025-04-14 14:36:28","bb671e3ae32f654b8954ea4c4635f915","","Mozilla/5.0 (Macintosh; Intel Mac OS X 10_15_7) AppleWebKit/537.36 (KHTML, like Gecko) Chrome/135.0.0.0 Safari/537.36","Macintosh","Chrome","135.0.0.0","OS X","10_15_7","https://hz8g1ckzuq.cognition.run/","en-US,en;q=0.9","ae8qska6c1uu8by","43","[""White""]","No","Female","2262868.5999999996","5107","","","{""product_choice"":""B""}","choice","wbw","catch","null","laptops","85","70","5","5","35","20","2","null","null","null","null","null","null","Processing speed","Memory (RAM)","",""
"","","","","","choice_trial_setup","html-keyboard-response","108","2024831","0.0-5.0-0.12","182","1","2025-04-14 14:36:28","bb671e3ae32f654b8954ea4c4635f915","","Mozilla/5.0 (Macintosh; Intel Mac OS X 10_15_7) AppleWebKit/537.36 (KHTML, like Gecko) Chrome/135.0.0.0 Safari/537.36","Macintosh","Chrome","135.0.0.0","OS X","10_15_7","https://hz8g1ckzuq.cognition.run/","en-US,en;q=0.9","ae8qska6c1uu8by","43","[""White""]","No","Female","2262868.5999999996","null","","<p></p>","null","choice","dtc","attraction_1","2","microwave ovens","null","null","null","null","null","null","2","","","","","","","","","",""
"","","","","","choice_trial","survey-html-form","109","2031719","0.0-5.0-1.12","182","1","2025-04-14 14:36:28","bb671e3ae32f654b8954ea4c4635f915","","Mozilla/5.0 (Macintosh; Intel Mac OS X 10_15_7) AppleWebKit/537.36 (KHTML, like Gecko) Chrome/135.0.0.0 Safari/537.36","Macintosh","Chrome","135.0.0.0","OS X","10_15_7","https://hz8g1ckzuq.cognition.run/","en-US,en;q=0.9","ae8qska6c1uu8by","43","[""White""]","No","Female","2262868.5999999996","6879","","","{""product_choice"":""B""}","choice","dtc","attraction_1","2","microwave ovens","null","null","null","null","null","null","2","50","60","45","60","50","60","Warranty","Cooking power","",""
"","","","","","choice_trial_setup","html-keyboard-response","110","2032033","0.0-5.0-0.13","182","1","2025-04-14 14:36:28","bb671e3ae32f654b8954ea4c4635f915","","Mozilla/5.0 (Macintosh; Intel Mac OS X 10_15_7) AppleWebKit/537.36 (KHTML, like Gecko) Chrome/135.0.0.0 Safari/537.36","Macintosh","Chrome","135.0.0.0","OS X","10_15_7","https://hz8g1ckzuq.cognition.run/","en-US,en;q=0.9","ae8qska6c1uu8by","43","[""White""]","No","Female","2262868.5999999996","null","","<p></p>","null","choice","dtc","attraction_1","2","washing machines","null","null","null","null","null","null","1","","","","","","","","","",""
"","","","","","choice_trial","survey-html-form","111","2036835","0.0-5.0-1.13","182","1","2025-04-14 14:36:28","bb671e3ae32f654b8954ea4c4635f915","","Mozilla/5.0 (Macintosh; Intel Mac OS X 10_15_7) AppleWebKit/537.36 (KHTML, like Gecko) Chrome/135.0.0.0 Safari/537.36","Macintosh","Chrome","135.0.0.0","OS X","10_15_7","https://hz8g1ckzuq.cognition.run/","en-US,en;q=0.9","ae8qska6c1uu8by","43","[""White""]","No","Female","2262868.5999999996","4788","","","{""product_choice"":""C""}","choice","dtc","attraction_1","2","washing machines","null","null","null","null","null","null","1","50","60","45","60","50","60","Average lifespan","Energy savings","",""
"","","","","","choice_trial_setup","html-keyboard-response","112","2037149","0.0-5.0-0.14","182","1","2025-04-14 14:36:28","bb671e3ae32f654b8954ea4c4635f915","","Mozilla/5.0 (Macintosh; Intel Mac OS X 10_15_7) AppleWebKit/537.36 (KHTML, like Gecko) Chrome/135.0.0.0 Safari/537.36","Macintosh","Chrome","135.0.0.0","OS X","10_15_7","https://hz8g1ckzuq.cognition.run/","en-US,en;q=0.9","ae8qska6c1uu8by","43","[""White""]","No","Female","2262868.5999999996","null","","<p></p>","null","choice","dtc","attraction_1","2","televisions","null","null","null","null","null","null","1","","","","","","","","","",""
"","","","","","choice_trial","survey-html-form","113","2060535","0.0-5.0-1.14","182","1","2025-04-14 14:36:28","bb671e3ae32f654b8954ea4c4635f915","","Mozilla/5.0 (Macintosh; Intel Mac OS X 10_15_7) AppleWebKit/537.36 (KHTML, like Gecko) Chrome/135.0.0.0 Safari/537.36","Macintosh","Chrome","135.0.0.0","OS X","10_15_7","https://hz8g1ckzuq.cognition.run/","en-US,en;q=0.9","ae8qska6c1uu8by","43","[""White""]","No","Female","2262868.5999999996","23373","","","{""product_choice"":""B""}","choice","dtc","attraction_1","2","televisions","null","null","null","null","null","null","1","50","60","45","60","50","60","Screen size","Average lifespan","",""
"","","","","","choice_trial_setup","html-keyboard-response","114","2060849","0.0-5.0-0.15","182","1","2025-04-14 14:36:28","bb671e3ae32f654b8954ea4c4635f915","","Mozilla/5.0 (Macintosh; Intel Mac OS X 10_15_7) AppleWebKit/537.36 (KHTML, like Gecko) Chrome/135.0.0.0 Safari/537.36","Macintosh","Chrome","135.0.0.0","OS X","10_15_7","https://hz8g1ckzuq.cognition.run/","en-US,en;q=0.9","ae8qska6c1uu8by","43","[""White""]","No","Female","2262868.5999999996","null","","<p></p>","null","choice","tcd","attraction_2","2","laptops","null","null","null","null","null","null","1","","","","","","","","","",""
"","","","","","choice_trial","survey-html-form","115","2065068","0.0-5.0-1.15","182","1","2025-04-14 14:36:28","bb671e3ae32f654b8954ea4c4635f915","","Mozilla/5.0 (Macintosh; Intel Mac OS X 10_15_7) AppleWebKit/537.36 (KHTML, like Gecko) Chrome/135.0.0.0 Safari/537.36","Macintosh","Chrome","135.0.0.0","OS X","10_15_7","https://hz8g1ckzuq.cognition.run/","en-US,en;q=0.9","ae8qska6c1uu8by","43","[""White""]","No","Female","2262868.5999999996","4204","","","{""product_choice"":""B""}","choice","tcd","attraction_2","2","laptops","null","null","null","null","null","null","1","50","60","40","60","50","60","Processing speed","Memory (RAM)","",""
"","","","","","choice_trial_setup","html-keyboard-response","116","2065383","0.0-5.0-0.16","182","1","2025-04-14 14:36:28","bb671e3ae32f654b8954ea4c4635f915","","Mozilla/5.0 (Macintosh; Intel Mac OS X 10_15_7) AppleWebKit/537.36 (KHTML, like Gecko) Chrome/135.0.0.0 Safari/537.36","Macintosh","Chrome","135.0.0.0","OS X","10_15_7","https://hz8g1ckzuq.cognition.run/","en-US,en;q=0.9","ae8qska6c1uu8by","43","[""White""]","No","Female","2262868.5999999996","null","","<p></p>","null","choice","bww","catch","null","televisions","85","55","40","25","40","30","1","","","","","","","","","",""
"","","","","","choice_trial","survey-html-form","117","2069984","0.0-5.0-1.16","182","1","2025-04-14 14:36:28","bb671e3ae32f654b8954ea4c4635f915","","Mozilla/5.0 (Macintosh; Intel Mac OS X 10_15_7) AppleWebKit/537.36 (KHTML, like Gecko) Chrome/135.0.0.0 Safari/537.36","Macintosh","Chrome","135.0.0.0","OS X","10_15_7","https://hz8g1ckzuq.cognition.run/","en-US,en;q=0.9","ae8qska6c1uu8by","43","[""White""]","No","Female","2262868.5999999996","4587","","","{""product_choice"":""A""}","choice","bww","catch","null","televisions","85","55","40","25","40","30","1","null","null","null","null","null","null","Screen size","Average lifespan","",""
"","","","","","choice_trial_setup","html-keyboard-response","118","2070299","0.0-5.0-0.17","182","1","2025-04-14 14:36:28","bb671e3ae32f654b8954ea4c4635f915","","Mozilla/5.0 (Macintosh; Intel Mac OS X 10_15_7) AppleWebKit/537.36 (KHTML, like Gecko) Chrome/135.0.0.0 Safari/537.36","Macintosh","Chrome","135.0.0.0","OS X","10_15_7","https://hz8g1ckzuq.cognition.run/","en-US,en;q=0.9","ae8qska6c1uu8by","43","[""White""]","No","Female","2262868.5999999996","null","","<p></p>","null","choice","tcd","repulsion_2","1","microwave ovens","null","null","null","null","null","null","1","","","","","","","","","",""
"","","","","","choice_trial","survey-html-form","119","2074518","0.0-5.0-1.17","182","1","2025-04-14 14:36:28","bb671e3ae32f654b8954ea4c4635f915","","Mozilla/5.0 (Macintosh; Intel Mac OS X 10_15_7) AppleWebKit/537.36 (KHTML, like Gecko) Chrome/135.0.0.0 Safari/537.36","Macintosh","Chrome","135.0.0.0","OS X","10_15_7","https://hz8g1ckzuq.cognition.run/","en-US,en;q=0.9","ae8qska6c1uu8by","43","[""White""]","No","Female","2262868.5999999996","4206","","","{""product_choice"":""B""}","choice","tcd","repulsion_2","1","microwave ovens","null","null","null","null","null","null","1","100","90","100","30","40","20","Warranty","Cooking power","",""
"","","","","","choice_trial_setup","html-keyboard-response","120","2074833","0.0-5.0-0.18","182","1","2025-04-14 14:36:28","bb671e3ae32f654b8954ea4c4635f915","","Mozilla/5.0 (Macintosh; Intel Mac OS X 10_15_7) AppleWebKit/537.36 (KHTML, like Gecko) Chrome/135.0.0.0 Safari/537.36","Macintosh","Chrome","135.0.0.0","OS X","10_15_7","https://hz8g1ckzuq.cognition.run/","en-US,en;q=0.9","ae8qska6c1uu8by","43","[""White""]","No","Female","2262868.5999999996","null","","<p></p>","null","choice","dct","repulsion_2","1","washing machines","null","null","null","null","null","null","2","","","","","","","","","",""
"","","","","","choice_trial","survey-html-form","121","2083219","0.0-5.0-1.18","182","1","2025-04-14 14:36:28","bb671e3ae32f654b8954ea4c4635f915","","Mozilla/5.0 (Macintosh; Intel Mac OS X 10_15_7) AppleWebKit/537.36 (KHTML, like Gecko) Chrome/135.0.0.0 Safari/537.36","Macintosh","Chrome","135.0.0.0","OS X","10_15_7","https://hz8g1ckzuq.cognition.run/","en-US,en;q=0.9","ae8qska6c1uu8by","43","[""White""]","No","Female","2262868.5999999996","8370","","","{""product_choice"":""B""}","choice","dct","repulsion_2","1","washing machines","null","null","null","null","null","null","2","100","90","100","30","40","20","Average lifespan","Energy savings","",""
"","","","","","choice_trial_setup","html-keyboard-response","122","2083533","0.0-5.0-0.19","182","1","2025-04-14 14:36:28","bb671e3ae32f654b8954ea4c4635f915","","Mozilla/5.0 (Macintosh; Intel Mac OS X 10_15_7) AppleWebKit/537.36 (KHTML, like Gecko) Chrome/135.0.0.0 Safari/537.36","Macintosh","Chrome","135.0.0.0","OS X","10_15_7","https://hz8g1ckzuq.cognition.run/","en-US,en;q=0.9","ae8qska6c1uu8by","43","[""White""]","No","Female","2262868.5999999996","null","","<p></p>","null","choice","cdt","attraction_2","1","televisions","null","null","null","null","null","null","2","","","","","","","","","",""
"","","","","","choice_trial","survey-html-form","123","2089618","0.0-5.0-1.19","182","1","2025-04-14 14:36:28","bb671e3ae32f654b8954ea4c4635f915","","Mozilla/5.0 (Macintosh; Intel Mac OS X 10_15_7) AppleWebKit/537.36 (KHTML, like Gecko) Chrome/135.0.0.0 Safari/537.36","Macintosh","Chrome","135.0.0.0","OS X","10_15_7","https://hz8g1ckzuq.cognition.run/","en-US,en;q=0.9","ae8qska6c1uu8by","43","[""White""]","No","Female","2262868.5999999996","6072","","","{""product_choice"":""A""}","choice","cdt","attraction_2","1","televisions","null","null","null","null","null","null","2","60","50","60","50","60","40","Screen size","Average lifespan","",""
"","","","","","choice_trial_setup","html-keyboard-response","124","2089933","0.0-5.0-0.20","182","1","2025-04-14 14:36:28","bb671e3ae32f654b8954ea4c4635f915","","Mozilla/5.0 (Macintosh; Intel Mac OS X 10_15_7) AppleWebKit/537.36 (KHTML, like Gecko) Chrome/135.0.0.0 Safari/537.36","Macintosh","Chrome","135.0.0.0","OS X","10_15_7","https://hz8g1ckzuq.cognition.run/","en-US,en;q=0.9","ae8qska6c1uu8by","43","[""White""]","No","Female","2262868.5999999996","null","","<p></p>","null","choice","cdt","attraction_2","1","microwave ovens","null","null","null","null","null","null","1","","","","","","","","","",""
"","","","","","choice_trial","survey-html-form","125","2098118","0.0-5.0-1.20","182","1","2025-04-14 14:36:28","bb671e3ae32f654b8954ea4c4635f915","","Mozilla/5.0 (Macintosh; Intel Mac OS X 10_15_7) AppleWebKit/537.36 (KHTML, like Gecko) Chrome/135.0.0.0 Safari/537.36","Macintosh","Chrome","135.0.0.0","OS X","10_15_7","https://hz8g1ckzuq.cognition.run/","en-US,en;q=0.9","ae8qska6c1uu8by","43","[""White""]","No","Female","2262868.5999999996","8175","","","{""product_choice"":""A""}","choice","cdt","attraction_2","1","microwave ovens","null","null","null","null","null","null","1","60","50","60","50","60","40","Warranty","Cooking power","",""
"","","","","","choice_trial_setup","html-keyboard-response","126","2098433","0.0-5.0-0.21","182","1","2025-04-14 14:36:28","bb671e3ae32f654b8954ea4c4635f915","","Mozilla/5.0 (Macintosh; Intel Mac OS X 10_15_7) AppleWebKit/537.36 (KHTML, like Gecko) Chrome/135.0.0.0 Safari/537.36","Macintosh","Chrome","135.0.0.0","OS X","10_15_7","https://hz8g1ckzuq.cognition.run/","en-US,en;q=0.9","ae8qska6c1uu8by","43","[""White""]","No","Female","2262868.5999999996","null","","<p></p>","null","choice","dtc","attraction_1","1","microwave ovens","null","null","null","null","null","null","1","","","","","","","","","",""
"","","","","","choice_trial","survey-html-form","127","2106717","0.0-5.0-1.21","182","1","2025-04-14 14:36:28","bb671e3ae32f654b8954ea4c4635f915","","Mozilla/5.0 (Macintosh; Intel Mac OS X 10_15_7) AppleWebKit/537.36 (KHTML, like Gecko) Chrome/135.0.0.0 Safari/537.36","Macintosh","Chrome","135.0.0.0","OS X","10_15_7","https://hz8g1ckzuq.cognition.run/","en-US,en;q=0.9","ae8qska6c1uu8by","43","[""White""]","No","Female","2262868.5999999996","8268","","","{""product_choice"":""C""}","choice","dtc","attraction_1","1","microwave ovens","null","null","null","null","null","null","1","60","50","60","50","60","45","Warranty","Cooking power","",""
"","","","","","choice_trial_setup","html-keyboard-response","128","2107032","0.0-5.0-0.22","182","1","2025-04-14 14:36:28","bb671e3ae32f654b8954ea4c4635f915","","Mozilla/5.0 (Macintosh; Intel Mac OS X 10_15_7) AppleWebKit/537.36 (KHTML, like Gecko) Chrome/135.0.0.0 Safari/537.36","Macintosh","Chrome","135.0.0.0","OS X","10_15_7","https://hz8g1ckzuq.cognition.run/","en-US,en;q=0.9","ae8qska6c1uu8by","43","[""White""]","No","Female","2262868.5999999996","null","","<p></p>","null","choice","dtc","repulsion_1","1","televisions","null","null","null","null","null","null","2","","","","","","","","","",""
"","","","","","choice_trial","survey-html-form","129","2112902","0.0-5.0-1.22","182","1","2025-04-14 14:36:28","bb671e3ae32f654b8954ea4c4635f915","","Mozilla/5.0 (Macintosh; Intel Mac OS X 10_15_7) AppleWebKit/537.36 (KHTML, like Gecko) Chrome/135.0.0.0 Safari/537.36","Macintosh","Chrome","135.0.0.0","OS X","10_15_7","https://hz8g1ckzuq.cognition.run/","en-US,en;q=0.9","ae8qska6c1uu8by","43","[""White""]","No","Female","2262868.5999999996","5856","","","{""product_choice"":""C""}","choice","dtc","repulsion_1","1","televisions","null","null","null","null","null","null","2","100","90","100","30","40","25","Screen size","Average lifespan","",""
"","","","","","choice_trial_setup","html-keyboard-response","130","2113218","0.0-5.0-0.23","182","1","2025-04-14 14:36:28","bb671e3ae32f654b8954ea4c4635f915","","Mozilla/5.0 (Macintosh; Intel Mac OS X 10_15_7) AppleWebKit/537.36 (KHTML, like Gecko) Chrome/135.0.0.0 Safari/537.36","Macintosh","Chrome","135.0.0.0","OS X","10_15_7","https://hz8g1ckzuq.cognition.run/","en-US,en;q=0.9","ae8qska6c1uu8by","43","[""White""]","No","Female","2262868.5999999996","null","","<p></p>","null","choice","tcd","repulsion_1","2","washing machines","null","null","null","null","null","null","2","","","","","","","","","",""
"","","","","","choice_trial","survey-html-form","131","2117235","0.0-5.0-1.23","182","1","2025-04-14 14:36:28","bb671e3ae32f654b8954ea4c4635f915","","Mozilla/5.0 (Macintosh; Intel Mac OS X 10_15_7) AppleWebKit/537.36 (KHTML, like Gecko) Chrome/135.0.0.0 Safari/537.36","Macintosh","Chrome","135.0.0.0","OS X","10_15_7","https://hz8g1ckzuq.cognition.run/","en-US,en;q=0.9","ae8qska6c1uu8by","43","[""White""]","No","Female","2262868.5999999996","4001","","","{""product_choice"":""B""}","choice","tcd","repulsion_1","2","washing machines","null","null","null","null","null","null","2","30","40","25","100","90","100","Average lifespan","Energy savings","",""
"","","","","","choice_trial_setup","html-keyboard-response","132","2117550","0.0-5.0-0.24","182","1","2025-04-14 14:36:28","bb671e3ae32f654b8954ea4c4635f915","","Mozilla/5.0 (Macintosh; Intel Mac OS X 10_15_7) AppleWebKit/537.36 (KHTML, like Gecko) Chrome/135.0.0.0 Safari/537.36","Macintosh","Chrome","135.0.0.0","OS X","10_15_7","https://hz8g1ckzuq.cognition.run/","en-US,en;q=0.9","ae8qska6c1uu8by","43","[""White""]","No","Female","2262868.5999999996","null","","<p></p>","null","choice","tcd","attraction_1","1","washing machines","null","null","null","null","null","null","2","","","","","","","","","",""
"","","","","","choice_trial","survey-html-form","133","2128952","0.0-5.0-1.24","182","1","2025-04-14 14:36:28","bb671e3ae32f654b8954ea4c4635f915","","Mozilla/5.0 (Macintosh; Intel Mac OS X 10_15_7) AppleWebKit/537.36 (KHTML, like Gecko) Chrome/135.0.0.0 Safari/537.36","Macintosh","Chrome","135.0.0.0","OS X","10_15_7","https://hz8g1ckzuq.cognition.run/","en-US,en;q=0.9","ae8qska6c1uu8by","43","[""White""]","No","Female","2262868.5999999996","11387","","","{""product_choice"":""A""}","choice","tcd","attraction_1","1","washing machines","null","null","null","null","null","null","2","60","50","60","50","60","45","Average lifespan","Energy savings","",""
"","","","","","choice_trial_setup","html-keyboard-response","134","2129268","0.0-5.0-0.25","182","1","2025-04-14 14:36:28","bb671e3ae32f654b8954ea4c4635f915","","Mozilla/5.0 (Macintosh; Intel Mac OS X 10_15_7) AppleWebKit/537.36 (KHTML, like Gecko) Chrome/135.0.0.0 Safari/537.36","Macintosh","Chrome","135.0.0.0","OS X","10_15_7","https://hz8g1ckzuq.cognition.run/","en-US,en;q=0.9","ae8qska6c1uu8by","43","[""White""]","No","Female","2262868.5999999996","null","","<p></p>","null","choice","wbw","catch","null","washing machines","65","90","5","5","5","35","1","","","","","","","","","",""
"","","","","","choice_trial","survey-html-form","135","2140551","0.0-5.0-1.25","182","1","2025-04-14 14:36:28","bb671e3ae32f654b8954ea4c4635f915","","Mozilla/5.0 (Macintosh; Intel Mac OS X 10_15_7) AppleWebKit/537.36 (KHTML, like Gecko) Chrome/135.0.0.0 Safari/537.36","Macintosh","Chrome","135.0.0.0","OS X","10_15_7","https://hz8g1ckzuq.cognition.run/","en-US,en;q=0.9","ae8qska6c1uu8by","43","[""White""]","No","Female","2262868.5999999996","11266","","","{""product_choice"":""B""}","choice","wbw","catch","null","washing machines","65","90","5","5","5","35","1","null","null","null","null","null","null","Average lifespan","Energy savings","",""
"","","","","","choice_trial_setup","html-keyboard-response","136","2140867","0.0-5.0-0.26","182","1","2025-04-14 14:36:28","bb671e3ae32f654b8954ea4c4635f915","","Mozilla/5.0 (Macintosh; Intel Mac OS X 10_15_7) AppleWebKit/537.36 (KHTML, like Gecko) Chrome/135.0.0.0 Safari/537.36","Macintosh","Chrome","135.0.0.0","OS X","10_15_7","https://hz8g1ckzuq.cognition.run/","en-US,en;q=0.9","ae8qska6c1uu8by","43","[""White""]","No","Female","2262868.5999999996","null","","<p></p>","null","choice","dct","repulsion_2","2","washing machines","null","null","null","null","null","null","2","","","","","","","","","",""
"","","","","","choice_trial","survey-html-form","137","2145585","0.0-5.0-1.26","182","1","2025-04-14 14:36:28","bb671e3ae32f654b8954ea4c4635f915","","Mozilla/5.0 (Macintosh; Intel Mac OS X 10_15_7) AppleWebKit/537.36 (KHTML, like Gecko) Chrome/135.0.0.0 Safari/537.36","Macintosh","Chrome","135.0.0.0","OS X","10_15_7","https://hz8g1ckzuq.cognition.run/","en-US,en;q=0.9","ae8qska6c1uu8by","43","[""White""]","No","Female","2262868.5999999996","4704","","","{""product_choice"":""B""}","choice","dct","repulsion_2","2","washing machines","null","null","null","null","null","null","2","30","40","20","100","90","100","Average lifespan","Energy savings","",""
"","","","","","choice_trial_setup","html-keyboard-response","138","2145902","0.0-5.0-0.27","182","1","2025-04-14 14:36:28","bb671e3ae32f654b8954ea4c4635f915","","Mozilla/5.0 (Macintosh; Intel Mac OS X 10_15_7) AppleWebKit/537.36 (KHTML, like Gecko) Chrome/135.0.0.0 Safari/537.36","Macintosh","Chrome","135.0.0.0","OS X","10_15_7","https://hz8g1ckzuq.cognition.run/","en-US,en;q=0.9","ae8qska6c1uu8by","43","[""White""]","No","Female","2262868.5999999996","null","","<p></p>","null","choice","cdt","attraction_1","1","laptops","null","null","null","null","null","null","1","","","","","","","","","",""
"","","","","","choice_trial","survey-html-form","139","2152118","0.0-5.0-1.27","182","1","2025-04-14 14:36:28","bb671e3ae32f654b8954ea4c4635f915","","Mozilla/5.0 (Macintosh; Intel Mac OS X 10_15_7) AppleWebKit/537.36 (KHTML, like Gecko) Chrome/135.0.0.0 Safari/537.36","Macintosh","Chrome","135.0.0.0","OS X","10_15_7","https://hz8g1ckzuq.cognition.run/","en-US,en;q=0.9","ae8qska6c1uu8by","43","[""White""]","No","Female","2262868.5999999996","6200","","","{""product_choice"":""C""}","choice","cdt","attraction_1","1","laptops","null","null","null","null","null","null","1","60","50","60","50","60","45","Processing speed","Memory (RAM)","",""
"","","","","","choice_trial_setup","html-keyboard-response","140","2152433","0.0-5.0-0.28","182","1","2025-04-14 14:36:28","bb671e3ae32f654b8954ea4c4635f915","","Mozilla/5.0 (Macintosh; Intel Mac OS X 10_15_7) AppleWebKit/537.36 (KHTML, like Gecko) Chrome/135.0.0.0 Safari/537.36","Macintosh","Chrome","135.0.0.0","OS X","10_15_7","https://hz8g1ckzuq.cognition.run/","en-US,en;q=0.9","ae8qska6c1uu8by","43","[""White""]","No","Female","2262868.5999999996","null","","<p></p>","null","choice","tdc","repulsion_1","1","washing machines","null","null","null","null","null","null","2","","","","","","","","","",""
"","","","","","choice_trial","survey-html-form","141","2158602","0.0-5.0-1.28","182","1","2025-04-14 14:36:28","bb671e3ae32f654b8954ea4c4635f915","","Mozilla/5.0 (Macintosh; Intel Mac OS X 10_15_7) AppleWebKit/537.36 (KHTML, like Gecko) Chrome/135.0.0.0 Safari/537.36","Macintosh","Chrome","135.0.0.0","OS X","10_15_7","https://hz8g1ckzuq.cognition.run/","en-US,en;q=0.9","ae8qska6c1uu8by","43","[""White""]","No","Female","2262868.5999999996","6153","","","{""product_choice"":""C""}","choice","tdc","repulsion_1","1","washing machines","null","null","null","null","null","null","2","100","90","100","30","40","25","Average lifespan","Energy savings","",""
"","","","","","choice_trial_setup","html-keyboard-response","142","2158919","0.0-5.0-0.29","182","1","2025-04-14 14:36:28","bb671e3ae32f654b8954ea4c4635f915","","Mozilla/5.0 (Macintosh; Intel Mac OS X 10_15_7) AppleWebKit/537.36 (KHTML, like Gecko) Chrome/135.0.0.0 Safari/537.36","Macintosh","Chrome","135.0.0.0","OS X","10_15_7","https://hz8g1ckzuq.cognition.run/","en-US,en;q=0.9","ae8qska6c1uu8by","43","[""White""]","No","Female","2262868.5999999996","null","","<p></p>","null","choice","dtc","repulsion_2","2","laptops","null","null","null","null","null","null","2","","","","","","","","","",""
"","","","","","choice_trial","survey-html-form","143","2163768","0.0-5.0-1.29","182","1","2025-04-14 14:36:28","bb671e3ae32f654b8954ea4c4635f915","","Mozilla/5.0 (Macintosh; Intel Mac OS X 10_15_7) AppleWebKit/537.36 (KHTML, like Gecko) Chrome/135.0.0.0 Safari/537.36","Macintosh","Chrome","135.0.0.0","OS X","10_15_7","https://hz8g1ckzuq.cognition.run/","en-US,en;q=0.9","ae8qska6c1uu8by","43","[""White""]","No","Female","2262868.5999999996","4832","","","{""product_choice"":""C""}","choice","dtc","repulsion_2","2","laptops","null","null","null","null","null","null","2","30","40","20","100","90","100","Processing speed","Memory (RAM)","",""
"","","","","","choice_trial_setup","html-keyboard-response","144","2164085","0.0-5.0-0.30","182","1","2025-04-14 14:36:28","bb671e3ae32f654b8954ea4c4635f915","","Mozilla/5.0 (Macintosh; Intel Mac OS X 10_15_7) AppleWebKit/537.36 (KHTML, like Gecko) Chrome/135.0.0.0 Safari/537.36","Macintosh","Chrome","135.0.0.0","OS X","10_15_7","https://hz8g1ckzuq.cognition.run/","en-US,en;q=0.9","ae8qska6c1uu8by","43","[""White""]","No","Female","2262868.5999999996","null","","<p></p>","null","choice","dct","repulsion_1","2","laptops","null","null","null","null","null","null","1","","","","","","","","","",""
"","","","","","choice_trial","survey-html-form","145","2168818","0.0-5.0-1.30","182","1","2025-04-14 14:36:28","bb671e3ae32f654b8954ea4c4635f915","","Mozilla/5.0 (Macintosh; Intel Mac OS X 10_15_7) AppleWebKit/537.36 (KHTML, like Gecko) Chrome/135.0.0.0 Safari/537.36","Macintosh","Chrome","135.0.0.0","OS X","10_15_7","https://hz8g1ckzuq.cognition.run/","en-US,en;q=0.9","ae8qska6c1uu8by","43","[""White""]","No","Female","2262868.5999999996","4716","","","{""product_choice"":""B""}","choice","dct","repulsion_1","2","laptops","null","null","null","null","null","null","1","30","40","25","100","90","100","Processing speed","Memory (RAM)","",""
"","","","","","choice_trial_setup","html-keyboard-response","146","2169135","0.0-5.0-0.31","182","1","2025-04-14 14:36:28","bb671e3ae32f654b8954ea4c4635f915","","Mozilla/5.0 (Macintosh; Intel Mac OS X 10_15_7) AppleWebKit/537.36 (KHTML, like Gecko) Chrome/135.0.0.0 Safari/537.36","Macintosh","Chrome","135.0.0.0","OS X","10_15_7","https://hz8g1ckzuq.cognition.run/","en-US,en;q=0.9","ae8qska6c1uu8by","43","[""White""]","No","Female","2262868.5999999996","null","","<p></p>","null","choice","dct","repulsion_1","1","microwave ovens","null","null","null","null","null","null","2","","","","","","","","","",""
"","","","","","choice_trial","survey-html-form","147","2175252","0.0-5.0-1.31","182","1","2025-04-14 14:36:28","bb671e3ae32f654b8954ea4c4635f915","","Mozilla/5.0 (Macintosh; Intel Mac OS X 10_15_7) AppleWebKit/537.36 (KHTML, like Gecko) Chrome/135.0.0.0 Safari/537.36","Macintosh","Chrome","135.0.0.0","OS X","10_15_7","https://hz8g1ckzuq.cognition.run/","en-US,en;q=0.9","ae8qska6c1uu8by","43","[""White""]","No","Female","2262868.5999999996","6102","","","{""product_choice"":""B""}","choice","dct","repulsion_1","1","microwave ovens","null","null","null","null","null","null","2","100","90","100","30","40","25","Warranty","Cooking power","",""
"","","","","","choice_trial_setup","html-keyboard-response","148","2175569","0.0-5.0-0.32","182","1","2025-04-14 14:36:28","bb671e3ae32f654b8954ea4c4635f915","","Mozilla/5.0 (Macintosh; Intel Mac OS X 10_15_7) AppleWebKit/537.36 (KHTML, like Gecko) Chrome/135.0.0.0 Safari/537.36","Macintosh","Chrome","135.0.0.0","OS X","10_15_7","https://hz8g1ckzuq.cognition.run/","en-US,en;q=0.9","ae8qska6c1uu8by","43","[""White""]","No","Female","2262868.5999999996","null","","<p></p>","null","choice","tdc","repulsion_1","2","televisions","null","null","null","null","null","null","1","","","","","","","","","",""
"","","","","","choice_trial","survey-html-form","149","2182235","0.0-5.0-1.32","182","1","2025-04-14 14:36:28","bb671e3ae32f654b8954ea4c4635f915","","Mozilla/5.0 (Macintosh; Intel Mac OS X 10_15_7) AppleWebKit/537.36 (KHTML, like Gecko) Chrome/135.0.0.0 Safari/537.36","Macintosh","Chrome","135.0.0.0","OS X","10_15_7","https://hz8g1ckzuq.cognition.run/","en-US,en;q=0.9","ae8qska6c1uu8by","43","[""White""]","No","Female","2262868.5999999996","6651","","","{""product_choice"":""C""}","choice","tdc","repulsion_1","2","televisions","null","null","null","null","null","null","1","30","40","25","100","90","100","Screen size","Average lifespan","",""
"","","","","","choice_trial_setup","html-keyboard-response","150","2182553","0.0-5.0-0.33","182","1","2025-04-14 14:36:28","bb671e3ae32f654b8954ea4c4635f915","","Mozilla/5.0 (Macintosh; Intel Mac OS X 10_15_7) AppleWebKit/537.36 (KHTML, like Gecko) Chrome/135.0.0.0 Safari/537.36","Macintosh","Chrome","135.0.0.0","OS X","10_15_7","https://hz8g1ckzuq.cognition.run/","en-US,en;q=0.9","ae8qska6c1uu8by","43","[""White""]","No","Female","2262868.5999999996","null","","<p></p>","null","choice","dtc","attraction_1","2","laptops","null","null","null","null","null","null","2","","","","","","","","","",""
"","","","","","choice_trial","survey-html-form","151","2187452","0.0-5.0-1.33","182","1","2025-04-14 14:36:28","bb671e3ae32f654b8954ea4c4635f915","","Mozilla/5.0 (Macintosh; Intel Mac OS X 10_15_7) AppleWebKit/537.36 (KHTML, like Gecko) Chrome/135.0.0.0 Safari/537.36","Macintosh","Chrome","135.0.0.0","OS X","10_15_7","https://hz8g1ckzuq.cognition.run/","en-US,en;q=0.9","ae8qska6c1uu8by","43","[""White""]","No","Female","2262868.5999999996","4882","","","{""product_choice"":""C""}","choice","dtc","attraction_1","2","laptops","null","null","null","null","null","null","2","50","60","45","60","50","60","Processing speed","Memory (RAM)","",""
"","","","","","choice_trial_setup","html-keyboard-response","152","2187768","0.0-5.0-0.34","182","1","2025-04-14 14:36:28","bb671e3ae32f654b8954ea4c4635f915","","Mozilla/5.0 (Macintosh; Intel Mac OS X 10_15_7) AppleWebKit/537.36 (KHTML, like Gecko) Chrome/135.0.0.0 Safari/537.36","Macintosh","Chrome","135.0.0.0","OS X","10_15_7","https://hz8g1ckzuq.cognition.run/","en-US,en;q=0.9","ae8qska6c1uu8by","43","[""White""]","No","Female","2262868.5999999996","null","","<p></p>","null","choice","wwb","catch","null","laptops","80","60","5","45","35","5","1","","","","","","","","","",""
"","","","","","choice_trial","survey-html-form","153","2190832","0.0-5.0-1.34","182","1","2025-04-14 14:36:28","bb671e3ae32f654b8954ea4c4635f915","","Mozilla/5.0 (Macintosh; Intel Mac OS X 10_15_7) AppleWebKit/537.36 (KHTML, like Gecko) Chrome/135.0.0.0 Safari/537.36","Macintosh","Chrome","135.0.0.0","OS X","10_15_7","https://hz8g1ckzuq.cognition.run/","en-US,en;q=0.9","ae8qska6c1uu8by","43","[""White""]","No","Female","2262868.5999999996","3051","","","{""product_choice"":""C""}","choice","wwb","catch","null","laptops","80","60","5","45","35","5","1","null","null","null","null","null","null","Processing speed","Memory (RAM)","",""
"","","","","","choice_trial_setup","html-keyboard-response","154","2191138","0.0-5.0-0.35","182","1","2025-04-14 14:36:28","bb671e3ae32f654b8954ea4c4635f915","","Mozilla/5.0 (Macintosh; Intel Mac OS X 10_15_7) AppleWebKit/537.36 (KHTML, like Gecko) Chrome/135.0.0.0 Safari/537.36","Macintosh","Chrome","135.0.0.0","OS X","10_15_7","https://hz8g1ckzuq.cognition.run/","en-US,en;q=0.9","ae8qska6c1uu8by","43","[""White""]","No","Female","2262868.5999999996","null","","<p></p>","null","choice","cdt","attraction_2","1","laptops","null","null","null","null","null","null","2","","","","","","","","","",""
