"success","timeout","failed_images","failed_audio","failed_video","screen_id","trial_type","trial_index","time_elapsed","internal_node_id","run_id","condition","recorded_at","source_code_version","ip","user_agent","device","browser","browser_version","platform","platform_version","referer","accept_language","ppt_id","age","race","ethnicity","gender","exp_duration","rt","view_history","stimulus","response","phase","order","effect","t_high","category","d1_best","d2_best","d1_worst1","d2_worst1","d1_worst2","d2_worst2","first_dim","d1_t","d1_c","d1_d","d2_t","d2_c","d2_d","d1_name","d2_name","strategy_response","question_order"
"true","false","[]","[]","[]","img preload","preload","0","250","0.0-0.0","183","1","2025-04-14 14:36:39","bb671e3ae32f654b8954ea4c4635f915","","Mozilla/5.0 (Windows NT 10.0; Win64; x64) AppleWebKit/537.36 (KHTML, like Gecko) Chrome/135.0.0.0 Safari/537.36","WebKit","Chrome","135.0.0.0","Windows","10.0","https://hz8g1ckzuq.cognition.run/","en-US,en;q=0.9,ko-KR;q=0.8,ko;q=0.7,es-US;q=0.6,es;q=0.5","gloxujcy2mbsemd","46","[""White""]","No","Female","3051076.1999999993","","","","","","","","","","","","","","","","","","","","","","","","","",""
"true","","","","","","fullscreen","1","70442","0.0-1.0","183","1","2025-04-14 14:36:39","bb671e3ae32f654b8954ea4c4635f915","","Mozilla/5.0 (Windows NT 10.0; Win64; x64) AppleWebKit/537.36 (KHTML, like Gecko) Chrome/135.0.0.0 Safari/537.36","WebKit","Chrome","135.0.0.0","Windows","10.0","https://hz8g1ckzuq.cognition.run/","en-US,en;q=0.9,ko-KR;q=0.8,ko;q=0.7,es-US;q=0.6,es;q=0.5","gloxujcy2mbsemd","46","[""White""]","No","Female","3051076.1999999993","69188","","","","","","","","","","","","","","","","","","","","","","","","",""
"","","","","","","instructions","2","332676","0.0-2.0","183","1","2025-04-14 14:36:39","bb671e3ae32f654b8954ea4c4635f915","","Mozilla/5.0 (Windows NT 10.0; Win64; x64) AppleWebKit/537.36 (KHTML, like Gecko) Chrome/135.0.0.0 Safari/537.36","WebKit","Chrome","135.0.0.0","Windows","10.0","https://hz8g1ckzuq.cognition.run/","en-US,en;q=0.9,ko-KR;q=0.8,ko;q=0.7,es-US;q=0.6,es;q=0.5","gloxujcy2mbsemd","46","[""White""]","No","Female","3051076.1999999993","262233","[{""page_index"":0,""viewing_time"":1358},{""page_index"":1,""viewing_time"":1928},{""page_index"":2,""viewing_time"":3096},{""page_index"":3,""viewing_time"":233203},{""page_index"":4,""viewing_time"":4032},{""page_index"":5,""viewing_time"":4159},{""page_index"":6,""viewing_time"":1968},{""page_index"":7,""viewing_time"":4818},{""page_index"":8,""viewing_time"":4374},{""page_index"":9,""viewing_time"":3296}]","","","","","","","","","","","","","","","","","","","","","","","",""
"","","","","","rating_trial_setup","html-keyboard-response","3","332979","0.0-3.0-0.0","183","1","2025-04-14 14:36:39","bb671e3ae32f654b8954ea4c4635f915","","Mozilla/5.0 (Windows NT 10.0; Win64; x64) AppleWebKit/537.36 (KHTML, like Gecko) Chrome/135.0.0.0 Safari/537.36","WebKit","Chrome","135.0.0.0","Windows","10.0","https://hz8g1ckzuq.cognition.run/","en-US,en;q=0.9,ko-KR;q=0.8,ko;q=0.7,es-US;q=0.6,es;q=0.5","gloxujcy2mbsemd","46","[""White""]","No","Female","3051076.1999999993","null","","<p></p>","null","rating","ctd","repulsion_2","1","microwave ovens","null","null","null","null","null","null","1","","","","","","","","","",""
"","","","","","rating_trial","survey-html-form","4","519970","0.0-3.0-1.0","183","1","2025-04-14 14:36:39","bb671e3ae32f654b8954ea4c4635f915","","Mozilla/5.0 (Windows NT 10.0; Win64; x64) AppleWebKit/537.36 (KHTML, like Gecko) Chrome/135.0.0.0 Safari/537.36","WebKit","Chrome","135.0.0.0","Windows","10.0","https://hz8g1ckzuq.cognition.run/","en-US,en;q=0.9,ko-KR;q=0.8,ko;q=0.7,es-US;q=0.6,es;q=0.5","gloxujcy2mbsemd","46","[""White""]","No","Female","3051076.1999999993","186987","","","{""price_1"":""50"",""price_2"":""100"",""price_3"":""150""}","rating","ctd","repulsion_2","1","microwave ovens","null","null","null","null","null","null","1","100","90","100","30","40","20","Warranty","Cooking power","",""
"","","","","","rating_trial_setup","html-keyboard-response","5","520272","0.0-3.0-0.1","183","1","2025-04-14 14:36:39","bb671e3ae32f654b8954ea4c4635f915","","Mozilla/5.0 (Windows NT 10.0; Win64; x64) AppleWebKit/537.36 (KHTML, like Gecko) Chrome/135.0.0.0 Safari/537.36","WebKit","Chrome","135.0.0.0","Windows","10.0","https://hz8g1ckzuq.cognition.run/","en-US,en;q=0.9,ko-KR;q=0.8,ko;q=0.7,es-US;q=0.6,es;q=0.5","gloxujcy2mbsemd","46","[""White""]","No","Female","3051076.1999999993","null","","<p></p>","null","rating","dct","repulsion_2","1","televisions","null","null","null","null","null","null","1","","","","","","","","","",""
"","","","","","rating_trial","survey-html-form","6","598903","0.0-3.0-1.1","183","1","2025-04-14 14:36:39","bb671e3ae32f654b8954ea4c4635f915","","Mozilla/5.0 (Windows NT 10.0; Win64; x64) AppleWebKit/537.36 (KHTML, like Gecko) Chrome/135.0.0.0 Safari/537.36","WebKit","Chrome","135.0.0.0","Windows","10.0","https://hz8g1ckzuq.cognition.run/","en-US,en;q=0.9,ko-KR;q=0.8,ko;q=0.7,es-US;q=0.6,es;q=0.5","gloxujcy2mbsemd","46","[""White""]","No","Female","3051076.1999999993","78630","","","{""price_1"":""90"",""price_2"":""150"",""price_3"":""100""}","rating","dct","repulsion_2","1","televisions","null","null","null","null","null","null","1","100","90","100","30","40","20","Screen size","Average lifespan","",""
"","","","","","rating_trial_setup","html-keyboard-response","7","599206","0.0-3.0-0.2","183","1","2025-04-14 14:36:39","bb671e3ae32f654b8954ea4c4635f915","","Mozilla/5.0 (Windows NT 10.0; Win64; x64) AppleWebKit/537.36 (KHTML, like Gecko) Chrome/135.0.0.0 Safari/537.36","WebKit","Chrome","135.0.0.0","Windows","10.0","https://hz8g1ckzuq.cognition.run/","en-US,en;q=0.9,ko-KR;q=0.8,ko;q=0.7,es-US;q=0.6,es;q=0.5","gloxujcy2mbsemd","46","[""White""]","No","Female","3051076.1999999993","null","","<p></p>","null","rating","dtc","repulsion_1","1","televisions","null","null","null","null","null","null","2","","","","","","","","","",""
"","","","","","rating_trial","survey-html-form","8","618799","0.0-3.0-1.2","183","1","2025-04-14 14:36:39","bb671e3ae32f654b8954ea4c4635f915","","Mozilla/5.0 (Windows NT 10.0; Win64; x64) AppleWebKit/537.36 (KHTML, like Gecko) Chrome/135.0.0.0 Safari/537.36","WebKit","Chrome","135.0.0.0","Windows","10.0","https://hz8g1ckzuq.cognition.run/","en-US,en;q=0.9,ko-KR;q=0.8,ko;q=0.7,es-US;q=0.6,es;q=0.5","gloxujcy2mbsemd","46","[""White""]","No","Female","3051076.1999999993","19591","","","{""price_1"":""78"",""price_2"":""100"",""price_3"":""150""}","rating","dtc","repulsion_1","1","televisions","null","null","null","null","null","null","2","100","90","100","30","40","25","Screen size","Average lifespan","",""
"","","","","","rating_trial_setup","html-keyboard-response","9","619102","0.0-3.0-0.3","183","1","2025-04-14 14:36:39","bb671e3ae32f654b8954ea4c4635f915","","Mozilla/5.0 (Windows NT 10.0; Win64; x64) AppleWebKit/537.36 (KHTML, like Gecko) Chrome/135.0.0.0 Safari/537.36","WebKit","Chrome","135.0.0.0","Windows","10.0","https://hz8g1ckzuq.cognition.run/","en-US,en;q=0.9,ko-KR;q=0.8,ko;q=0.7,es-US;q=0.6,es;q=0.5","gloxujcy2mbsemd","46","[""White""]","No","Female","3051076.1999999993","null","","<p></p>","null","rating","tdc","repulsion_2","2","washing machines","null","null","null","null","null","null","1","","","","","","","","","",""
"","","","","","rating_trial","survey-html-form","10","639087","0.0-3.0-1.3","183","1","2025-04-14 14:36:39","bb671e3ae32f654b8954ea4c4635f915","","Mozilla/5.0 (Windows NT 10.0; Win64; x64) AppleWebKit/537.36 (KHTML, like Gecko) Chrome/135.0.0.0 Safari/537.36","WebKit","Chrome","135.0.0.0","Windows","10.0","https://hz8g1ckzuq.cognition.run/","en-US,en;q=0.9,ko-KR;q=0.8,ko;q=0.7,es-US;q=0.6,es;q=0.5","gloxujcy2mbsemd","46","[""White""]","No","Female","3051076.1999999993","19983","","","{""price_1"":""800"",""price_2"":""700"",""price_3"":""600""}","rating","tdc","repulsion_2","2","washing machines","null","null","null","null","null","null","1","30","40","20","100","90","100","Average lifespan","Energy savings","",""
"","","","","","rating_trial_setup","html-keyboard-response","11","639389","0.0-3.0-0.4","183","1","2025-04-14 14:36:39","bb671e3ae32f654b8954ea4c4635f915","","Mozilla/5.0 (Windows NT 10.0; Win64; x64) AppleWebKit/537.36 (KHTML, like Gecko) Chrome/135.0.0.0 Safari/537.36","WebKit","Chrome","135.0.0.0","Windows","10.0","https://hz8g1ckzuq.cognition.run/","en-US,en;q=0.9,ko-KR;q=0.8,ko;q=0.7,es-US;q=0.6,es;q=0.5","gloxujcy2mbsemd","46","[""White""]","No","Female","3051076.1999999993","null","","<p></p>","null","rating","dtc","repulsion_1","1","microwave ovens","null","null","null","null","null","null","2","","","","","","","","","",""
"","","","","","rating_trial","survey-html-form","12","675422","0.0-3.0-1.4","183","1","2025-04-14 14:36:39","bb671e3ae32f654b8954ea4c4635f915","","Mozilla/5.0 (Windows NT 10.0; Win64; x64) AppleWebKit/537.36 (KHTML, like Gecko) Chrome/135.0.0.0 Safari/537.36","WebKit","Chrome","135.0.0.0","Windows","10.0","https://hz8g1ckzuq.cognition.run/","en-US,en;q=0.9,ko-KR;q=0.8,ko;q=0.7,es-US;q=0.6,es;q=0.5","gloxujcy2mbsemd","46","[""White""]","No","Female","3051076.1999999993","36031","","","{""price_1"":""60"",""price_2"":""90"",""price_3"":""150""}","rating","dtc","repulsion_1","1","microwave ovens","null","null","null","null","null","null","2","100","90","100","30","40","25","Warranty","Cooking power","",""
"","","","","","rating_trial_setup","html-keyboard-response","13","675724","0.0-3.0-0.5","183","1","2025-04-14 14:36:39","bb671e3ae32f654b8954ea4c4635f915","","Mozilla/5.0 (Windows NT 10.0; Win64; x64) AppleWebKit/537.36 (KHTML, like Gecko) Chrome/135.0.0.0 Safari/537.36","WebKit","Chrome","135.0.0.0","Windows","10.0","https://hz8g1ckzuq.cognition.run/","en-US,en;q=0.9,ko-KR;q=0.8,ko;q=0.7,es-US;q=0.6,es;q=0.5","gloxujcy2mbsemd","46","[""White""]","No","Female","3051076.1999999993","null","","<p></p>","null","rating","wwb","catch","null","microwave ovens","70","55","40","10","15","30","2","","","","","","","","","",""
"","","","","","rating_trial","survey-html-form","14","1368169","0.0-3.0-1.5","183","1","2025-04-14 14:36:39","bb671e3ae32f654b8954ea4c4635f915","","Mozilla/5.0 (Windows NT 10.0; Win64; x64) AppleWebKit/537.36 (KHTML, like Gecko) Chrome/135.0.0.0 Safari/537.36","WebKit","Chrome","135.0.0.0","Windows","10.0","https://hz8g1ckzuq.cognition.run/","en-US,en;q=0.9,ko-KR;q=0.8,ko;q=0.7,es-US;q=0.6,es;q=0.5","gloxujcy2mbsemd","46","[""White""]","No","Female","3051076.1999999993","692442","","","{""price_1"":""50"",""price_2"":""100"",""price_3"":""200""}","rating","wwb","catch","null","microwave ovens","70","55","40","10","15","30","2","null","null","null","null","null","null","Warranty","Cooking power","",""
"","","","","","rating_trial_setup","html-keyboard-response","15","1368472","0.0-3.0-0.6","183","1","2025-04-14 14:36:39","bb671e3ae32f654b8954ea4c4635f915","","Mozilla/5.0 (Windows NT 10.0; Win64; x64) AppleWebKit/537.36 (KHTML, like Gecko) Chrome/135.0.0.0 Safari/537.36","WebKit","Chrome","135.0.0.0","Windows","10.0","https://hz8g1ckzuq.cognition.run/","en-US,en;q=0.9,ko-KR;q=0.8,ko;q=0.7,es-US;q=0.6,es;q=0.5","gloxujcy2mbsemd","46","[""White""]","No","Female","3051076.1999999993","null","","<p></p>","null","rating","wwb","catch","null","washing machines","55","65","10","30","30","20","1","","","","","","","","","",""
"","","","","","rating_trial","survey-html-form","16","1420167","0.0-3.0-1.6","183","1","2025-04-14 14:36:39","bb671e3ae32f654b8954ea4c4635f915","","Mozilla/5.0 (Windows NT 10.0; Win64; x64) AppleWebKit/537.36 (KHTML, like Gecko) Chrome/135.0.0.0 Safari/537.36","WebKit","Chrome","135.0.0.0","Windows","10.0","https://hz8g1ckzuq.cognition.run/","en-US,en;q=0.9,ko-KR;q=0.8,ko;q=0.7,es-US;q=0.6,es;q=0.5","gloxujcy2mbsemd","46","[""White""]","No","Female","3051076.1999999993","51693","","","{""price_1"":""500"",""price_2"":""600"",""price_3"":""800""}","rating","wwb","catch","null","washing machines","55","65","10","30","30","20","1","null","null","null","null","null","null","Average lifespan","Energy savings","",""
"","","","","","rating_trial_setup","html-keyboard-response","17","1420471","0.0-3.0-0.7","183","1","2025-04-14 14:36:39","bb671e3ae32f654b8954ea4c4635f915","","Mozilla/5.0 (Windows NT 10.0; Win64; x64) AppleWebKit/537.36 (KHTML, like Gecko) Chrome/135.0.0.0 Safari/537.36","WebKit","Chrome","135.0.0.0","Windows","10.0","https://hz8g1ckzuq.cognition.run/","en-US,en;q=0.9,ko-KR;q=0.8,ko;q=0.7,es-US;q=0.6,es;q=0.5","gloxujcy2mbsemd","46","[""White""]","No","Female","3051076.1999999993","null","","<p></p>","null","rating","wbw","catch","null","televisions","95","75","5","50","30","45","1","","","","","","","","","",""
"","","","","","rating_trial","survey-html-form","18","1431399","0.0-3.0-1.7","183","1","2025-04-14 14:36:39","bb671e3ae32f654b8954ea4c4635f915","","Mozilla/5.0 (Windows NT 10.0; Win64; x64) AppleWebKit/537.36 (KHTML, like Gecko) Chrome/135.0.0.0 Safari/537.36","WebKit","Chrome","135.0.0.0","Windows","10.0","https://hz8g1ckzuq.cognition.run/","en-US,en;q=0.9,ko-KR;q=0.8,ko;q=0.7,es-US;q=0.6,es;q=0.5","gloxujcy2mbsemd","46","[""White""]","No","Female","3051076.1999999993","10926","","","{""price_1"":""150"",""price_2"":""300"",""price_3"":""200""}","rating","wbw","catch","null","televisions","95","75","5","50","30","45","1","null","null","null","null","null","null","Screen size","Average lifespan","",""
"","","","","","rating_trial_setup","html-keyboard-response","19","1431703","0.0-3.0-0.8","183","1","2025-04-14 14:36:39","bb671e3ae32f654b8954ea4c4635f915","","Mozilla/5.0 (Windows NT 10.0; Win64; x64) AppleWebKit/537.36 (KHTML, like Gecko) Chrome/135.0.0.0 Safari/537.36","WebKit","Chrome","135.0.0.0","Windows","10.0","https://hz8g1ckzuq.cognition.run/","en-US,en;q=0.9,ko-KR;q=0.8,ko;q=0.7,es-US;q=0.6,es;q=0.5","gloxujcy2mbsemd","46","[""White""]","No","Female","3051076.1999999993","null","","<p></p>","null","rating","cdt","attraction_2","1","televisions","null","null","null","null","null","null","1","","","","","","","","","",""
"","","","","","rating_trial","survey-html-form","20","2269424","0.0-3.0-1.8","183","1","2025-04-14 14:36:39","bb671e3ae32f654b8954ea4c4635f915","","Mozilla/5.0 (Windows NT 10.0; Win64; x64) AppleWebKit/537.36 (KHTML, like Gecko) Chrome/135.0.0.0 Safari/537.36","WebKit","Chrome","135.0.0.0","Windows","10.0","https://hz8g1ckzuq.cognition.run/","en-US,en;q=0.9,ko-KR;q=0.8,ko;q=0.7,es-US;q=0.6,es;q=0.5","gloxujcy2mbsemd","46","[""White""]","No","Female","3051076.1999999993","837717","","","{""price_1"":""200"",""price_2"":""175"",""price_3"":""125""}","rating","cdt","attraction_2","1","televisions","null","null","null","null","null","null","1","60","50","60","50","60","40","Screen size","Average lifespan","",""
"","","","","","rating_trial_setup","html-keyboard-response","21","2269727","0.0-3.0-0.9","183","1","2025-04-14 14:36:39","bb671e3ae32f654b8954ea4c4635f915","","Mozilla/5.0 (Windows NT 10.0; Win64; x64) AppleWebKit/537.36 (KHTML, like Gecko) Chrome/135.0.0.0 Safari/537.36","WebKit","Chrome","135.0.0.0","Windows","10.0","https://hz8g1ckzuq.cognition.run/","en-US,en;q=0.9,ko-KR;q=0.8,ko;q=0.7,es-US;q=0.6,es;q=0.5","gloxujcy2mbsemd","46","[""White""]","No","Female","3051076.1999999993","null","","<p></p>","null","rating","wbw","catch","null","laptops","95","80","20","45","5","40","1","","","","","","","","","",""
"","","","","","rating_trial","survey-html-form","22","2285967","0.0-3.0-1.9","183","1","2025-04-14 14:36:39","bb671e3ae32f654b8954ea4c4635f915","","Mozilla/5.0 (Windows NT 10.0; Win64; x64) AppleWebKit/537.36 (KHTML, like Gecko) Chrome/135.0.0.0 Safari/537.36","WebKit","Chrome","135.0.0.0","Windows","10.0","https://hz8g1ckzuq.cognition.run/","en-US,en;q=0.9,ko-KR;q=0.8,ko;q=0.7,es-US;q=0.6,es;q=0.5","gloxujcy2mbsemd","46","[""White""]","No","Female","3051076.1999999993","16238","","","{""price_1"":""600"",""price_2"":""700"",""price_3"":""550""}","rating","wbw","catch","null","laptops","95","80","20","45","5","40","1","null","null","null","null","null","null","Processing speed","Memory (RAM)","",""
"","","","","","rating_trial_setup","html-keyboard-response","23","2286270","0.0-3.0-0.10","183","1","2025-04-14 14:36:39","bb671e3ae32f654b8954ea4c4635f915","","Mozilla/5.0 (Windows NT 10.0; Win64; x64) AppleWebKit/537.36 (KHTML, like Gecko) Chrome/135.0.0.0 Safari/537.36","WebKit","Chrome","135.0.0.0","Windows","10.0","https://hz8g1ckzuq.cognition.run/","en-US,en;q=0.9,ko-KR;q=0.8,ko;q=0.7,es-US;q=0.6,es;q=0.5","gloxujcy2mbsemd","46","[""White""]","No","Female","3051076.1999999993","null","","<p></p>","null","rating","ctd","repulsion_1","2","televisions","null","null","null","null","null","null","1","","","","","","","","","",""
"","","","","","rating_trial","survey-html-form","24","2308527","0.0-3.0-1.10","183","1","2025-04-14 14:36:39","bb671e3ae32f654b8954ea4c4635f915","","Mozilla/5.0 (Windows NT 10.0; Win64; x64) AppleWebKit/537.36 (KHTML, like Gecko) Chrome/135.0.0.0 Safari/537.36","WebKit","Chrome","135.0.0.0","Windows","10.0","https://hz8g1ckzuq.cognition.run/","en-US,en;q=0.9,ko-KR;q=0.8,ko;q=0.7,es-US;q=0.6,es;q=0.5","gloxujcy2mbsemd","46","[""White""]","No","Female","3051076.1999999993","22255","","","{""price_1"":""375"",""price_2"":""450"",""price_3"":""400""}","rating","ctd","repulsion_1","2","televisions","null","null","null","null","null","null","1","30","40","25","100","90","100","Screen size","Average lifespan","",""
"","","","","","rating_trial_setup","html-keyboard-response","25","2308830","0.0-3.0-0.11","183","1","2025-04-14 14:36:39","bb671e3ae32f654b8954ea4c4635f915","","Mozilla/5.0 (Windows NT 10.0; Win64; x64) AppleWebKit/537.36 (KHTML, like Gecko) Chrome/135.0.0.0 Safari/537.36","WebKit","Chrome","135.0.0.0","Windows","10.0","https://hz8g1ckzuq.cognition.run/","en-US,en;q=0.9,ko-KR;q=0.8,ko;q=0.7,es-US;q=0.6,es;q=0.5","gloxujcy2mbsemd","46","[""White""]","No","Female","3051076.1999999993","null","","<p></p>","null","rating","dtc","attraction_1","2","televisions","null","null","null","null","null","null","1","","","","","","","","","",""
"","","","","","rating_trial","survey-html-form","26","2321831","0.0-3.0-1.11","183","1","2025-04-14 14:36:39","bb671e3ae32f654b8954ea4c4635f915","","Mozilla/5.0 (Windows NT 10.0; Win64; x64) AppleWebKit/537.36 (KHTML, like Gecko) Chrome/135.0.0.0 Safari/537.36","WebKit","Chrome","135.0.0.0","Windows","10.0","https://hz8g1ckzuq.cognition.run/","en-US,en;q=0.9,ko-KR;q=0.8,ko;q=0.7,es-US;q=0.6,es;q=0.5","gloxujcy2mbsemd","46","[""White""]","No","Female","3051076.1999999993","12999","","","{""price_1"":""400"",""price_2"":""450"",""price_3"":""350""}","rating","dtc","attraction_1","2","televisions","null","null","null","null","null","null","1","50","60","45","60","50","60","Screen size","Average lifespan","",""
"","","","","","rating_trial_setup","html-keyboard-response","27","2322134","0.0-3.0-0.12","183","1","2025-04-14 14:36:39","bb671e3ae32f654b8954ea4c4635f915","","Mozilla/5.0 (Windows NT 10.0; Win64; x64) AppleWebKit/537.36 (KHTML, like Gecko) Chrome/135.0.0.0 Safari/537.36","WebKit","Chrome","135.0.0.0","Windows","10.0","https://hz8g1ckzuq.cognition.run/","en-US,en;q=0.9,ko-KR;q=0.8,ko;q=0.7,es-US;q=0.6,es;q=0.5","gloxujcy2mbsemd","46","[""White""]","No","Female","3051076.1999999993","null","","<p></p>","null","rating","tcd","attraction_2","2","laptops","null","null","null","null","null","null","2","","","","","","","","","",""
"","","","","","rating_trial","survey-html-form","28","2338094","0.0-3.0-1.12","183","1","2025-04-14 14:36:39","bb671e3ae32f654b8954ea4c4635f915","","Mozilla/5.0 (Windows NT 10.0; Win64; x64) AppleWebKit/537.36 (KHTML, like Gecko) Chrome/135.0.0.0 Safari/537.36","WebKit","Chrome","135.0.0.0","Windows","10.0","https://hz8g1ckzuq.cognition.run/","en-US,en;q=0.9,ko-KR;q=0.8,ko;q=0.7,es-US;q=0.6,es;q=0.5","gloxujcy2mbsemd","46","[""White""]","No","Female","3051076.1999999993","15958","","","{""price_1"":""600"",""price_2"":""800"",""price_3"":""550""}","rating","tcd","attraction_2","2","laptops","null","null","null","null","null","null","2","50","60","40","60","50","60","Processing speed","Memory (RAM)","",""
"","","","","","rating_trial_setup","html-keyboard-response","29","2338399","0.0-3.0-0.13","183","1","2025-04-14 14:36:39","bb671e3ae32f654b8954ea4c4635f915","","Mozilla/5.0 (Windows NT 10.0; Win64; x64) AppleWebKit/537.36 (KHTML, like Gecko) Chrome/135.0.0.0 Safari/537.36","WebKit","Chrome","135.0.0.0","Windows","10.0","https://hz8g1ckzuq.cognition.run/","en-US,en;q=0.9,ko-KR;q=0.8,ko;q=0.7,es-US;q=0.6,es;q=0.5","gloxujcy2mbsemd","46","[""White""]","No","Female","3051076.1999999993","null","","<p></p>","null","rating","tcd","attraction_2","1","washing machines","null","null","null","null","null","null","1","","","","","","","","","",""
"","","","","","rating_trial","survey-html-form","30","2389013","0.0-3.0-1.13","183","1","2025-04-14 14:36:39","bb671e3ae32f654b8954ea4c4635f915","","Mozilla/5.0 (Windows NT 10.0; Win64; x64) AppleWebKit/537.36 (KHTML, like Gecko) Chrome/135.0.0.0 Safari/537.36","WebKit","Chrome","135.0.0.0","Windows","10.0","https://hz8g1ckzuq.cognition.run/","en-US,en;q=0.9,ko-KR;q=0.8,ko;q=0.7,es-US;q=0.6,es;q=0.5","gloxujcy2mbsemd","46","[""White""]","No","Female","3051076.1999999993","50612","","","{""price_1"":""900"",""price_2"":""1000"",""price_3"":""850""}","rating","tcd","attraction_2","1","washing machines","null","null","null","null","null","null","1","60","50","60","50","60","40","Average lifespan","Energy savings","",""
"","","","","","rating_trial_setup","html-keyboard-response","31","2389316","0.0-3.0-0.14","183","1","2025-04-14 14:36:39","bb671e3ae32f654b8954ea4c4635f915","","Mozilla/5.0 (Windows NT 10.0; Win64; x64) AppleWebKit/537.36 (KHTML, like Gecko) Chrome/135.0.0.0 Safari/537.36","WebKit","Chrome","135.0.0.0","Windows","10.0","https://hz8g1ckzuq.cognition.run/","en-US,en;q=0.9,ko-KR;q=0.8,ko;q=0.7,es-US;q=0.6,es;q=0.5","gloxujcy2mbsemd","46","[""White""]","No","Female","3051076.1999999993","null","","<p></p>","null","rating","dtc","repulsion_2","2","televisions","null","null","null","null","null","null","1","","","","","","","","","",""
"","","","","","rating_trial","survey-html-form","32","2427805","0.0-3.0-1.14","183","1","2025-04-14 14:36:39","bb671e3ae32f654b8954ea4c4635f915","","Mozilla/5.0 (Windows NT 10.0; Win64; x64) AppleWebKit/537.36 (KHTML, like Gecko) Chrome/135.0.0.0 Safari/537.36","WebKit","Chrome","135.0.0.0","Windows","10.0","https://hz8g1ckzuq.cognition.run/","en-US,en;q=0.9,ko-KR;q=0.8,ko;q=0.7,es-US;q=0.6,es;q=0.5","gloxujcy2mbsemd","46","[""White""]","No","Female","3051076.1999999993","38485","","","{""price_1"":""400"",""price_2"":""350"",""price_3"":""450""}","rating","dtc","repulsion_2","2","televisions","null","null","null","null","null","null","1","30","40","20","100","90","100","Screen size","Average lifespan","",""
"","","","","","rating_trial_setup","html-keyboard-response","33","2428110","0.0-3.0-0.15","183","1","2025-04-14 14:36:39","bb671e3ae32f654b8954ea4c4635f915","","Mozilla/5.0 (Windows NT 10.0; Win64; x64) AppleWebKit/537.36 (KHTML, like Gecko) Chrome/135.0.0.0 Safari/537.36","WebKit","Chrome","135.0.0.0","Windows","10.0","https://hz8g1ckzuq.cognition.run/","en-US,en;q=0.9,ko-KR;q=0.8,ko;q=0.7,es-US;q=0.6,es;q=0.5","gloxujcy2mbsemd","46","[""White""]","No","Female","3051076.1999999993","null","","<p></p>","null","rating","tcd","repulsion_1","2","laptops","null","null","null","null","null","null","2","","","","","","","","","",""
"","","","","","rating_trial","survey-html-form","34","2444548","0.0-3.0-1.15","183","1","2025-04-14 14:36:39","bb671e3ae32f654b8954ea4c4635f915","","Mozilla/5.0 (Windows NT 10.0; Win64; x64) AppleWebKit/537.36 (KHTML, like Gecko) Chrome/135.0.0.0 Safari/537.36","WebKit","Chrome","135.0.0.0","Windows","10.0","https://hz8g1ckzuq.cognition.run/","en-US,en;q=0.9,ko-KR;q=0.8,ko;q=0.7,es-US;q=0.6,es;q=0.5","gloxujcy2mbsemd","46","[""White""]","No","Female","3051076.1999999993","16435","","","{""price_1"":""500"",""price_2"":""600"",""price_3"":""450""}","rating","tcd","repulsion_1","2","laptops","null","null","null","null","null","null","2","30","40","25","100","90","100","Processing speed","Memory (RAM)","",""
"","","","","","rating_trial_setup","html-keyboard-response","35","2444851","0.0-3.0-0.16","183","1","2025-04-14 14:36:39","bb671e3ae32f654b8954ea4c4635f915","","Mozilla/5.0 (Windows NT 10.0; Win64; x64) AppleWebKit/537.36 (KHTML, like Gecko) Chrome/135.0.0.0 Safari/537.36","WebKit","Chrome","135.0.0.0","Windows","10.0","https://hz8g1ckzuq.cognition.run/","en-US,en;q=0.9,ko-KR;q=0.8,ko;q=0.7,es-US;q=0.6,es;q=0.5","gloxujcy2mbsemd","46","[""White""]","No","Female","3051076.1999999993","null","","<p></p>","null","rating","tcd","repulsion_2","1","washing machines","null","null","null","null","null","null","1","","","","","","","","","",""
"","","","","","rating_trial","survey-html-form","36","2462992","0.0-3.0-1.16","183","1","2025-04-14 14:36:39","bb671e3ae32f654b8954ea4c4635f915","","Mozilla/5.0 (Windows NT 10.0; Win64; x64) AppleWebKit/537.36 (KHTML, like Gecko) Chrome/135.0.0.0 Safari/537.36","WebKit","Chrome","135.0.0.0","Windows","10.0","https://hz8g1ckzuq.cognition.run/","en-US,en;q=0.9,ko-KR;q=0.8,ko;q=0.7,es-US;q=0.6,es;q=0.5","gloxujcy2mbsemd","46","[""White""]","No","Female","3051076.1999999993","18138","","","{""price_1"":""100"",""price_2"":""1500"",""price_3"":""900""}","rating","tcd","repulsion_2","1","washing machines","null","null","null","null","null","null","1","100","90","100","30","40","20","Average lifespan","Energy savings","",""
"","","","","","rating_trial_setup","html-keyboard-response","37","2463295","0.0-3.0-0.17","183","1","2025-04-14 14:36:39","bb671e3ae32f654b8954ea4c4635f915","","Mozilla/5.0 (Windows NT 10.0; Win64; x64) AppleWebKit/537.36 (KHTML, like Gecko) Chrome/135.0.0.0 Safari/537.36","WebKit","Chrome","135.0.0.0","Windows","10.0","https://hz8g1ckzuq.cognition.run/","en-US,en;q=0.9,ko-KR;q=0.8,ko;q=0.7,es-US;q=0.6,es;q=0.5","gloxujcy2mbsemd","46","[""White""]","No","Female","3051076.1999999993","null","","<p></p>","null","rating","tdc","attraction_1","2","microwave ovens","null","null","null","null","null","null","1","","","","","","","","","",""
"","","","","","rating_trial","survey-html-form","38","2476836","0.0-3.0-1.17","183","1","2025-04-14 14:36:39","bb671e3ae32f654b8954ea4c4635f915","","Mozilla/5.0 (Windows NT 10.0; Win64; x64) AppleWebKit/537.36 (KHTML, like Gecko) Chrome/135.0.0.0 Safari/537.36","WebKit","Chrome","135.0.0.0","Windows","10.0","https://hz8g1ckzuq.cognition.run/","en-US,en;q=0.9,ko-KR;q=0.8,ko;q=0.7,es-US;q=0.6,es;q=0.5","gloxujcy2mbsemd","46","[""White""]","No","Female","3051076.1999999993","13537","","","{""price_1"":""90"",""price_2"":""75"",""price_3"":""100""}","rating","tdc","attraction_1","2","microwave ovens","null","null","null","null","null","null","1","50","60","45","60","50","60","Warranty","Cooking power","",""
"","","","","","rating_trial_setup","html-keyboard-response","39","2477139","0.0-3.0-0.18","183","1","2025-04-14 14:36:39","bb671e3ae32f654b8954ea4c4635f915","","Mozilla/5.0 (Windows NT 10.0; Win64; x64) AppleWebKit/537.36 (KHTML, like Gecko) Chrome/135.0.0.0 Safari/537.36","WebKit","Chrome","135.0.0.0","Windows","10.0","https://hz8g1ckzuq.cognition.run/","en-US,en;q=0.9,ko-KR;q=0.8,ko;q=0.7,es-US;q=0.6,es;q=0.5","gloxujcy2mbsemd","46","[""White""]","No","Female","3051076.1999999993","null","","<p></p>","null","rating","ctd","attraction_1","1","televisions","null","null","null","null","null","null","2","","","","","","","","","",""
"","","","","","rating_trial","survey-html-form","40","2508443","0.0-3.0-1.18","183","1","2025-04-14 14:36:39","bb671e3ae32f654b8954ea4c4635f915","","Mozilla/5.0 (Windows NT 10.0; Win64; x64) AppleWebKit/537.36 (KHTML, like Gecko) Chrome/135.0.0.0 Safari/537.36","WebKit","Chrome","135.0.0.0","Windows","10.0","https://hz8g1ckzuq.cognition.run/","en-US,en;q=0.9,ko-KR;q=0.8,ko;q=0.7,es-US;q=0.6,es;q=0.5","gloxujcy2mbsemd","46","[""White""]","No","Female","3051076.1999999993","31300","","","{""price_1"":""350"",""price_2"":""500"",""price_3"":""450""}","rating","ctd","attraction_1","1","televisions","null","null","null","null","null","null","2","60","50","60","50","60","45","Screen size","Average lifespan","",""
"","","","","","rating_trial_setup","html-keyboard-response","41","2508747","0.0-3.0-0.19","183","1","2025-04-14 14:36:39","bb671e3ae32f654b8954ea4c4635f915","","Mozilla/5.0 (Windows NT 10.0; Win64; x64) AppleWebKit/537.36 (KHTML, like Gecko) Chrome/135.0.0.0 Safari/537.36","WebKit","Chrome","135.0.0.0","Windows","10.0","https://hz8g1ckzuq.cognition.run/","en-US,en;q=0.9,ko-KR;q=0.8,ko;q=0.7,es-US;q=0.6,es;q=0.5","gloxujcy2mbsemd","46","[""White""]","No","Female","3051076.1999999993","null","","<p></p>","null","rating","wbw","catch","null","televisions","85","60","20","5","20","20","2","","","","","","","","","",""
"","","","","","rating_trial","survey-html-form","42","2518275","0.0-3.0-1.19","183","1","2025-04-14 14:36:39","bb671e3ae32f654b8954ea4c4635f915","","Mozilla/5.0 (Windows NT 10.0; Win64; x64) AppleWebKit/537.36 (KHTML, like Gecko) Chrome/135.0.0.0 Safari/537.36","WebKit","Chrome","135.0.0.0","Windows","10.0","https://hz8g1ckzuq.cognition.run/","en-US,en;q=0.9,ko-KR;q=0.8,ko;q=0.7,es-US;q=0.6,es;q=0.5","gloxujcy2mbsemd","46","[""White""]","No","Female","3051076.1999999993","9525","","","{""price_1"":""350"",""price_2"":""500"",""price_3"":""450""}","rating","wbw","catch","null","televisions","85","60","20","5","20","20","2","null","null","null","null","null","null","Screen size","Average lifespan","",""
"","","","","","rating_trial_setup","html-keyboard-response","43","2518578","0.0-3.0-0.20","183","1","2025-04-14 14:36:39","bb671e3ae32f654b8954ea4c4635f915","","Mozilla/5.0 (Windows NT 10.0; Win64; x64) AppleWebKit/537.36 (KHTML, like Gecko) Chrome/135.0.0.0 Safari/537.36","WebKit","Chrome","135.0.0.0","Windows","10.0","https://hz8g1ckzuq.cognition.run/","en-US,en;q=0.9,ko-KR;q=0.8,ko;q=0.7,es-US;q=0.6,es;q=0.5","gloxujcy2mbsemd","46","[""White""]","No","Female","3051076.1999999993","null","","<p></p>","null","rating","ctd","attraction_2","1","microwave ovens","null","null","null","null","null","null","2","","","","","","","","","",""
"","","","","","rating_trial","survey-html-form","44","2526946","0.0-3.0-1.20","183","1","2025-04-14 14:36:39","bb671e3ae32f654b8954ea4c4635f915","","Mozilla/5.0 (Windows NT 10.0; Win64; x64) AppleWebKit/537.36 (KHTML, like Gecko) Chrome/135.0.0.0 Safari/537.36","WebKit","Chrome","135.0.0.0","Windows","10.0","https://hz8g1ckzuq.cognition.run/","en-US,en;q=0.9,ko-KR;q=0.8,ko;q=0.7,es-US;q=0.6,es;q=0.5","gloxujcy2mbsemd","46","[""White""]","No","Female","3051076.1999999993","8365","","","{""price_1"":""90"",""price_2"":""150"",""price_3"":""100""}","rating","ctd","attraction_2","1","microwave ovens","null","null","null","null","null","null","2","60","50","60","50","60","40","Warranty","Cooking power","",""
"","","","","","rating_trial_setup","html-keyboard-response","45","2527249","0.0-3.0-0.21","183","1","2025-04-14 14:36:39","bb671e3ae32f654b8954ea4c4635f915","","Mozilla/5.0 (Windows NT 10.0; Win64; x64) AppleWebKit/537.36 (KHTML, like Gecko) Chrome/135.0.0.0 Safari/537.36","WebKit","Chrome","135.0.0.0","Windows","10.0","https://hz8g1ckzuq.cognition.run/","en-US,en;q=0.9,ko-KR;q=0.8,ko;q=0.7,es-US;q=0.6,es;q=0.5","gloxujcy2mbsemd","46","[""White""]","No","Female","3051076.1999999993","null","","<p></p>","null","rating","dct","repulsion_2","1","laptops","null","null","null","null","null","null","2","","","","","","","","","",""
"","","","","","rating_trial","survey-html-form","46","2534978","0.0-3.0-1.21","183","1","2025-04-14 14:36:39","bb671e3ae32f654b8954ea4c4635f915","","Mozilla/5.0 (Windows NT 10.0; Win64; x64) AppleWebKit/537.36 (KHTML, like Gecko) Chrome/135.0.0.0 Safari/537.36","WebKit","Chrome","135.0.0.0","Windows","10.0","https://hz8g1ckzuq.cognition.run/","en-US,en;q=0.9,ko-KR;q=0.8,ko;q=0.7,es-US;q=0.6,es;q=0.5","gloxujcy2mbsemd","46","[""White""]","No","Female","3051076.1999999993","7727","","","{""price_1"":""600"",""price_2"":""550"",""price_3"":""700""}","rating","dct","repulsion_2","1","laptops","null","null","null","null","null","null","2","100","90","100","30","40","20","Processing speed","Memory (RAM)","",""
"","","","","","rating_trial_setup","html-keyboard-response","47","2535281","0.0-3.0-0.22","183","1","2025-04-14 14:36:39","bb671e3ae32f654b8954ea4c4635f915","","Mozilla/5.0 (Windows NT 10.0; Win64; x64) AppleWebKit/537.36 (KHTML, like Gecko) Chrome/135.0.0.0 Safari/537.36","WebKit","Chrome","135.0.0.0","Windows","10.0","https://hz8g1ckzuq.cognition.run/","en-US,en;q=0.9,ko-KR;q=0.8,ko;q=0.7,es-US;q=0.6,es;q=0.5","gloxujcy2mbsemd","46","[""White""]","No","Female","3051076.1999999993","null","","<p></p>","null","rating","dct","repulsion_2","2","laptops","null","null","null","null","null","null","1","","","","","","","","","",""
"","","","","","rating_trial","survey-html-form","48","2543066","0.0-3.0-1.22","183","1","2025-04-14 14:36:39","bb671e3ae32f654b8954ea4c4635f915","","Mozilla/5.0 (Windows NT 10.0; Win64; x64) AppleWebKit/537.36 (KHTML, like Gecko) Chrome/135.0.0.0 Safari/537.36","WebKit","Chrome","135.0.0.0","Windows","10.0","https://hz8g1ckzuq.cognition.run/","en-US,en;q=0.9,ko-KR;q=0.8,ko;q=0.7,es-US;q=0.6,es;q=0.5","gloxujcy2mbsemd","46","[""White""]","No","Female","3051076.1999999993","7780","","","{""price_1"":""800"",""price_2"":""750"",""price_3"":""900""}","rating","dct","repulsion_2","2","laptops","null","null","null","null","null","null","1","30","40","20","100","90","100","Processing speed","Memory (RAM)","",""
"","","","","","rating_trial_setup","html-keyboard-response","49","2543371","0.0-3.0-0.23","183","1","2025-04-14 14:36:39","bb671e3ae32f654b8954ea4c4635f915","","Mozilla/5.0 (Windows NT 10.0; Win64; x64) AppleWebKit/537.36 (KHTML, like Gecko) Chrome/135.0.0.0 Safari/537.36","WebKit","Chrome","135.0.0.0","Windows","10.0","https://hz8g1ckzuq.cognition.run/","en-US,en;q=0.9,ko-KR;q=0.8,ko;q=0.7,es-US;q=0.6,es;q=0.5","gloxujcy2mbsemd","46","[""White""]","No","Female","3051076.1999999993","null","","<p></p>","null","rating","ctd","attraction_2","1","laptops","null","null","null","null","null","null","2","","","","","","","","","",""
"","","","","","rating_trial","survey-html-form","50","2554258","0.0-3.0-1.23","183","1","2025-04-14 14:36:39","bb671e3ae32f654b8954ea4c4635f915","","Mozilla/5.0 (Windows NT 10.0; Win64; x64) AppleWebKit/537.36 (KHTML, like Gecko) Chrome/135.0.0.0 Safari/537.36","WebKit","Chrome","135.0.0.0","Windows","10.0","https://hz8g1ckzuq.cognition.run/","en-US,en;q=0.9,ko-KR;q=0.8,ko;q=0.7,es-US;q=0.6,es;q=0.5","gloxujcy2mbsemd","46","[""White""]","No","Female","3051076.1999999993","10885","","","{""price_1"":""850"",""price_2"":""1000"",""price_3"":""900""}","rating","ctd","attraction_2","1","laptops","null","null","null","null","null","null","2","60","50","60","50","60","40","Processing speed","Memory (RAM)","",""
"","","","","","rating_trial_setup","html-keyboard-response","51","2554561","0.0-3.0-0.24","183","1","2025-04-14 14:36:39","bb671e3ae32f654b8954ea4c4635f915","","Mozilla/5.0 (Windows NT 10.0; Win64; x64) AppleWebKit/537.36 (KHTML, like Gecko) Chrome/135.0.0.0 Safari/537.36","WebKit","Chrome","135.0.0.0","Windows","10.0","https://hz8g1ckzuq.cognition.run/","en-US,en;q=0.9,ko-KR;q=0.8,ko;q=0.7,es-US;q=0.6,es;q=0.5","gloxujcy2mbsemd","46","[""White""]","No","Female","3051076.1999999993","null","","<p></p>","null","rating","dct","repulsion_1","1","washing machines","null","null","null","null","null","null","2","","","","","","","","","",""
"","","","","","rating_trial","survey-html-form","52","2567171","0.0-3.0-1.24","183","1","2025-04-14 14:36:39","bb671e3ae32f654b8954ea4c4635f915","","Mozilla/5.0 (Windows NT 10.0; Win64; x64) AppleWebKit/537.36 (KHTML, like Gecko) Chrome/135.0.0.0 Safari/537.36","WebKit","Chrome","135.0.0.0","Windows","10.0","https://hz8g1ckzuq.cognition.run/","en-US,en;q=0.9,ko-KR;q=0.8,ko;q=0.7,es-US;q=0.6,es;q=0.5","gloxujcy2mbsemd","46","[""White""]","No","Female","3051076.1999999993","12605","","","{""price_1"":""2000"",""price_2"":""950"",""price_3"":""1000""}","rating","dct","repulsion_1","1","washing machines","null","null","null","null","null","null","2","100","90","100","30","40","25","Average lifespan","Energy savings","",""
"","","","","","rating_trial_setup","html-keyboard-response","53","2567477","0.0-3.0-0.25","183","1","2025-04-14 14:36:39","bb671e3ae32f654b8954ea4c4635f915","","Mozilla/5.0 (Windows NT 10.0; Win64; x64) AppleWebKit/537.36 (KHTML, like Gecko) Chrome/135.0.0.0 Safari/537.36","WebKit","Chrome","135.0.0.0","Windows","10.0","https://hz8g1ckzuq.cognition.run/","en-US,en;q=0.9,ko-KR;q=0.8,ko;q=0.7,es-US;q=0.6,es;q=0.5","gloxujcy2mbsemd","46","[""White""]","No","Female","3051076.1999999993","null","","<p></p>","null","rating","dct","attraction_1","1","washing machines","null","null","null","null","null","null","1","","","","","","","","","",""
"","","","","","rating_trial","survey-html-form","54","2580809","0.0-3.0-1.25","183","1","2025-04-14 14:36:39","bb671e3ae32f654b8954ea4c4635f915","","Mozilla/5.0 (Windows NT 10.0; Win64; x64) AppleWebKit/537.36 (KHTML, like Gecko) Chrome/135.0.0.0 Safari/537.36","WebKit","Chrome","135.0.0.0","Windows","10.0","https://hz8g1ckzuq.cognition.run/","en-US,en;q=0.9,ko-KR;q=0.8,ko;q=0.7,es-US;q=0.6,es;q=0.5","gloxujcy2mbsemd","46","[""White""]","No","Female","3051076.1999999993","13325","","","{""price_1"":""800"",""price_2"":""1000"",""price_3"":""950""}","rating","dct","attraction_1","1","washing machines","null","null","null","null","null","null","1","60","50","60","50","60","45","Average lifespan","Energy savings","",""
"","","","","","rating_trial_setup","html-keyboard-response","55","2581121","0.0-3.0-0.26","183","1","2025-04-14 14:36:39","bb671e3ae32f654b8954ea4c4635f915","","Mozilla/5.0 (Windows NT 10.0; Win64; x64) AppleWebKit/537.36 (KHTML, like Gecko) Chrome/135.0.0.0 Safari/537.36","WebKit","Chrome","135.0.0.0","Windows","10.0","https://hz8g1ckzuq.cognition.run/","en-US,en;q=0.9,ko-KR;q=0.8,ko;q=0.7,es-US;q=0.6,es;q=0.5","gloxujcy2mbsemd","46","[""White""]","No","Female","3051076.1999999993","null","","<p></p>","null","rating","dct","repulsion_1","1","laptops","null","null","null","null","null","null","2","","","","","","","","","",""
"","","","","","rating_trial","survey-html-form","56","2591859","0.0-3.0-1.26","183","1","2025-04-14 14:36:39","bb671e3ae32f654b8954ea4c4635f915","","Mozilla/5.0 (Windows NT 10.0; Win64; x64) AppleWebKit/537.36 (KHTML, like Gecko) Chrome/135.0.0.0 Safari/537.36","WebKit","Chrome","135.0.0.0","Windows","10.0","https://hz8g1ckzuq.cognition.run/","en-US,en;q=0.9,ko-KR;q=0.8,ko;q=0.7,es-US;q=0.6,es;q=0.5","gloxujcy2mbsemd","46","[""White""]","No","Female","3051076.1999999993","10732","","","{""price_1"":""800"",""price_2"":""650"",""price_3"":""700""}","rating","dct","repulsion_1","1","laptops","null","null","null","null","null","null","2","100","90","100","30","40","25","Processing speed","Memory (RAM)","",""
"","","","","","rating_trial_setup","html-keyboard-response","57","2592177","0.0-3.0-0.27","183","1","2025-04-14 14:36:39","bb671e3ae32f654b8954ea4c4635f915","","Mozilla/5.0 (Windows NT 10.0; Win64; x64) AppleWebKit/537.36 (KHTML, like Gecko) Chrome/135.0.0.0 Safari/537.36","WebKit","Chrome","135.0.0.0","Windows","10.0","https://hz8g1ckzuq.cognition.run/","en-US,en;q=0.9,ko-KR;q=0.8,ko;q=0.7,es-US;q=0.6,es;q=0.5","gloxujcy2mbsemd","46","[""White""]","No","Female","3051076.1999999993","null","","<p></p>","null","rating","dtc","attraction_2","2","washing machines","null","null","null","null","null","null","1","","","","","","","","","",""
"","","","","","rating_trial","survey-html-form","58","2707919","0.0-3.0-1.27","183","1","2025-04-14 14:36:39","bb671e3ae32f654b8954ea4c4635f915","","Mozilla/5.0 (Windows NT 10.0; Win64; x64) AppleWebKit/537.36 (KHTML, like Gecko) Chrome/135.0.0.0 Safari/537.36","WebKit","Chrome","135.0.0.0","Windows","10.0","https://hz8g1ckzuq.cognition.run/","en-US,en;q=0.9,ko-KR;q=0.8,ko;q=0.7,es-US;q=0.6,es;q=0.5","gloxujcy2mbsemd","46","[""White""]","No","Female","3051076.1999999993","115738","","","{""price_1"":""900"",""price_2"":""1000"",""price_3"":""1500""}","rating","dtc","attraction_2","2","washing machines","null","null","null","null","null","null","1","50","60","40","60","50","60","Average lifespan","Energy savings","",""
"","","","","","rating_trial_setup","html-keyboard-response","59","2708224","0.0-3.0-0.28","183","1","2025-04-14 14:36:39","bb671e3ae32f654b8954ea4c4635f915","","Mozilla/5.0 (Windows NT 10.0; Win64; x64) AppleWebKit/537.36 (KHTML, like Gecko) Chrome/135.0.0.0 Safari/537.36","WebKit","Chrome","135.0.0.0","Windows","10.0","https://hz8g1ckzuq.cognition.run/","en-US,en;q=0.9,ko-KR;q=0.8,ko;q=0.7,es-US;q=0.6,es;q=0.5","gloxujcy2mbsemd","46","[""White""]","No","Female","3051076.1999999993","null","","<p></p>","null","rating","bww","catch","null","microwave ovens","85","65","25","15","50","25","1","","","","","","","","","",""
"","","","","","rating_trial","survey-html-form","60","2717647","0.0-3.0-1.28","183","1","2025-04-14 14:36:39","bb671e3ae32f654b8954ea4c4635f915","","Mozilla/5.0 (Windows NT 10.0; Win64; x64) AppleWebKit/537.36 (KHTML, like Gecko) Chrome/135.0.0.0 Safari/537.36","WebKit","Chrome","135.0.0.0","Windows","10.0","https://hz8g1ckzuq.cognition.run/","en-US,en;q=0.9,ko-KR;q=0.8,ko;q=0.7,es-US;q=0.6,es;q=0.5","gloxujcy2mbsemd","46","[""White""]","No","Female","3051076.1999999993","9419","","","{""price_1"":""300"",""price_2"":""100"",""price_3"":""90""}","rating","bww","catch","null","microwave ovens","85","65","25","15","50","25","1","null","null","null","null","null","null","Warranty","Cooking power","",""
"","","","","","rating_trial_setup","html-keyboard-response","61","2717950","0.0-3.0-0.29","183","1","2025-04-14 14:36:39","bb671e3ae32f654b8954ea4c4635f915","","Mozilla/5.0 (Windows NT 10.0; Win64; x64) AppleWebKit/537.36 (KHTML, like Gecko) Chrome/135.0.0.0 Safari/537.36","WebKit","Chrome","135.0.0.0","Windows","10.0","https://hz8g1ckzuq.cognition.run/","en-US,en;q=0.9,ko-KR;q=0.8,ko;q=0.7,es-US;q=0.6,es;q=0.5","gloxujcy2mbsemd","46","[""White""]","No","Female","3051076.1999999993","null","","<p></p>","null","rating","tdc","attraction_2","2","microwave ovens","null","null","null","null","null","null","2","","","","","","","","","",""
"","","","","","rating_trial","survey-html-form","62","2733151","0.0-3.0-1.29","183","1","2025-04-14 14:36:39","bb671e3ae32f654b8954ea4c4635f915","","Mozilla/5.0 (Windows NT 10.0; Win64; x64) AppleWebKit/537.36 (KHTML, like Gecko) Chrome/135.0.0.0 Safari/537.36","WebKit","Chrome","135.0.0.0","Windows","10.0","https://hz8g1ckzuq.cognition.run/","en-US,en;q=0.9,ko-KR;q=0.8,ko;q=0.7,es-US;q=0.6,es;q=0.5","gloxujcy2mbsemd","46","[""White""]","No","Female","3051076.1999999993","15197","","","{""price_1"":""100"",""price_2"":""90"",""price_3"":""150""}","rating","tdc","attraction_2","2","microwave ovens","null","null","null","null","null","null","2","50","60","40","60","50","60","Warranty","Cooking power","",""
"","","","","","rating_trial_setup","html-keyboard-response","63","2733458","0.0-3.0-0.30","183","1","2025-04-14 14:36:39","bb671e3ae32f654b8954ea4c4635f915","","Mozilla/5.0 (Windows NT 10.0; Win64; x64) AppleWebKit/537.36 (KHTML, like Gecko) Chrome/135.0.0.0 Safari/537.36","WebKit","Chrome","135.0.0.0","Windows","10.0","https://hz8g1ckzuq.cognition.run/","en-US,en;q=0.9,ko-KR;q=0.8,ko;q=0.7,es-US;q=0.6,es;q=0.5","gloxujcy2mbsemd","46","[""White""]","No","Female","3051076.1999999993","null","","<p></p>","null","rating","bww","catch","null","washing machines","55","95","15","10","5","5","1","","","","","","","","","",""
"","","","","","rating_trial","survey-html-form","64","2743126","0.0-3.0-1.30","183","1","2025-04-14 14:36:39","bb671e3ae32f654b8954ea4c4635f915","","Mozilla/5.0 (Windows NT 10.0; Win64; x64) AppleWebKit/537.36 (KHTML, like Gecko) Chrome/135.0.0.0 Safari/537.36","WebKit","Chrome","135.0.0.0","Windows","10.0","https://hz8g1ckzuq.cognition.run/","en-US,en;q=0.9,ko-KR;q=0.8,ko;q=0.7,es-US;q=0.6,es;q=0.5","gloxujcy2mbsemd","46","[""White""]","No","Female","3051076.1999999993","9665","","","{""price_1"":""2000"",""price_2"":""800"",""price_3"":""700""}","rating","bww","catch","null","washing machines","55","95","15","10","5","5","1","null","null","null","null","null","null","Average lifespan","Energy savings","",""
"","","","","","rating_trial_setup","html-keyboard-response","65","2743430","0.0-3.0-0.31","183","1","2025-04-14 14:36:39","bb671e3ae32f654b8954ea4c4635f915","","Mozilla/5.0 (Windows NT 10.0; Win64; x64) AppleWebKit/537.36 (KHTML, like Gecko) Chrome/135.0.0.0 Safari/537.36","WebKit","Chrome","135.0.0.0","Windows","10.0","https://hz8g1ckzuq.cognition.run/","en-US,en;q=0.9,ko-KR;q=0.8,ko;q=0.7,es-US;q=0.6,es;q=0.5","gloxujcy2mbsemd","46","[""White""]","No","Female","3051076.1999999993","null","","<p></p>","null","rating","dct","attraction_1","2","laptops","null","null","null","null","null","null","1","","","","","","","","","",""
"","","","","","rating_trial","survey-html-form","66","2754702","0.0-3.0-1.31","183","1","2025-04-14 14:36:39","bb671e3ae32f654b8954ea4c4635f915","","Mozilla/5.0 (Windows NT 10.0; Win64; x64) AppleWebKit/537.36 (KHTML, like Gecko) Chrome/135.0.0.0 Safari/537.36","WebKit","Chrome","135.0.0.0","Windows","10.0","https://hz8g1ckzuq.cognition.run/","en-US,en;q=0.9,ko-KR;q=0.8,ko;q=0.7,es-US;q=0.6,es;q=0.5","gloxujcy2mbsemd","46","[""White""]","No","Female","3051076.1999999993","11267","","","{""price_1"":""1000"",""price_2"":""900"",""price_3"":""1500""}","rating","dct","attraction_1","2","laptops","null","null","null","null","null","null","1","50","60","45","60","50","60","Processing speed","Memory (RAM)","",""
"","","","","","rating_trial_setup","html-keyboard-response","67","2755007","0.0-3.0-0.32","183","1","2025-04-14 14:36:39","bb671e3ae32f654b8954ea4c4635f915","","Mozilla/5.0 (Windows NT 10.0; Win64; x64) AppleWebKit/537.36 (KHTML, like Gecko) Chrome/135.0.0.0 Safari/537.36","WebKit","Chrome","135.0.0.0","Windows","10.0","https://hz8g1ckzuq.cognition.run/","en-US,en;q=0.9,ko-KR;q=0.8,ko;q=0.7,es-US;q=0.6,es;q=0.5","gloxujcy2mbsemd","46","[""White""]","No","Female","3051076.1999999993","null","","<p></p>","null","rating","cdt","attraction_1","1","laptops","null","null","null","null","null","null","1","","","","","","","","","",""
"","","","","","rating_trial","survey-html-form","68","2811134","0.0-3.0-1.32","183","1","2025-04-14 14:36:39","bb671e3ae32f654b8954ea4c4635f915","","Mozilla/5.0 (Windows NT 10.0; Win64; x64) AppleWebKit/537.36 (KHTML, like Gecko) Chrome/135.0.0.0 Safari/537.36","WebKit","Chrome","135.0.0.0","Windows","10.0","https://hz8g1ckzuq.cognition.run/","en-US,en;q=0.9,ko-KR;q=0.8,ko;q=0.7,es-US;q=0.6,es;q=0.5","gloxujcy2mbsemd","46","[""White""]","No","Female","3051076.1999999993","56123","","","{""price_1"":""800"",""price_2"":""650"",""price_3"":""750""}","rating","cdt","attraction_1","1","laptops","null","null","null","null","null","null","1","60","50","60","50","60","45","Processing speed","Memory (RAM)","",""
"","","","","","rating_trial_setup","html-keyboard-response","69","2811440","0.0-3.0-0.33","183","1","2025-04-14 14:36:39","bb671e3ae32f654b8954ea4c4635f915","","Mozilla/5.0 (Windows NT 10.0; Win64; x64) AppleWebKit/537.36 (KHTML, like Gecko) Chrome/135.0.0.0 Safari/537.36","WebKit","Chrome","135.0.0.0","Windows","10.0","https://hz8g1ckzuq.cognition.run/","en-US,en;q=0.9,ko-KR;q=0.8,ko;q=0.7,es-US;q=0.6,es;q=0.5","gloxujcy2mbsemd","46","[""White""]","No","Female","3051076.1999999993","null","","<p></p>","null","rating","cdt","attraction_1","2","washing machines","null","null","null","null","null","null","1","","","","","","","","","",""
"","","","","","rating_trial","survey-html-form","70","2820837","0.0-3.0-1.33","183","1","2025-04-14 14:36:39","bb671e3ae32f654b8954ea4c4635f915","","Mozilla/5.0 (Windows NT 10.0; Win64; x64) AppleWebKit/537.36 (KHTML, like Gecko) Chrome/135.0.0.0 Safari/537.36","WebKit","Chrome","135.0.0.0","Windows","10.0","https://hz8g1ckzuq.cognition.run/","en-US,en;q=0.9,ko-KR;q=0.8,ko;q=0.7,es-US;q=0.6,es;q=0.5","gloxujcy2mbsemd","46","[""White""]","No","Female","3051076.1999999993","9393","","","{""price_1"":""950"",""price_2"":""1500"",""price_3"":""1000""}","rating","cdt","attraction_1","2","washing machines","null","null","null","null","null","null","1","50","60","45","60","50","60","Average lifespan","Energy savings","",""
"","","","","","rating_trial_setup","html-keyboard-response","71","2821149","0.0-3.0-0.34","183","1","2025-04-14 14:36:39","bb671e3ae32f654b8954ea4c4635f915","","Mozilla/5.0 (Windows NT 10.0; Win64; x64) AppleWebKit/537.36 (KHTML, like Gecko) Chrome/135.0.0.0 Safari/537.36","WebKit","Chrome","135.0.0.0","Windows","10.0","https://hz8g1ckzuq.cognition.run/","en-US,en;q=0.9,ko-KR;q=0.8,ko;q=0.7,es-US;q=0.6,es;q=0.5","gloxujcy2mbsemd","46","[""White""]","No","Female","3051076.1999999993","null","","<p></p>","null","rating","wwb","catch","null","laptops","85","85","40","25","15","40","1","","","","","","","","","",""
"","","","","","rating_trial","survey-html-form","72","2838021","0.0-3.0-1.34","183","1","2025-04-14 14:36:39","bb671e3ae32f654b8954ea4c4635f915","","Mozilla/5.0 (Windows NT 10.0; Win64; x64) AppleWebKit/537.36 (KHTML, like Gecko) Chrome/135.0.0.0 Safari/537.36","WebKit","Chrome","135.0.0.0","Windows","10.0","https://hz8g1ckzuq.cognition.run/","en-US,en;q=0.9,ko-KR;q=0.8,ko;q=0.7,es-US;q=0.6,es;q=0.5","gloxujcy2mbsemd","46","[""White""]","No","Female","3051076.1999999993","16868","","","{""price_1"":""800"",""price_2"":""900"",""price_3"":""1000""}","rating","wwb","catch","null","laptops","85","85","40","25","15","40","1","null","null","null","null","null","null","Processing speed","Memory (RAM)","",""
"","","","","","rating_trial_setup","html-keyboard-response","73","2838339","0.0-3.0-0.35","183","1","2025-04-14 14:36:39","bb671e3ae32f654b8954ea4c4635f915","","Mozilla/5.0 (Windows NT 10.0; Win64; x64) AppleWebKit/537.36 (KHTML, like Gecko) Chrome/135.0.0.0 Safari/537.36","WebKit","Chrome","135.0.0.0","Windows","10.0","https://hz8g1ckzuq.cognition.run/","en-US,en;q=0.9,ko-KR;q=0.8,ko;q=0.7,es-US;q=0.6,es;q=0.5","gloxujcy2mbsemd","46","[""White""]","No","Female","3051076.1999999993","null","","<p></p>","null","rating","dct","attraction_2","2","televisions","null","null","null","null","null","null","2","","","","","","","","","",""
"","","","","","rating_trial","survey-html-form","74","2851292","0.0-3.0-1.35","183","1","2025-04-14 14:36:39","bb671e3ae32f654b8954ea4c4635f915","","Mozilla/5.0 (Windows NT 10.0; Win64; x64) AppleWebKit/537.36 (KHTML, like Gecko) Chrome/135.0.0.0 Safari/537.36","WebKit","Chrome","135.0.0.0","Windows","10.0","https://hz8g1ckzuq.cognition.run/","en-US,en;q=0.9,ko-KR;q=0.8,ko;q=0.7,es-US;q=0.6,es;q=0.5","gloxujcy2mbsemd","46","[""White""]","No","Female","3051076.1999999993","12949","","","{""price_1"":""600"",""price_2"":""800"",""price_3"":""700""}","rating","dct","attraction_2","2","televisions","null","null","null","null","null","null","2","50","60","40","60","50","60","Screen size","Average lifespan","",""
"","","","","","rating_trial_setup","html-keyboard-response","75","2851601","0.0-3.0-0.36","183","1","2025-04-14 14:36:39","bb671e3ae32f654b8954ea4c4635f915","","Mozilla/5.0 (Windows NT 10.0; Win64; x64) AppleWebKit/537.36 (KHTML, like Gecko) Chrome/135.0.0.0 Safari/537.36","WebKit","Chrome","135.0.0.0","Windows","10.0","https://hz8g1ckzuq.cognition.run/","en-US,en;q=0.9,ko-KR;q=0.8,ko;q=0.7,es-US;q=0.6,es;q=0.5","gloxujcy2mbsemd","46","[""White""]","No","Female","3051076.1999999993","null","","<p></p>","null","rating","tdc","repulsion_2","2","microwave ovens","null","null","null","null","null","null","1","","","","","","","","","",""
"","","","","","rating_trial","survey-html-form","76","2860548","0.0-3.0-1.36","183","1","2025-04-14 14:36:39","bb671e3ae32f654b8954ea4c4635f915","","Mozilla/5.0 (Windows NT 10.0; Win64; x64) AppleWebKit/537.36 (KHTML, like Gecko) Chrome/135.0.0.0 Safari/537.36","WebKit","Chrome","135.0.0.0","Windows","10.0","https://hz8g1ckzuq.cognition.run/","en-US,en;q=0.9,ko-KR;q=0.8,ko;q=0.7,es-US;q=0.6,es;q=0.5","gloxujcy2mbsemd","46","[""White""]","No","Female","3051076.1999999993","8942","","","{""price_1"":""100"",""price_2"":""150"",""price_3"":""90""}","rating","tdc","repulsion_2","2","microwave ovens","null","null","null","null","null","null","1","30","40","20","100","90","100","Warranty","Cooking power","",""
"","","","","","rating_trial_setup","html-keyboard-response","77","2860855","0.0-3.0-0.37","183","1","2025-04-14 14:36:39","bb671e3ae32f654b8954ea4c4635f915","","Mozilla/5.0 (Windows NT 10.0; Win64; x64) AppleWebKit/537.36 (KHTML, like Gecko) Chrome/135.0.0.0 Safari/537.36","WebKit","Chrome","135.0.0.0","Windows","10.0","https://hz8g1ckzuq.cognition.run/","en-US,en;q=0.9,ko-KR;q=0.8,ko;q=0.7,es-US;q=0.6,es;q=0.5","gloxujcy2mbsemd","46","[""White""]","No","Female","3051076.1999999993","null","","<p></p>","null","rating","tcd","repulsion_1","2","microwave ovens","null","null","null","null","null","null","1","","","","","","","","","",""
"","","","","","rating_trial","survey-html-form","78","2869252","0.0-3.0-1.37","183","1","2025-04-14 14:36:39","bb671e3ae32f654b8954ea4c4635f915","","Mozilla/5.0 (Windows NT 10.0; Win64; x64) AppleWebKit/537.36 (KHTML, like Gecko) Chrome/135.0.0.0 Safari/537.36","WebKit","Chrome","135.0.0.0","Windows","10.0","https://hz8g1ckzuq.cognition.run/","en-US,en;q=0.9,ko-KR;q=0.8,ko;q=0.7,es-US;q=0.6,es;q=0.5","gloxujcy2mbsemd","46","[""White""]","No","Female","3051076.1999999993","8393","","","{""price_1"":""200"",""price_2"":""100"",""price_3"":""150""}","rating","tcd","repulsion_1","2","microwave ovens","null","null","null","null","null","null","1","30","40","25","100","90","100","Warranty","Cooking power","",""
"","","","","","rating_trial_setup","html-keyboard-response","79","2869556","0.0-3.0-0.38","183","1","2025-04-14 14:36:39","bb671e3ae32f654b8954ea4c4635f915","","Mozilla/5.0 (Windows NT 10.0; Win64; x64) AppleWebKit/537.36 (KHTML, like Gecko) Chrome/135.0.0.0 Safari/537.36","WebKit","Chrome","135.0.0.0","Windows","10.0","https://hz8g1ckzuq.cognition.run/","en-US,en;q=0.9,ko-KR;q=0.8,ko;q=0.7,es-US;q=0.6,es;q=0.5","gloxujcy2mbsemd","46","[""White""]","No","Female","3051076.1999999993","null","","<p></p>","null","rating","dtc","attraction_1","1","microwave ovens","null","null","null","null","null","null","1","","","","","","","","","",""
"","","","","","rating_trial","survey-html-form","80","2877636","0.0-3.0-1.38","183","1","2025-04-14 14:36:39","bb671e3ae32f654b8954ea4c4635f915","","Mozilla/5.0 (Windows NT 10.0; Win64; x64) AppleWebKit/537.36 (KHTML, like Gecko) Chrome/135.0.0.0 Safari/537.36","WebKit","Chrome","135.0.0.0","Windows","10.0","https://hz8g1ckzuq.cognition.run/","en-US,en;q=0.9,ko-KR;q=0.8,ko;q=0.7,es-US;q=0.6,es;q=0.5","gloxujcy2mbsemd","46","[""White""]","No","Female","3051076.1999999993","8076","","","{""price_1"":""100"",""price_2"":""150"",""price_3"":""200""}","rating","dtc","attraction_1","1","microwave ovens","null","null","null","null","null","null","1","60","50","60","50","60","45","Warranty","Cooking power","",""
"","","","","","rating_trial_setup","html-keyboard-response","81","2877942","0.0-3.0-0.39","183","1","2025-04-14 14:36:39","bb671e3ae32f654b8954ea4c4635f915","","Mozilla/5.0 (Windows NT 10.0; Win64; x64) AppleWebKit/537.36 (KHTML, like Gecko) Chrome/135.0.0.0 Safari/537.36","WebKit","Chrome","135.0.0.0","Windows","10.0","https://hz8g1ckzuq.cognition.run/","en-US,en;q=0.9,ko-KR;q=0.8,ko;q=0.7,es-US;q=0.6,es;q=0.5","gloxujcy2mbsemd","46","[""White""]","No","Female","3051076.1999999993","null","","<p></p>","null","rating","cdt","repulsion_1","2","washing machines","null","null","null","null","null","null","1","","","","","","","","","",""
"","","","","","rating_trial","survey-html-form","82","2887148","0.0-3.0-1.39","183","1","2025-04-14 14:36:39","bb671e3ae32f654b8954ea4c4635f915","","Mozilla/5.0 (Windows NT 10.0; Win64; x64) AppleWebKit/537.36 (KHTML, like Gecko) Chrome/135.0.0.0 Safari/537.36","WebKit","Chrome","135.0.0.0","Windows","10.0","https://hz8g1ckzuq.cognition.run/","en-US,en;q=0.9,ko-KR;q=0.8,ko;q=0.7,es-US;q=0.6,es;q=0.5","gloxujcy2mbsemd","46","[""White""]","No","Female","3051076.1999999993","9202","","","{""price_1"":""800"",""price_2"":""1000"",""price_3"":""900""}","rating","cdt","repulsion_1","2","washing machines","null","null","null","null","null","null","1","30","40","25","100","90","100","Average lifespan","Energy savings","",""
"","","","","","","instructions","83","2908147","0.0-4.0","183","1","2025-04-14 14:36:39","bb671e3ae32f654b8954ea4c4635f915","","Mozilla/5.0 (Windows NT 10.0; Win64; x64) AppleWebKit/537.36 (KHTML, like Gecko) Chrome/135.0.0.0 Safari/537.36","WebKit","Chrome","135.0.0.0","Windows","10.0","https://hz8g1ckzuq.cognition.run/","en-US,en;q=0.9,ko-KR;q=0.8,ko;q=0.7,es-US;q=0.6,es;q=0.5","gloxujcy2mbsemd","46","[""White""]","No","Female","3051076.1999999993","20994","[{""page_index"":0,""viewing_time"":2098},{""page_index"":1,""viewing_time"":1544},{""page_index"":2,""viewing_time"":1952},{""page_index"":3,""viewing_time"":3320},{""page_index"":4,""viewing_time"":1728},{""page_index"":5,""viewing_time"":1584},{""page_index"":6,""viewing_time"":7264},{""page_index"":7,""viewing_time"":1504}]","","","","","","","","","","","","","","","","","","","","","","","",""
"","","","","","choice_trial_setup","html-keyboard-response","84","2908454","0.0-5.0-0.0","183","1","2025-04-14 14:36:39","bb671e3ae32f654b8954ea4c4635f915","","Mozilla/5.0 (Windows NT 10.0; Win64; x64) AppleWebKit/537.36 (KHTML, like Gecko) Chrome/135.0.0.0 Safari/537.36","WebKit","Chrome","135.0.0.0","Windows","10.0","https://hz8g1ckzuq.cognition.run/","en-US,en;q=0.9,ko-KR;q=0.8,ko;q=0.7,es-US;q=0.6,es;q=0.5","gloxujcy2mbsemd","46","[""White""]","No","Female","3051076.1999999993","null","","<p></p>","null","choice","bww","catch","null","washing machines","75","95","15","25","25","15","1","","","","","","","","","",""
"","","","","","choice_trial","survey-html-form","85","2911724","0.0-5.0-1.0","183","1","2025-04-14 14:36:39","bb671e3ae32f654b8954ea4c4635f915","","Mozilla/5.0 (Windows NT 10.0; Win64; x64) AppleWebKit/537.36 (KHTML, like Gecko) Chrome/135.0.0.0 Safari/537.36","WebKit","Chrome","135.0.0.0","Windows","10.0","https://hz8g1ckzuq.cognition.run/","en-US,en;q=0.9,ko-KR;q=0.8,ko;q=0.7,es-US;q=0.6,es;q=0.5","gloxujcy2mbsemd","46","[""White""]","No","Female","3051076.1999999993","3263","","","{""product_choice"":""A""}","choice","bww","catch","null","washing machines","75","95","15","25","25","15","1","null","null","null","null","null","null","Average lifespan","Energy savings","",""
"","","","","","choice_trial_setup","html-keyboard-response","86","2912031","0.0-5.0-0.1","183","1","2025-04-14 14:36:39","bb671e3ae32f654b8954ea4c4635f915","","Mozilla/5.0 (Windows NT 10.0; Win64; x64) AppleWebKit/537.36 (KHTML, like Gecko) Chrome/135.0.0.0 Safari/537.36","WebKit","Chrome","135.0.0.0","Windows","10.0","https://hz8g1ckzuq.cognition.run/","en-US,en;q=0.9,ko-KR;q=0.8,ko;q=0.7,es-US;q=0.6,es;q=0.5","gloxujcy2mbsemd","46","[""White""]","No","Female","3051076.1999999993","null","","<p></p>","null","choice","ctd","repulsion_2","2","washing machines","null","null","null","null","null","null","1","","","","","","","","","",""
"","","","","","choice_trial","survey-html-form","87","2914547","0.0-5.0-1.1","183","1","2025-04-14 14:36:39","bb671e3ae32f654b8954ea4c4635f915","","Mozilla/5.0 (Windows NT 10.0; Win64; x64) AppleWebKit/537.36 (KHTML, like Gecko) Chrome/135.0.0.0 Safari/537.36","WebKit","Chrome","135.0.0.0","Windows","10.0","https://hz8g1ckzuq.cognition.run/","en-US,en;q=0.9,ko-KR;q=0.8,ko;q=0.7,es-US;q=0.6,es;q=0.5","gloxujcy2mbsemd","46","[""White""]","No","Female","3051076.1999999993","2512","","","{""product_choice"":""B""}","choice","ctd","repulsion_2","2","washing machines","null","null","null","null","null","null","1","30","40","20","100","90","100","Average lifespan","Energy savings","",""
"","","","","","choice_trial_setup","html-keyboard-response","88","2914852","0.0-5.0-0.2","183","1","2025-04-14 14:36:39","bb671e3ae32f654b8954ea4c4635f915","","Mozilla/5.0 (Windows NT 10.0; Win64; x64) AppleWebKit/537.36 (KHTML, like Gecko) Chrome/135.0.0.0 Safari/537.36","WebKit","Chrome","135.0.0.0","Windows","10.0","https://hz8g1ckzuq.cognition.run/","en-US,en;q=0.9,ko-KR;q=0.8,ko;q=0.7,es-US;q=0.6,es;q=0.5","gloxujcy2mbsemd","46","[""White""]","No","Female","3051076.1999999993","null","","<p></p>","null","choice","tdc","attraction_2","2","laptops","null","null","null","null","null","null","2","","","","","","","","","",""
"","","","","","choice_trial","survey-html-form","89","2917523","0.0-5.0-1.2","183","1","2025-04-14 14:36:39","bb671e3ae32f654b8954ea4c4635f915","","Mozilla/5.0 (Windows NT 10.0; Win64; x64) AppleWebKit/537.36 (KHTML, like Gecko) Chrome/135.0.0.0 Safari/537.36","WebKit","Chrome","135.0.0.0","Windows","10.0","https://hz8g1ckzuq.cognition.run/","en-US,en;q=0.9,ko-KR;q=0.8,ko;q=0.7,es-US;q=0.6,es;q=0.5","gloxujcy2mbsemd","46","[""White""]","No","Female","3051076.1999999993","2658","","","{""product_choice"":""C""}","choice","tdc","attraction_2","2","laptops","null","null","null","null","null","null","2","50","60","40","60","50","60","Processing speed","Memory (RAM)","",""
"","","","","","choice_trial_setup","html-keyboard-response","90","2917827","0.0-5.0-0.3","183","1","2025-04-14 14:36:39","bb671e3ae32f654b8954ea4c4635f915","","Mozilla/5.0 (Windows NT 10.0; Win64; x64) AppleWebKit/537.36 (KHTML, like Gecko) Chrome/135.0.0.0 Safari/537.36","WebKit","Chrome","135.0.0.0","Windows","10.0","https://hz8g1ckzuq.cognition.run/","en-US,en;q=0.9,ko-KR;q=0.8,ko;q=0.7,es-US;q=0.6,es;q=0.5","gloxujcy2mbsemd","46","[""White""]","No","Female","3051076.1999999993","null","","<p></p>","null","choice","tcd","attraction_1","1","televisions","null","null","null","null","null","null","1","","","","","","","","","",""
"","","","","","choice_trial","survey-html-form","91","2919987","0.0-5.0-1.3","183","1","2025-04-14 14:36:39","bb671e3ae32f654b8954ea4c4635f915","","Mozilla/5.0 (Windows NT 10.0; Win64; x64) AppleWebKit/537.36 (KHTML, like Gecko) Chrome/135.0.0.0 Safari/537.36","WebKit","Chrome","135.0.0.0","Windows","10.0","https://hz8g1ckzuq.cognition.run/","en-US,en;q=0.9,ko-KR;q=0.8,ko;q=0.7,es-US;q=0.6,es;q=0.5","gloxujcy2mbsemd","46","[""White""]","No","Female","3051076.1999999993","2154","","","{""product_choice"":""B""}","choice","tcd","attraction_1","1","televisions","null","null","null","null","null","null","1","60","50","60","50","60","45","Screen size","Average lifespan","",""
"","","","","","choice_trial_setup","html-keyboard-response","92","2920292","0.0-5.0-0.4","183","1","2025-04-14 14:36:39","bb671e3ae32f654b8954ea4c4635f915","","Mozilla/5.0 (Windows NT 10.0; Win64; x64) AppleWebKit/537.36 (KHTML, like Gecko) Chrome/135.0.0.0 Safari/537.36","WebKit","Chrome","135.0.0.0","Windows","10.0","https://hz8g1ckzuq.cognition.run/","en-US,en;q=0.9,ko-KR;q=0.8,ko;q=0.7,es-US;q=0.6,es;q=0.5","gloxujcy2mbsemd","46","[""White""]","No","Female","3051076.1999999993","null","","<p></p>","null","choice","tdc","attraction_1","2","televisions","null","null","null","null","null","null","1","","","","","","","","","",""
"","","","","","choice_trial","survey-html-form","93","2922403","0.0-5.0-1.4","183","1","2025-04-14 14:36:39","bb671e3ae32f654b8954ea4c4635f915","","Mozilla/5.0 (Windows NT 10.0; Win64; x64) AppleWebKit/537.36 (KHTML, like Gecko) Chrome/135.0.0.0 Safari/537.36","WebKit","Chrome","135.0.0.0","Windows","10.0","https://hz8g1ckzuq.cognition.run/","en-US,en;q=0.9,ko-KR;q=0.8,ko;q=0.7,es-US;q=0.6,es;q=0.5","gloxujcy2mbsemd","46","[""White""]","No","Female","3051076.1999999993","2106","","","{""product_choice"":""A""}","choice","tdc","attraction_1","2","televisions","null","null","null","null","null","null","1","50","60","45","60","50","60","Screen size","Average lifespan","",""
"","","","","","choice_trial_setup","html-keyboard-response","94","2922709","0.0-5.0-0.5","183","1","2025-04-14 14:36:39","bb671e3ae32f654b8954ea4c4635f915","","Mozilla/5.0 (Windows NT 10.0; Win64; x64) AppleWebKit/537.36 (KHTML, like Gecko) Chrome/135.0.0.0 Safari/537.36","WebKit","Chrome","135.0.0.0","Windows","10.0","https://hz8g1ckzuq.cognition.run/","en-US,en;q=0.9,ko-KR;q=0.8,ko;q=0.7,es-US;q=0.6,es;q=0.5","gloxujcy2mbsemd","46","[""White""]","No","Female","3051076.1999999993","null","","<p></p>","null","choice","ctd","repulsion_1","2","televisions","null","null","null","null","null","null","1","","","","","","","","","",""
"","","","","","choice_trial","survey-html-form","95","2927419","0.0-5.0-1.5","183","1","2025-04-14 14:36:39","bb671e3ae32f654b8954ea4c4635f915","","Mozilla/5.0 (Windows NT 10.0; Win64; x64) AppleWebKit/537.36 (KHTML, like Gecko) Chrome/135.0.0.0 Safari/537.36","WebKit","Chrome","135.0.0.0","Windows","10.0","https://hz8g1ckzuq.cognition.run/","en-US,en;q=0.9,ko-KR;q=0.8,ko;q=0.7,es-US;q=0.6,es;q=0.5","gloxujcy2mbsemd","46","[""White""]","No","Female","3051076.1999999993","4695","","","{""product_choice"":""C""}","choice","ctd","repulsion_1","2","televisions","null","null","null","null","null","null","1","30","40","25","100","90","100","Screen size","Average lifespan","",""
"","","","","","choice_trial_setup","html-keyboard-response","96","2927725","0.0-5.0-0.6","183","1","2025-04-14 14:36:39","bb671e3ae32f654b8954ea4c4635f915","","Mozilla/5.0 (Windows NT 10.0; Win64; x64) AppleWebKit/537.36 (KHTML, like Gecko) Chrome/135.0.0.0 Safari/537.36","WebKit","Chrome","135.0.0.0","Windows","10.0","https://hz8g1ckzuq.cognition.run/","en-US,en;q=0.9,ko-KR;q=0.8,ko;q=0.7,es-US;q=0.6,es;q=0.5","gloxujcy2mbsemd","46","[""White""]","No","Female","3051076.1999999993","null","","<p></p>","null","choice","tdc","repulsion_1","2","microwave ovens","null","null","null","null","null","null","1","","","","","","","","","",""
"","","","","","choice_trial","survey-html-form","97","2930803","0.0-5.0-1.6","183","1","2025-04-14 14:36:39","bb671e3ae32f654b8954ea4c4635f915","","Mozilla/5.0 (Windows NT 10.0; Win64; x64) AppleWebKit/537.36 (KHTML, like Gecko) Chrome/135.0.0.0 Safari/537.36","WebKit","Chrome","135.0.0.0","Windows","10.0","https://hz8g1ckzuq.cognition.run/","en-US,en;q=0.9,ko-KR;q=0.8,ko;q=0.7,es-US;q=0.6,es;q=0.5","gloxujcy2mbsemd","46","[""White""]","No","Female","3051076.1999999993","3074","","","{""product_choice"":""B""}","choice","tdc","repulsion_1","2","microwave ovens","null","null","null","null","null","null","1","30","40","25","100","90","100","Warranty","Cooking power","",""
"","","","","","choice_trial_setup","html-keyboard-response","98","2931109","0.0-5.0-0.7","183","1","2025-04-14 14:36:39","bb671e3ae32f654b8954ea4c4635f915","","Mozilla/5.0 (Windows NT 10.0; Win64; x64) AppleWebKit/537.36 (KHTML, like Gecko) Chrome/135.0.0.0 Safari/537.36","WebKit","Chrome","135.0.0.0","Windows","10.0","https://hz8g1ckzuq.cognition.run/","en-US,en;q=0.9,ko-KR;q=0.8,ko;q=0.7,es-US;q=0.6,es;q=0.5","gloxujcy2mbsemd","46","[""White""]","No","Female","3051076.1999999993","null","","<p></p>","null","choice","ctd","repulsion_2","1","laptops","null","null","null","null","null","null","1","","","","","","","","","",""
"","","","","","choice_trial","survey-html-form","99","2935203","0.0-5.0-1.7","183","1","2025-04-14 14:36:39","bb671e3ae32f654b8954ea4c4635f915","","Mozilla/5.0 (Windows NT 10.0; Win64; x64) AppleWebKit/537.36 (KHTML, like Gecko) Chrome/135.0.0.0 Safari/537.36","WebKit","Chrome","135.0.0.0","Windows","10.0","https://hz8g1ckzuq.cognition.run/","en-US,en;q=0.9,ko-KR;q=0.8,ko;q=0.7,es-US;q=0.6,es;q=0.5","gloxujcy2mbsemd","46","[""White""]","No","Female","3051076.1999999993","4089","","","{""product_choice"":""A""}","choice","ctd","repulsion_2","1","laptops","null","null","null","null","null","null","1","100","90","100","30","40","20","Processing speed","Memory (RAM)","",""
"","","","","","choice_trial_setup","html-keyboard-response","100","2935508","0.0-5.0-0.8","183","1","2025-04-14 14:36:39","bb671e3ae32f654b8954ea4c4635f915","","Mozilla/5.0 (Windows NT 10.0; Win64; x64) AppleWebKit/537.36 (KHTML, like Gecko) Chrome/135.0.0.0 Safari/537.36","WebKit","Chrome","135.0.0.0","Windows","10.0","https://hz8g1ckzuq.cognition.run/","en-US,en;q=0.9,ko-KR;q=0.8,ko;q=0.7,es-US;q=0.6,es;q=0.5","gloxujcy2mbsemd","46","[""White""]","No","Female","3051076.1999999993","null","","<p></p>","null","choice","tdc","attraction_2","2","microwave ovens","null","null","null","null","null","null","1","","","","","","","","","",""
"","","","","","choice_trial","survey-html-form","101","2938963","0.0-5.0-1.8","183","1","2025-04-14 14:36:39","bb671e3ae32f654b8954ea4c4635f915","","Mozilla/5.0 (Windows NT 10.0; Win64; x64) AppleWebKit/537.36 (KHTML, like Gecko) Chrome/135.0.0.0 Safari/537.36","WebKit","Chrome","135.0.0.0","Windows","10.0","https://hz8g1ckzuq.cognition.run/","en-US,en;q=0.9,ko-KR;q=0.8,ko;q=0.7,es-US;q=0.6,es;q=0.5","gloxujcy2mbsemd","46","[""White""]","No","Female","3051076.1999999993","3449","","","{""product_choice"":""C""}","choice","tdc","attraction_2","2","microwave ovens","null","null","null","null","null","null","1","50","60","40","60","50","60","Warranty","Cooking power","",""
"","","","","","choice_trial_setup","html-keyboard-response","102","2939268","0.0-5.0-0.9","183","1","2025-04-14 14:36:39","bb671e3ae32f654b8954ea4c4635f915","","Mozilla/5.0 (Windows NT 10.0; Win64; x64) AppleWebKit/537.36 (KHTML, like Gecko) Chrome/135.0.0.0 Safari/537.36","WebKit","Chrome","135.0.0.0","Windows","10.0","https://hz8g1ckzuq.cognition.run/","en-US,en;q=0.9,ko-KR;q=0.8,ko;q=0.7,es-US;q=0.6,es;q=0.5","gloxujcy2mbsemd","46","[""White""]","No","Female","3051076.1999999993","null","","<p></p>","null","choice","cdt","repulsion_2","2","microwave ovens","null","null","null","null","null","null","2","","","","","","","","","",""
"","","","","","choice_trial","survey-html-form","103","2941747","0.0-5.0-1.9","183","1","2025-04-14 14:36:39","bb671e3ae32f654b8954ea4c4635f915","","Mozilla/5.0 (Windows NT 10.0; Win64; x64) AppleWebKit/537.36 (KHTML, like Gecko) Chrome/135.0.0.0 Safari/537.36","WebKit","Chrome","135.0.0.0","Windows","10.0","https://hz8g1ckzuq.cognition.run/","en-US,en;q=0.9,ko-KR;q=0.8,ko;q=0.7,es-US;q=0.6,es;q=0.5","gloxujcy2mbsemd","46","[""White""]","No","Female","3051076.1999999993","2474","","","{""product_choice"":""B""}","choice","cdt","repulsion_2","2","microwave ovens","null","null","null","null","null","null","2","30","40","20","100","90","100","Warranty","Cooking power","",""
"","","","","","choice_trial_setup","html-keyboard-response","104","2942053","0.0-5.0-0.10","183","1","2025-04-14 14:36:39","bb671e3ae32f654b8954ea4c4635f915","","Mozilla/5.0 (Windows NT 10.0; Win64; x64) AppleWebKit/537.36 (KHTML, like Gecko) Chrome/135.0.0.0 Safari/537.36","WebKit","Chrome","135.0.0.0","Windows","10.0","https://hz8g1ckzuq.cognition.run/","en-US,en;q=0.9,ko-KR;q=0.8,ko;q=0.7,es-US;q=0.6,es;q=0.5","gloxujcy2mbsemd","46","[""White""]","No","Female","3051076.1999999993","null","","<p></p>","null","choice","wwb","catch","null","laptops","70","75","40","5","5","25","2","","","","","","","","","",""
"","","","","","choice_trial","survey-html-form","105","2944506","0.0-5.0-1.10","183","1","2025-04-14 14:36:39","bb671e3ae32f654b8954ea4c4635f915","","Mozilla/5.0 (Windows NT 10.0; Win64; x64) AppleWebKit/537.36 (KHTML, like Gecko) Chrome/135.0.0.0 Safari/537.36","WebKit","Chrome","135.0.0.0","Windows","10.0","https://hz8g1ckzuq.cognition.run/","en-US,en;q=0.9,ko-KR;q=0.8,ko;q=0.7,es-US;q=0.6,es;q=0.5","gloxujcy2mbsemd","46","[""White""]","No","Female","3051076.1999999993","2441","","","{""product_choice"":""C""}","choice","wwb","catch","null","laptops","70","75","40","5","5","25","2","null","null","null","null","null","null","Processing speed","Memory (RAM)","",""
"","","","","","choice_trial_setup","html-keyboard-response","106","2944827","0.0-5.0-0.11","183","1","2025-04-14 14:36:39","bb671e3ae32f654b8954ea4c4635f915","","Mozilla/5.0 (Windows NT 10.0; Win64; x64) AppleWebKit/537.36 (KHTML, like Gecko) Chrome/135.0.0.0 Safari/537.36","WebKit","Chrome","135.0.0.0","Windows","10.0","https://hz8g1ckzuq.cognition.run/","en-US,en;q=0.9,ko-KR;q=0.8,ko;q=0.7,es-US;q=0.6,es;q=0.5","gloxujcy2mbsemd","46","[""White""]","No","Female","3051076.1999999993","null","","<p></p>","null","choice","tcd","attraction_2","1","televisions","null","null","null","null","null","null","1","","","","","","","","","",""
"","","","","","choice_trial","survey-html-form","107","2949015","0.0-5.0-1.11","183","1","2025-04-14 14:36:39","bb671e3ae32f654b8954ea4c4635f915","","Mozilla/5.0 (Windows NT 10.0; Win64; x64) AppleWebKit/537.36 (KHTML, like Gecko) Chrome/135.0.0.0 Safari/537.36","WebKit","Chrome","135.0.0.0","Windows","10.0","https://hz8g1ckzuq.cognition.run/","en-US,en;q=0.9,ko-KR;q=0.8,ko;q=0.7,es-US;q=0.6,es;q=0.5","gloxujcy2mbsemd","46","[""White""]","No","Female","3051076.1999999993","4184","","","{""product_choice"":""B""}","choice","tcd","attraction_2","1","televisions","null","null","null","null","null","null","1","60","50","60","50","60","40","Screen size","Average lifespan","",""
"","","","","","choice_trial_setup","html-keyboard-response","108","2949334","0.0-5.0-0.12","183","1","2025-04-14 14:36:39","bb671e3ae32f654b8954ea4c4635f915","","Mozilla/5.0 (Windows NT 10.0; Win64; x64) AppleWebKit/537.36 (KHTML, like Gecko) Chrome/135.0.0.0 Safari/537.36","WebKit","Chrome","135.0.0.0","Windows","10.0","https://hz8g1ckzuq.cognition.run/","en-US,en;q=0.9,ko-KR;q=0.8,ko;q=0.7,es-US;q=0.6,es;q=0.5","gloxujcy2mbsemd","46","[""White""]","No","Female","3051076.1999999993","null","","<p></p>","null","choice","tcd","attraction_1","2","microwave ovens","null","null","null","null","null","null","2","","","","","","","","","",""
"","","","","","choice_trial","survey-html-form","109","2952602","0.0-5.0-1.12","183","1","2025-04-14 14:36:39","bb671e3ae32f654b8954ea4c4635f915","","Mozilla/5.0 (Windows NT 10.0; Win64; x64) AppleWebKit/537.36 (KHTML, like Gecko) Chrome/135.0.0.0 Safari/537.36","WebKit","Chrome","135.0.0.0","Windows","10.0","https://hz8g1ckzuq.cognition.run/","en-US,en;q=0.9,ko-KR;q=0.8,ko;q=0.7,es-US;q=0.6,es;q=0.5","gloxujcy2mbsemd","46","[""White""]","No","Female","3051076.1999999993","3263","","","{""product_choice"":""B""}","choice","tcd","attraction_1","2","microwave ovens","null","null","null","null","null","null","2","50","60","45","60","50","60","Warranty","Cooking power","",""
"","","","","","choice_trial_setup","html-keyboard-response","110","2952912","0.0-5.0-0.13","183","1","2025-04-14 14:36:39","bb671e3ae32f654b8954ea4c4635f915","","Mozilla/5.0 (Windows NT 10.0; Win64; x64) AppleWebKit/537.36 (KHTML, like Gecko) Chrome/135.0.0.0 Safari/537.36","WebKit","Chrome","135.0.0.0","Windows","10.0","https://hz8g1ckzuq.cognition.run/","en-US,en;q=0.9,ko-KR;q=0.8,ko;q=0.7,es-US;q=0.6,es;q=0.5","gloxujcy2mbsemd","46","[""White""]","No","Female","3051076.1999999993","null","","<p></p>","null","choice","cdt","repulsion_1","2","laptops","null","null","null","null","null","null","1","","","","","","","","","",""
"","","","","","choice_trial","survey-html-form","111","2955202","0.0-5.0-1.13","183","1","2025-04-14 14:36:39","bb671e3ae32f654b8954ea4c4635f915","","Mozilla/5.0 (Windows NT 10.0; Win64; x64) AppleWebKit/537.36 (KHTML, like Gecko) Chrome/135.0.0.0 Safari/537.36","WebKit","Chrome","135.0.0.0","Windows","10.0","https://hz8g1ckzuq.cognition.run/","en-US,en;q=0.9,ko-KR;q=0.8,ko;q=0.7,es-US;q=0.6,es;q=0.5","gloxujcy2mbsemd","46","[""White""]","No","Female","3051076.1999999993","2284","","","{""product_choice"":""C""}","choice","cdt","repulsion_1","2","laptops","null","null","null","null","null","null","1","30","40","25","100","90","100","Processing speed","Memory (RAM)","",""
"","","","","","choice_trial_setup","html-keyboard-response","112","2955510","0.0-5.0-0.14","183","1","2025-04-14 14:36:39","bb671e3ae32f654b8954ea4c4635f915","","Mozilla/5.0 (Windows NT 10.0; Win64; x64) AppleWebKit/537.36 (KHTML, like Gecko) Chrome/135.0.0.0 Safari/537.36","WebKit","Chrome","135.0.0.0","Windows","10.0","https://hz8g1ckzuq.cognition.run/","en-US,en;q=0.9,ko-KR;q=0.8,ko;q=0.7,es-US;q=0.6,es;q=0.5","gloxujcy2mbsemd","46","[""White""]","No","Female","3051076.1999999993","null","","<p></p>","null","choice","ctd","attraction_1","2","laptops","null","null","null","null","null","null","1","","","","","","","","","",""
"","","","","","choice_trial","survey-html-form","113","2957476","0.0-5.0-1.14","183","1","2025-04-14 14:36:39","bb671e3ae32f654b8954ea4c4635f915","","Mozilla/5.0 (Windows NT 10.0; Win64; x64) AppleWebKit/537.36 (KHTML, like Gecko) Chrome/135.0.0.0 Safari/537.36","WebKit","Chrome","135.0.0.0","Windows","10.0","https://hz8g1ckzuq.cognition.run/","en-US,en;q=0.9,ko-KR;q=0.8,ko;q=0.7,es-US;q=0.6,es;q=0.5","gloxujcy2mbsemd","46","[""White""]","No","Female","3051076.1999999993","1961","","","{""product_choice"":""B""}","choice","ctd","attraction_1","2","laptops","null","null","null","null","null","null","1","50","60","45","60","50","60","Processing speed","Memory (RAM)","",""
"","","","","","choice_trial_setup","html-keyboard-response","114","2957781","0.0-5.0-0.15","183","1","2025-04-14 14:36:39","bb671e3ae32f654b8954ea4c4635f915","","Mozilla/5.0 (Windows NT 10.0; Win64; x64) AppleWebKit/537.36 (KHTML, like Gecko) Chrome/135.0.0.0 Safari/537.36","WebKit","Chrome","135.0.0.0","Windows","10.0","https://hz8g1ckzuq.cognition.run/","en-US,en;q=0.9,ko-KR;q=0.8,ko;q=0.7,es-US;q=0.6,es;q=0.5","gloxujcy2mbsemd","46","[""White""]","No","Female","3051076.1999999993","null","","<p></p>","null","choice","ctd","attraction_1","2","washing machines","null","null","null","null","null","null","2","","","","","","","","","",""
"","","","","","choice_trial","survey-html-form","115","2960066","0.0-5.0-1.15","183","1","2025-04-14 14:36:39","bb671e3ae32f654b8954ea4c4635f915","","Mozilla/5.0 (Windows NT 10.0; Win64; x64) AppleWebKit/537.36 (KHTML, like Gecko) Chrome/135.0.0.0 Safari/537.36","WebKit","Chrome","135.0.0.0","Windows","10.0","https://hz8g1ckzuq.cognition.run/","en-US,en;q=0.9,ko-KR;q=0.8,ko;q=0.7,es-US;q=0.6,es;q=0.5","gloxujcy2mbsemd","46","[""White""]","No","Female","3051076.1999999993","2271","","","{""product_choice"":""C""}","choice","ctd","attraction_1","2","washing machines","null","null","null","null","null","null","2","50","60","45","60","50","60","Average lifespan","Energy savings","",""
"","","","","","choice_trial_setup","html-keyboard-response","116","2960373","0.0-5.0-0.16","183","1","2025-04-14 14:36:39","bb671e3ae32f654b8954ea4c4635f915","","Mozilla/5.0 (Windows NT 10.0; Win64; x64) AppleWebKit/537.36 (KHTML, like Gecko) Chrome/135.0.0.0 Safari/537.36","WebKit","Chrome","135.0.0.0","Windows","10.0","https://hz8g1ckzuq.cognition.run/","en-US,en;q=0.9,ko-KR;q=0.8,ko;q=0.7,es-US;q=0.6,es;q=0.5","gloxujcy2mbsemd","46","[""White""]","No","Female","3051076.1999999993","null","","<p></p>","null","choice","ctd","repulsion_2","1","microwave ovens","null","null","null","null","null","null","2","","","","","","","","","",""
"","","","","","choice_trial","survey-html-form","117","2964643","0.0-5.0-1.16","183","1","2025-04-14 14:36:39","bb671e3ae32f654b8954ea4c4635f915","","Mozilla/5.0 (Windows NT 10.0; Win64; x64) AppleWebKit/537.36 (KHTML, like Gecko) Chrome/135.0.0.0 Safari/537.36","WebKit","Chrome","135.0.0.0","Windows","10.0","https://hz8g1ckzuq.cognition.run/","en-US,en;q=0.9,ko-KR;q=0.8,ko;q=0.7,es-US;q=0.6,es;q=0.5","gloxujcy2mbsemd","46","[""White""]","No","Female","3051076.1999999993","4257","","","{""product_choice"":""B""}","choice","ctd","repulsion_2","1","microwave ovens","null","null","null","null","null","null","2","100","90","100","30","40","20","Warranty","Cooking power","",""
"","","","","","choice_trial_setup","html-keyboard-response","118","2964950","0.0-5.0-0.17","183","1","2025-04-14 14:36:39","bb671e3ae32f654b8954ea4c4635f915","","Mozilla/5.0 (Windows NT 10.0; Win64; x64) AppleWebKit/537.36 (KHTML, like Gecko) Chrome/135.0.0.0 Safari/537.36","WebKit","Chrome","135.0.0.0","Windows","10.0","https://hz8g1ckzuq.cognition.run/","en-US,en;q=0.9,ko-KR;q=0.8,ko;q=0.7,es-US;q=0.6,es;q=0.5","gloxujcy2mbsemd","46","[""White""]","No","Female","3051076.1999999993","null","","<p></p>","null","choice","tcd","repulsion_2","2","laptops","null","null","null","null","null","null","2","","","","","","","","","",""
"","","","","","choice_trial","survey-html-form","119","2967647","0.0-5.0-1.17","183","1","2025-04-14 14:36:39","bb671e3ae32f654b8954ea4c4635f915","","Mozilla/5.0 (Windows NT 10.0; Win64; x64) AppleWebKit/537.36 (KHTML, like Gecko) Chrome/135.0.0.0 Safari/537.36","WebKit","Chrome","135.0.0.0","Windows","10.0","https://hz8g1ckzuq.cognition.run/","en-US,en;q=0.9,ko-KR;q=0.8,ko;q=0.7,es-US;q=0.6,es;q=0.5","gloxujcy2mbsemd","46","[""White""]","No","Female","3051076.1999999993","2692","","","{""product_choice"":""B""}","choice","tcd","repulsion_2","2","laptops","null","null","null","null","null","null","2","30","40","20","100","90","100","Processing speed","Memory (RAM)","",""
"","","","","","choice_trial_setup","html-keyboard-response","120","2967953","0.0-5.0-0.18","183","1","2025-04-14 14:36:39","bb671e3ae32f654b8954ea4c4635f915","","Mozilla/5.0 (Windows NT 10.0; Win64; x64) AppleWebKit/537.36 (KHTML, like Gecko) Chrome/135.0.0.0 Safari/537.36","WebKit","Chrome","135.0.0.0","Windows","10.0","https://hz8g1ckzuq.cognition.run/","en-US,en;q=0.9,ko-KR;q=0.8,ko;q=0.7,es-US;q=0.6,es;q=0.5","gloxujcy2mbsemd","46","[""White""]","No","Female","3051076.1999999993","null","","<p></p>","null","choice","dct","repulsion_1","2","washing machines","null","null","null","null","null","null","1","","","","","","","","","",""
"","","","","","choice_trial","survey-html-form","121","2970898","0.0-5.0-1.18","183","1","2025-04-14 14:36:39","bb671e3ae32f654b8954ea4c4635f915","","Mozilla/5.0 (Windows NT 10.0; Win64; x64) AppleWebKit/537.36 (KHTML, like Gecko) Chrome/135.0.0.0 Safari/537.36","WebKit","Chrome","135.0.0.0","Windows","10.0","https://hz8g1ckzuq.cognition.run/","en-US,en;q=0.9,ko-KR;q=0.8,ko;q=0.7,es-US;q=0.6,es;q=0.5","gloxujcy2mbsemd","46","[""White""]","No","Female","3051076.1999999993","2938","","","{""product_choice"":""C""}","choice","dct","repulsion_1","2","washing machines","null","null","null","null","null","null","1","30","40","25","100","90","100","Average lifespan","Energy savings","",""
"","","","","","choice_trial_setup","html-keyboard-response","122","2971207","0.0-5.0-0.19","183","1","2025-04-14 14:36:39","bb671e3ae32f654b8954ea4c4635f915","","Mozilla/5.0 (Windows NT 10.0; Win64; x64) AppleWebKit/537.36 (KHTML, like Gecko) Chrome/135.0.0.0 Safari/537.36","WebKit","Chrome","135.0.0.0","Windows","10.0","https://hz8g1ckzuq.cognition.run/","en-US,en;q=0.9,ko-KR;q=0.8,ko;q=0.7,es-US;q=0.6,es;q=0.5","gloxujcy2mbsemd","46","[""White""]","No","Female","3051076.1999999993","null","","<p></p>","null","choice","tdc","attraction_2","2","televisions","null","null","null","null","null","null","2","","","","","","","","","",""
"","","","","","choice_trial","survey-html-form","123","2973594","0.0-5.0-1.19","183","1","2025-04-14 14:36:39","bb671e3ae32f654b8954ea4c4635f915","","Mozilla/5.0 (Windows NT 10.0; Win64; x64) AppleWebKit/537.36 (KHTML, like Gecko) Chrome/135.0.0.0 Safari/537.36","WebKit","Chrome","135.0.0.0","Windows","10.0","https://hz8g1ckzuq.cognition.run/","en-US,en;q=0.9,ko-KR;q=0.8,ko;q=0.7,es-US;q=0.6,es;q=0.5","gloxujcy2mbsemd","46","[""White""]","No","Female","3051076.1999999993","2382","","","{""product_choice"":""C""}","choice","tdc","attraction_2","2","televisions","null","null","null","null","null","null","2","50","60","40","60","50","60","Screen size","Average lifespan","",""
"","","","","","choice_trial_setup","html-keyboard-response","124","2973900","0.0-5.0-0.20","183","1","2025-04-14 14:36:39","bb671e3ae32f654b8954ea4c4635f915","","Mozilla/5.0 (Windows NT 10.0; Win64; x64) AppleWebKit/537.36 (KHTML, like Gecko) Chrome/135.0.0.0 Safari/537.36","WebKit","Chrome","135.0.0.0","Windows","10.0","https://hz8g1ckzuq.cognition.run/","en-US,en;q=0.9,ko-KR;q=0.8,ko;q=0.7,es-US;q=0.6,es;q=0.5","gloxujcy2mbsemd","46","[""White""]","No","Female","3051076.1999999993","null","","<p></p>","null","choice","ctd","repulsion_2","2","televisions","null","null","null","null","null","null","1","","","","","","","","","",""
"","","","","","choice_trial","survey-html-form","125","2976138","0.0-5.0-1.20","183","1","2025-04-14 14:36:39","bb671e3ae32f654b8954ea4c4635f915","","Mozilla/5.0 (Windows NT 10.0; Win64; x64) AppleWebKit/537.36 (KHTML, like Gecko) Chrome/135.0.0.0 Safari/537.36","WebKit","Chrome","135.0.0.0","Windows","10.0","https://hz8g1ckzuq.cognition.run/","en-US,en;q=0.9,ko-KR;q=0.8,ko;q=0.7,es-US;q=0.6,es;q=0.5","gloxujcy2mbsemd","46","[""White""]","No","Female","3051076.1999999993","2232","","","{""product_choice"":""B""}","choice","ctd","repulsion_2","2","televisions","null","null","null","null","null","null","1","30","40","20","100","90","100","Screen size","Average lifespan","",""
"","","","","","choice_trial_setup","html-keyboard-response","126","2976444","0.0-5.0-0.21","183","1","2025-04-14 14:36:39","bb671e3ae32f654b8954ea4c4635f915","","Mozilla/5.0 (Windows NT 10.0; Win64; x64) AppleWebKit/537.36 (KHTML, like Gecko) Chrome/135.0.0.0 Safari/537.36","WebKit","Chrome","135.0.0.0","Windows","10.0","https://hz8g1ckzuq.cognition.run/","en-US,en;q=0.9,ko-KR;q=0.8,ko;q=0.7,es-US;q=0.6,es;q=0.5","gloxujcy2mbsemd","46","[""White""]","No","Female","3051076.1999999993","null","","<p></p>","null","choice","wwb","catch","null","televisions","55","95","25","5","10","15","2","","","","","","","","","",""
"","","","","","choice_trial","survey-html-form","127","2978514","0.0-5.0-1.21","183","1","2025-04-14 14:36:39","bb671e3ae32f654b8954ea4c4635f915","","Mozilla/5.0 (Windows NT 10.0; Win64; x64) AppleWebKit/537.36 (KHTML, like Gecko) Chrome/135.0.0.0 Safari/537.36","WebKit","Chrome","135.0.0.0","Windows","10.0","https://hz8g1ckzuq.cognition.run/","en-US,en;q=0.9,ko-KR;q=0.8,ko;q=0.7,es-US;q=0.6,es;q=0.5","gloxujcy2mbsemd","46","[""White""]","No","Female","3051076.1999999993","2054","","","{""product_choice"":""C""}","choice","wwb","catch","null","televisions","55","95","25","5","10","15","2","null","null","null","null","null","null","Screen size","Average lifespan","",""
"","","","","","choice_trial_setup","html-keyboard-response","128","2978820","0.0-5.0-0.22","183","1","2025-04-14 14:36:39","bb671e3ae32f654b8954ea4c4635f915","","Mozilla/5.0 (Windows NT 10.0; Win64; x64) AppleWebKit/537.36 (KHTML, like Gecko) Chrome/135.0.0.0 Safari/537.36","WebKit","Chrome","135.0.0.0","Windows","10.0","https://hz8g1ckzuq.cognition.run/","en-US,en;q=0.9,ko-KR;q=0.8,ko;q=0.7,es-US;q=0.6,es;q=0.5","gloxujcy2mbsemd","46","[""White""]","No","Female","3051076.1999999993","null","","<p></p>","null","choice","dtc","attraction_2","2","washing machines","null","null","null","null","null","null","1","","","","","","","","","",""
"","","","","","choice_trial","survey-html-form","129","2980730","0.0-5.0-1.22","183","1","2025-04-14 14:36:39","bb671e3ae32f654b8954ea4c4635f915","","Mozilla/5.0 (Windows NT 10.0; Win64; x64) AppleWebKit/537.36 (KHTML, like Gecko) Chrome/135.0.0.0 Safari/537.36","WebKit","Chrome","135.0.0.0","Windows","10.0","https://hz8g1ckzuq.cognition.run/","en-US,en;q=0.9,ko-KR;q=0.8,ko;q=0.7,es-US;q=0.6,es;q=0.5","gloxujcy2mbsemd","46","[""White""]","No","Female","3051076.1999999993","1895","","","{""product_choice"":""B""}","choice","dtc","attraction_2","2","washing machines","null","null","null","null","null","null","1","50","60","40","60","50","60","Average lifespan","Energy savings","",""
"","","","","","choice_trial_setup","html-keyboard-response","130","2981035","0.0-5.0-0.23","183","1","2025-04-14 14:36:39","bb671e3ae32f654b8954ea4c4635f915","","Mozilla/5.0 (Windows NT 10.0; Win64; x64) AppleWebKit/537.36 (KHTML, like Gecko) Chrome/135.0.0.0 Safari/537.36","WebKit","Chrome","135.0.0.0","Windows","10.0","https://hz8g1ckzuq.cognition.run/","en-US,en;q=0.9,ko-KR;q=0.8,ko;q=0.7,es-US;q=0.6,es;q=0.5","gloxujcy2mbsemd","46","[""White""]","No","Female","3051076.1999999993","null","","<p></p>","null","choice","cdt","attraction_2","1","laptops","null","null","null","null","null","null","1","","","","","","","","","",""
"","","","","","choice_trial","survey-html-form","131","2983625","0.0-5.0-1.23","183","1","2025-04-14 14:36:39","bb671e3ae32f654b8954ea4c4635f915","","Mozilla/5.0 (Windows NT 10.0; Win64; x64) AppleWebKit/537.36 (KHTML, like Gecko) Chrome/135.0.0.0 Safari/537.36","WebKit","Chrome","135.0.0.0","Windows","10.0","https://hz8g1ckzuq.cognition.run/","en-US,en;q=0.9,ko-KR;q=0.8,ko;q=0.7,es-US;q=0.6,es;q=0.5","gloxujcy2mbsemd","46","[""White""]","No","Female","3051076.1999999993","2584","","","{""product_choice"":""A""}","choice","cdt","attraction_2","1","laptops","null","null","null","null","null","null","1","60","50","60","50","60","40","Processing speed","Memory (RAM)","",""
"","","","","","choice_trial_setup","html-keyboard-response","132","2983936","0.0-5.0-0.24","183","1","2025-04-14 14:36:39","bb671e3ae32f654b8954ea4c4635f915","","Mozilla/5.0 (Windows NT 10.0; Win64; x64) AppleWebKit/537.36 (KHTML, like Gecko) Chrome/135.0.0.0 Safari/537.36","WebKit","Chrome","135.0.0.0","Windows","10.0","https://hz8g1ckzuq.cognition.run/","en-US,en;q=0.9,ko-KR;q=0.8,ko;q=0.7,es-US;q=0.6,es;q=0.5","gloxujcy2mbsemd","46","[""White""]","No","Female","3051076.1999999993","null","","<p></p>","null","choice","cdt","repulsion_1","1","washing machines","null","null","null","null","null","null","2","","","","","","","","","",""
"","","","","","choice_trial","survey-html-form","133","2985851","0.0-5.0-1.24","183","1","2025-04-14 14:36:39","bb671e3ae32f654b8954ea4c4635f915","","Mozilla/5.0 (Windows NT 10.0; Win64; x64) AppleWebKit/537.36 (KHTML, like Gecko) Chrome/135.0.0.0 Safari/537.36","WebKit","Chrome","135.0.0.0","Windows","10.0","https://hz8g1ckzuq.cognition.run/","en-US,en;q=0.9,ko-KR;q=0.8,ko;q=0.7,es-US;q=0.6,es;q=0.5","gloxujcy2mbsemd","46","[""White""]","No","Female","3051076.1999999993","1908","","","{""product_choice"":""C""}","choice","cdt","repulsion_1","1","washing machines","null","null","null","null","null","null","2","100","90","100","30","40","25","Average lifespan","Energy savings","",""
"","","","","","choice_trial_setup","html-keyboard-response","134","2986157","0.0-5.0-0.25","183","1","2025-04-14 14:36:39","bb671e3ae32f654b8954ea4c4635f915","","Mozilla/5.0 (Windows NT 10.0; Win64; x64) AppleWebKit/537.36 (KHTML, like Gecko) Chrome/135.0.0.0 Safari/537.36","WebKit","Chrome","135.0.0.0","Windows","10.0","https://hz8g1ckzuq.cognition.run/","en-US,en;q=0.9,ko-KR;q=0.8,ko;q=0.7,es-US;q=0.6,es;q=0.5","gloxujcy2mbsemd","46","[""White""]","No","Female","3051076.1999999993","null","","<p></p>","null","choice","ctd","repulsion_1","1","laptops","null","null","null","null","null","null","1","","","","","","","","","",""
"","","","","","choice_trial","survey-html-form","135","2988074","0.0-5.0-1.25","183","1","2025-04-14 14:36:39","bb671e3ae32f654b8954ea4c4635f915","","Mozilla/5.0 (Windows NT 10.0; Win64; x64) AppleWebKit/537.36 (KHTML, like Gecko) Chrome/135.0.0.0 Safari/537.36","WebKit","Chrome","135.0.0.0","Windows","10.0","https://hz8g1ckzuq.cognition.run/","en-US,en;q=0.9,ko-KR;q=0.8,ko;q=0.7,es-US;q=0.6,es;q=0.5","gloxujcy2mbsemd","46","[""White""]","No","Female","3051076.1999999993","1909","","","{""product_choice"":""B""}","choice","ctd","repulsion_1","1","laptops","null","null","null","null","null","null","1","100","90","100","30","40","25","Processing speed","Memory (RAM)","",""
"","","","","","choice_trial_setup","html-keyboard-response","136","2988380","0.0-5.0-0.26","183","1","2025-04-14 14:36:39","bb671e3ae32f654b8954ea4c4635f915","","Mozilla/5.0 (Windows NT 10.0; Win64; x64) AppleWebKit/537.36 (KHTML, like Gecko) Chrome/135.0.0.0 Safari/537.36","WebKit","Chrome","135.0.0.0","Windows","10.0","https://hz8g1ckzuq.cognition.run/","en-US,en;q=0.9,ko-KR;q=0.8,ko;q=0.7,es-US;q=0.6,es;q=0.5","gloxujcy2mbsemd","46","[""White""]","No","Female","3051076.1999999993","null","","<p></p>","null","choice","bww","catch","null","washing machines","70","65","45","40","20","40","2","","","","","","","","","",""
"","","","","","choice_trial","survey-html-form","137","2990962","0.0-5.0-1.26","183","1","2025-04-14 14:36:39","bb671e3ae32f654b8954ea4c4635f915","","Mozilla/5.0 (Windows NT 10.0; Win64; x64) AppleWebKit/537.36 (KHTML, like Gecko) Chrome/135.0.0.0 Safari/537.36","WebKit","Chrome","135.0.0.0","Windows","10.0","https://hz8g1ckzuq.cognition.run/","en-US,en;q=0.9,ko-KR;q=0.8,ko;q=0.7,es-US;q=0.6,es;q=0.5","gloxujcy2mbsemd","46","[""White""]","No","Female","3051076.1999999993","2576","","","{""product_choice"":""A""}","choice","bww","catch","null","washing machines","70","65","45","40","20","40","2","null","null","null","null","null","null","Average lifespan","Energy savings","",""
"","","","","","choice_trial_setup","html-keyboard-response","138","2991268","0.0-5.0-0.27","183","1","2025-04-14 14:36:39","bb671e3ae32f654b8954ea4c4635f915","","Mozilla/5.0 (Windows NT 10.0; Win64; x64) AppleWebKit/537.36 (KHTML, like Gecko) Chrome/135.0.0.0 Safari/537.36","WebKit","Chrome","135.0.0.0","Windows","10.0","https://hz8g1ckzuq.cognition.run/","en-US,en;q=0.9,ko-KR;q=0.8,ko;q=0.7,es-US;q=0.6,es;q=0.5","gloxujcy2mbsemd","46","[""White""]","No","Female","3051076.1999999993","null","","<p></p>","null","choice","cdt","repulsion_1","1","televisions","null","null","null","null","null","null","1","","","","","","","","","",""
"","","","","","choice_trial","survey-html-form","139","2993641","0.0-5.0-1.27","183","1","2025-04-14 14:36:39","bb671e3ae32f654b8954ea4c4635f915","","Mozilla/5.0 (Windows NT 10.0; Win64; x64) AppleWebKit/537.36 (KHTML, like Gecko) Chrome/135.0.0.0 Safari/537.36","WebKit","Chrome","135.0.0.0","Windows","10.0","https://hz8g1ckzuq.cognition.run/","en-US,en;q=0.9,ko-KR;q=0.8,ko;q=0.7,es-US;q=0.6,es;q=0.5","gloxujcy2mbsemd","46","[""White""]","No","Female","3051076.1999999993","2361","","","{""product_choice"":""A""}","choice","cdt","repulsion_1","1","televisions","null","null","null","null","null","null","1","100","90","100","30","40","25","Screen size","Average lifespan","",""
"","","","","","choice_trial_setup","html-keyboard-response","140","2993948","0.0-5.0-0.28","183","1","2025-04-14 14:36:39","bb671e3ae32f654b8954ea4c4635f915","","Mozilla/5.0 (Windows NT 10.0; Win64; x64) AppleWebKit/537.36 (KHTML, like Gecko) Chrome/135.0.0.0 Safari/537.36","WebKit","Chrome","135.0.0.0","Windows","10.0","https://hz8g1ckzuq.cognition.run/","en-US,en;q=0.9,ko-KR;q=0.8,ko;q=0.7,es-US;q=0.6,es;q=0.5","gloxujcy2mbsemd","46","[""White""]","No","Female","3051076.1999999993","null","","<p></p>","null","choice","wbw","catch","null","laptops","65","95","40","20","15","15","2","","","","","","","","","",""
"","","","","","choice_trial","survey-html-form","141","2995682","0.0-5.0-1.28","183","1","2025-04-14 14:36:39","bb671e3ae32f654b8954ea4c4635f915","","Mozilla/5.0 (Windows NT 10.0; Win64; x64) AppleWebKit/537.36 (KHTML, like Gecko) Chrome/135.0.0.0 Safari/537.36","WebKit","Chrome","135.0.0.0","Windows","10.0","https://hz8g1ckzuq.cognition.run/","en-US,en;q=0.9,ko-KR;q=0.8,ko;q=0.7,es-US;q=0.6,es;q=0.5","gloxujcy2mbsemd","46","[""White""]","No","Female","3051076.1999999993","1719","","","{""product_choice"":""B""}","choice","wbw","catch","null","laptops","65","95","40","20","15","15","2","null","null","null","null","null","null","Processing speed","Memory (RAM)","",""
"","","","","","choice_trial_setup","html-keyboard-response","142","2995988","0.0-5.0-0.29","183","1","2025-04-14 14:36:39","bb671e3ae32f654b8954ea4c4635f915","","Mozilla/5.0 (Windows NT 10.0; Win64; x64) AppleWebKit/537.36 (KHTML, like Gecko) Chrome/135.0.0.0 Safari/537.36","WebKit","Chrome","135.0.0.0","Windows","10.0","https://hz8g1ckzuq.cognition.run/","en-US,en;q=0.9,ko-KR;q=0.8,ko;q=0.7,es-US;q=0.6,es;q=0.5","gloxujcy2mbsemd","46","[""White""]","No","Female","3051076.1999999993","null","","<p></p>","null","choice","tdc","attraction_1","1","washing machines","null","null","null","null","null","null","2","","","","","","","","","",""
"","","","","","choice_trial","survey-html-form","143","2997970","0.0-5.0-1.29","183","1","2025-04-14 14:36:39","bb671e3ae32f654b8954ea4c4635f915","","Mozilla/5.0 (Windows NT 10.0; Win64; x64) AppleWebKit/537.36 (KHTML, like Gecko) Chrome/135.0.0.0 Safari/537.36","WebKit","Chrome","135.0.0.0","Windows","10.0","https://hz8g1ckzuq.cognition.run/","en-US,en;q=0.9,ko-KR;q=0.8,ko;q=0.7,es-US;q=0.6,es;q=0.5","gloxujcy2mbsemd","46","[""White""]","No","Female","3051076.1999999993","1966","","","{""product_choice"":""B""}","choice","tdc","attraction_1","1","washing machines","null","null","null","null","null","null","2","60","50","60","50","60","45","Average lifespan","Energy savings","",""
"","","","","","choice_trial_setup","html-keyboard-response","144","2998281","0.0-5.0-0.30","183","1","2025-04-14 14:36:39","bb671e3ae32f654b8954ea4c4635f915","","Mozilla/5.0 (Windows NT 10.0; Win64; x64) AppleWebKit/537.36 (KHTML, like Gecko) Chrome/135.0.0.0 Safari/537.36","WebKit","Chrome","135.0.0.0","Windows","10.0","https://hz8g1ckzuq.cognition.run/","en-US,en;q=0.9,ko-KR;q=0.8,ko;q=0.7,es-US;q=0.6,es;q=0.5","gloxujcy2mbsemd","46","[""White""]","No","Female","3051076.1999999993","null","","<p></p>","null","choice","wwb","catch","null","microwave ovens","80","80","45","50","40","40","1","","","","","","","","","",""
"","","","","","choice_trial","survey-html-form","145","2999930","0.0-5.0-1.30","183","1","2025-04-14 14:36:39","bb671e3ae32f654b8954ea4c4635f915","","Mozilla/5.0 (Windows NT 10.0; Win64; x64) AppleWebKit/537.36 (KHTML, like Gecko) Chrome/135.0.0.0 Safari/537.36","WebKit","Chrome","135.0.0.0","Windows","10.0","https://hz8g1ckzuq.cognition.run/","en-US,en;q=0.9,ko-KR;q=0.8,ko;q=0.7,es-US;q=0.6,es;q=0.5","gloxujcy2mbsemd","46","[""White""]","No","Female","3051076.1999999993","1641","","","{""product_choice"":""C""}","choice","wwb","catch","null","microwave ovens","80","80","45","50","40","40","1","null","null","null","null","null","null","Warranty","Cooking power","",""
"","","","","","choice_trial_setup","html-keyboard-response","146","3000238","0.0-5.0-0.31","183","1","2025-04-14 14:36:39","bb671e3ae32f654b8954ea4c4635f915","","Mozilla/5.0 (Windows NT 10.0; Win64; x64) AppleWebKit/537.36 (KHTML, like Gecko) Chrome/135.0.0.0 Safari/537.36","WebKit","Chrome","135.0.0.0","Windows","10.0","https://hz8g1ckzuq.cognition.run/","en-US,en;q=0.9,ko-KR;q=0.8,ko;q=0.7,es-US;q=0.6,es;q=0.5","gloxujcy2mbsemd","46","[""White""]","No","Female","3051076.1999999993","null","","<p></p>","null","choice","wwb","catch","null","microwave ovens","80","55","25","40","15","25","1","","","","","","","","","",""
