"success","timeout","failed_images","failed_audio","failed_video","screen_id","trial_type","trial_index","time_elapsed","internal_node_id","run_id","condition","recorded_at","source_code_version","ip","user_agent","device","browser","browser_version","platform","platform_version","referer","accept_language","ppt_id","age","race","ethnicity","gender","exp_duration","rt","view_history","stimulus","response","phase","order","effect","t_high","category","d1_best","d2_best","d1_worst1","d2_worst1","d1_worst2","d2_worst2","first_dim","d1_t","d1_c","d1_d","d2_t","d2_c","d2_d","d1_name","d2_name","strategy_response","question_order"
"true","false","[]","[]","[]","img preload","preload","0","1419","0.0-0.0","191","1","2025-04-14 14:43:20","bb671e3ae32f654b8954ea4c4635f915","","Mozilla/5.0 (Windows NT 10.0; Win64; x64; rv:137.0) Gecko/20100101 Firefox/137.0","","Firefox","137.0","Windows","10.0","https://hz8g1ckzuq.cognition.run/","en-US,en;q=0.5","1hd956yjxpd6l41","33","[""White""]","No","Male","1591653","","","","","","","","","","","","","","","","","","","","","","","","","",""
"true","","","","","","fullscreen","1","5582","0.0-1.0","191","1","2025-04-14 14:43:20","bb671e3ae32f654b8954ea4c4635f915","","Mozilla/5.0 (Windows NT 10.0; Win64; x64; rv:137.0) Gecko/20100101 Firefox/137.0","","Firefox","137.0","Windows","10.0","https://hz8g1ckzuq.cognition.run/","en-US,en;q=0.5","1hd956yjxpd6l41","33","[""White""]","No","Male","1591653","3132","","","","","","","","","","","","","","","","","","","","","","","","",""
"","","","","","","instructions","2","55494","0.0-2.0","191","1","2025-04-14 14:43:20","bb671e3ae32f654b8954ea4c4635f915","","Mozilla/5.0 (Windows NT 10.0; Win64; x64; rv:137.0) Gecko/20100101 Firefox/137.0","","Firefox","137.0","Windows","10.0","https://hz8g1ckzuq.cognition.run/","en-US,en;q=0.5","1hd956yjxpd6l41","33","[""White""]","No","Male","1591653","49910","[{""page_index"":0,""viewing_time"":1497},{""page_index"":1,""viewing_time"":3146},{""page_index"":2,""viewing_time"":4131},{""page_index"":3,""viewing_time"":6452},{""page_index"":4,""viewing_time"":8111},{""page_index"":5,""viewing_time"":3697},{""page_index"":6,""viewing_time"":3243},{""page_index"":7,""viewing_time"":11848},{""page_index"":8,""viewing_time"":4675},{""page_index"":9,""viewing_time"":3110}]","","","","","","","","","","","","","","","","","","","","","","","",""
"","","","","","rating_trial_setup","html-keyboard-response","3","55804","0.0-3.0-0.0","191","1","2025-04-14 14:43:20","bb671e3ae32f654b8954ea4c4635f915","","Mozilla/5.0 (Windows NT 10.0; Win64; x64; rv:137.0) Gecko/20100101 Firefox/137.0","","Firefox","137.0","Windows","10.0","https://hz8g1ckzuq.cognition.run/","en-US,en;q=0.5","1hd956yjxpd6l41","33","[""White""]","No","Male","1591653","null","","<p></p>","null","rating","tcd","attraction_1","2","laptops","null","null","null","null","null","null","2","","","","","","","","","",""
"","","","","","rating_trial","survey-html-form","4","100625","0.0-3.0-1.0","191","1","2025-04-14 14:43:20","bb671e3ae32f654b8954ea4c4635f915","","Mozilla/5.0 (Windows NT 10.0; Win64; x64; rv:137.0) Gecko/20100101 Firefox/137.0","","Firefox","137.0","Windows","10.0","https://hz8g1ckzuq.cognition.run/","en-US,en;q=0.5","1hd956yjxpd6l41","33","[""White""]","No","Male","1591653","44820","","","{""price_1"":""380"",""price_2"":""420"",""price_3"":""350""}","rating","tcd","attraction_1","2","laptops","null","null","null","null","null","null","2","50","60","45","60","50","60","Processing speed","Memory (RAM)","",""
"","","","","","rating_trial_setup","html-keyboard-response","5","100950","0.0-3.0-0.1","191","1","2025-04-14 14:43:20","bb671e3ae32f654b8954ea4c4635f915","","Mozilla/5.0 (Windows NT 10.0; Win64; x64; rv:137.0) Gecko/20100101 Firefox/137.0","","Firefox","137.0","Windows","10.0","https://hz8g1ckzuq.cognition.run/","en-US,en;q=0.5","1hd956yjxpd6l41","33","[""White""]","No","Male","1591653","null","","<p></p>","null","rating","wwb","catch","null","microwave ovens","70","60","10","5","20","20","2","","","","","","","","","",""
"","","","","","rating_trial","survey-html-form","6","138384","0.0-3.0-1.1","191","1","2025-04-14 14:43:20","bb671e3ae32f654b8954ea4c4635f915","","Mozilla/5.0 (Windows NT 10.0; Win64; x64; rv:137.0) Gecko/20100101 Firefox/137.0","","Firefox","137.0","Windows","10.0","https://hz8g1ckzuq.cognition.run/","en-US,en;q=0.5","1hd956yjxpd6l41","33","[""White""]","No","Male","1591653","37432","","","{""price_1"":""40"",""price_2"":""60"",""price_3"":""145""}","rating","wwb","catch","null","microwave ovens","70","60","10","5","20","20","2","null","null","null","null","null","null","Warranty","Cooking power","",""
"","","","","","rating_trial_setup","html-keyboard-response","7","138699","0.0-3.0-0.2","191","1","2025-04-14 14:43:20","bb671e3ae32f654b8954ea4c4635f915","","Mozilla/5.0 (Windows NT 10.0; Win64; x64; rv:137.0) Gecko/20100101 Firefox/137.0","","Firefox","137.0","Windows","10.0","https://hz8g1ckzuq.cognition.run/","en-US,en;q=0.5","1hd956yjxpd6l41","33","[""White""]","No","Male","1591653","null","","<p></p>","null","rating","dct","repulsion_2","1","microwave ovens","null","null","null","null","null","null","2","","","","","","","","","",""
"","","","","","rating_trial","survey-html-form","8","165659","0.0-3.0-1.2","191","1","2025-04-14 14:43:20","bb671e3ae32f654b8954ea4c4635f915","","Mozilla/5.0 (Windows NT 10.0; Win64; x64; rv:137.0) Gecko/20100101 Firefox/137.0","","Firefox","137.0","Windows","10.0","https://hz8g1ckzuq.cognition.run/","en-US,en;q=0.5","1hd956yjxpd6l41","33","[""White""]","No","Male","1591653","26960","","","{""price_1"":""110"",""price_2"":""115"",""price_3"":""120""}","rating","dct","repulsion_2","1","microwave ovens","null","null","null","null","null","null","2","100","90","100","30","40","20","Warranty","Cooking power","",""
"","","","","","rating_trial_setup","html-keyboard-response","9","165968","0.0-3.0-0.3","191","1","2025-04-14 14:43:20","bb671e3ae32f654b8954ea4c4635f915","","Mozilla/5.0 (Windows NT 10.0; Win64; x64; rv:137.0) Gecko/20100101 Firefox/137.0","","Firefox","137.0","Windows","10.0","https://hz8g1ckzuq.cognition.run/","en-US,en;q=0.5","1hd956yjxpd6l41","33","[""White""]","No","Male","1591653","null","","<p></p>","null","rating","ctd","attraction_1","1","laptops","null","null","null","null","null","null","2","","","","","","","","","",""
"","","","","","rating_trial","survey-html-form","10","198102","0.0-3.0-1.3","191","1","2025-04-14 14:43:20","bb671e3ae32f654b8954ea4c4635f915","","Mozilla/5.0 (Windows NT 10.0; Win64; x64; rv:137.0) Gecko/20100101 Firefox/137.0","","Firefox","137.0","Windows","10.0","https://hz8g1ckzuq.cognition.run/","en-US,en;q=0.5","1hd956yjxpd6l41","33","[""White""]","No","Male","1591653","32133","","","{""price_1"":""380"",""price_2"":""400"",""price_3"":""390""}","rating","ctd","attraction_1","1","laptops","null","null","null","null","null","null","2","60","50","60","50","60","45","Processing speed","Memory (RAM)","",""
"","","","","","rating_trial_setup","html-keyboard-response","11","198410","0.0-3.0-0.4","191","1","2025-04-14 14:43:20","bb671e3ae32f654b8954ea4c4635f915","","Mozilla/5.0 (Windows NT 10.0; Win64; x64; rv:137.0) Gecko/20100101 Firefox/137.0","","Firefox","137.0","Windows","10.0","https://hz8g1ckzuq.cognition.run/","en-US,en;q=0.5","1hd956yjxpd6l41","33","[""White""]","No","Male","1591653","null","","<p></p>","null","rating","dtc","repulsion_1","2","televisions","null","null","null","null","null","null","1","","","","","","","","","",""
"","","","","","rating_trial","survey-html-form","12","224686","0.0-3.0-1.4","191","1","2025-04-14 14:43:20","bb671e3ae32f654b8954ea4c4635f915","","Mozilla/5.0 (Windows NT 10.0; Win64; x64; rv:137.0) Gecko/20100101 Firefox/137.0","","Firefox","137.0","Windows","10.0","https://hz8g1ckzuq.cognition.run/","en-US,en;q=0.5","1hd956yjxpd6l41","33","[""White""]","No","Male","1591653","26275","","","{""price_1"":""240"",""price_2"":""250"",""price_3"":""320""}","rating","dtc","repulsion_1","2","televisions","null","null","null","null","null","null","1","30","40","25","100","90","100","Screen size","Average lifespan","",""
"","","","","","rating_trial_setup","html-keyboard-response","13","224990","0.0-3.0-0.5","191","1","2025-04-14 14:43:20","bb671e3ae32f654b8954ea4c4635f915","","Mozilla/5.0 (Windows NT 10.0; Win64; x64; rv:137.0) Gecko/20100101 Firefox/137.0","","Firefox","137.0","Windows","10.0","https://hz8g1ckzuq.cognition.run/","en-US,en;q=0.5","1hd956yjxpd6l41","33","[""White""]","No","Male","1591653","null","","<p></p>","null","rating","dtc","attraction_1","1","televisions","null","null","null","null","null","null","2","","","","","","","","","",""
"","","","","","rating_trial","survey-html-form","14","261893","0.0-3.0-1.5","191","1","2025-04-14 14:43:20","bb671e3ae32f654b8954ea4c4635f915","","Mozilla/5.0 (Windows NT 10.0; Win64; x64; rv:137.0) Gecko/20100101 Firefox/137.0","","Firefox","137.0","Windows","10.0","https://hz8g1ckzuq.cognition.run/","en-US,en;q=0.5","1hd956yjxpd6l41","33","[""White""]","No","Male","1591653","36901","","","{""price_1"":""320"",""price_2"":""330"",""price_3"":""300""}","rating","dtc","attraction_1","1","televisions","null","null","null","null","null","null","2","60","50","60","50","60","45","Screen size","Average lifespan","",""
"","","","","","rating_trial_setup","html-keyboard-response","15","262205","0.0-3.0-0.6","191","1","2025-04-14 14:43:20","bb671e3ae32f654b8954ea4c4635f915","","Mozilla/5.0 (Windows NT 10.0; Win64; x64; rv:137.0) Gecko/20100101 Firefox/137.0","","Firefox","137.0","Windows","10.0","https://hz8g1ckzuq.cognition.run/","en-US,en;q=0.5","1hd956yjxpd6l41","33","[""White""]","No","Male","1591653","null","","<p></p>","null","rating","dtc","attraction_1","1","microwave ovens","null","null","null","null","null","null","2","","","","","","","","","",""
"","","","","","rating_trial","survey-html-form","16","290608","0.0-3.0-1.6","191","1","2025-04-14 14:43:20","bb671e3ae32f654b8954ea4c4635f915","","Mozilla/5.0 (Windows NT 10.0; Win64; x64; rv:137.0) Gecko/20100101 Firefox/137.0","","Firefox","137.0","Windows","10.0","https://hz8g1ckzuq.cognition.run/","en-US,en;q=0.5","1hd956yjxpd6l41","33","[""White""]","No","Male","1591653","28402","","","{""price_1"":""120"",""price_2"":""130"",""price_3"":""140""}","rating","dtc","attraction_1","1","microwave ovens","null","null","null","null","null","null","2","60","50","60","50","60","45","Warranty","Cooking power","",""
"","","","","","rating_trial_setup","html-keyboard-response","17","290925","0.0-3.0-0.7","191","1","2025-04-14 14:43:20","bb671e3ae32f654b8954ea4c4635f915","","Mozilla/5.0 (Windows NT 10.0; Win64; x64; rv:137.0) Gecko/20100101 Firefox/137.0","","Firefox","137.0","Windows","10.0","https://hz8g1ckzuq.cognition.run/","en-US,en;q=0.5","1hd956yjxpd6l41","33","[""White""]","No","Male","1591653","null","","<p></p>","null","rating","wwb","catch","null","washing machines","90","85","20","5","15","30","2","","","","","","","","","",""
"","","","","","rating_trial","survey-html-form","18","324779","0.0-3.0-1.7","191","1","2025-04-14 14:43:20","bb671e3ae32f654b8954ea4c4635f915","","Mozilla/5.0 (Windows NT 10.0; Win64; x64; rv:137.0) Gecko/20100101 Firefox/137.0","","Firefox","137.0","Windows","10.0","https://hz8g1ckzuq.cognition.run/","en-US,en;q=0.5","1hd956yjxpd6l41","33","[""White""]","No","Male","1591653","33851","","","{""price_1"":""400"",""price_2"":""390"",""price_3"":""980""}","rating","wwb","catch","null","washing machines","90","85","20","5","15","30","2","null","null","null","null","null","null","Average lifespan","Energy savings","",""
"","","","","","rating_trial_setup","html-keyboard-response","19","325095","0.0-3.0-0.8","191","1","2025-04-14 14:43:20","bb671e3ae32f654b8954ea4c4635f915","","Mozilla/5.0 (Windows NT 10.0; Win64; x64; rv:137.0) Gecko/20100101 Firefox/137.0","","Firefox","137.0","Windows","10.0","https://hz8g1ckzuq.cognition.run/","en-US,en;q=0.5","1hd956yjxpd6l41","33","[""White""]","No","Male","1591653","null","","<p></p>","null","rating","tdc","attraction_1","2","televisions","null","null","null","null","null","null","2","","","","","","","","","",""
"","","","","","rating_trial","survey-html-form","20","358912","0.0-3.0-1.8","191","1","2025-04-14 14:43:20","bb671e3ae32f654b8954ea4c4635f915","","Mozilla/5.0 (Windows NT 10.0; Win64; x64; rv:137.0) Gecko/20100101 Firefox/137.0","","Firefox","137.0","Windows","10.0","https://hz8g1ckzuq.cognition.run/","en-US,en;q=0.5","1hd956yjxpd6l41","33","[""White""]","No","Male","1591653","33815","","","{""price_1"":""390"",""price_2"":""370"",""price_3"":""400""}","rating","tdc","attraction_1","2","televisions","null","null","null","null","null","null","2","50","60","45","60","50","60","Screen size","Average lifespan","",""
"","","","","","rating_trial_setup","html-keyboard-response","21","359226","0.0-3.0-0.9","191","1","2025-04-14 14:43:20","bb671e3ae32f654b8954ea4c4635f915","","Mozilla/5.0 (Windows NT 10.0; Win64; x64; rv:137.0) Gecko/20100101 Firefox/137.0","","Firefox","137.0","Windows","10.0","https://hz8g1ckzuq.cognition.run/","en-US,en;q=0.5","1hd956yjxpd6l41","33","[""White""]","No","Male","1591653","null","","<p></p>","null","rating","wwb","catch","null","washing machines","80","75","10","35","50","35","1","","","","","","","","","",""
"","","","","","rating_trial","survey-html-form","22","375241","0.0-3.0-1.9","191","1","2025-04-14 14:43:20","bb671e3ae32f654b8954ea4c4635f915","","Mozilla/5.0 (Windows NT 10.0; Win64; x64; rv:137.0) Gecko/20100101 Firefox/137.0","","Firefox","137.0","Windows","10.0","https://hz8g1ckzuq.cognition.run/","en-US,en;q=0.5","1hd956yjxpd6l41","33","[""White""]","No","Male","1591653","16014","","","{""price_1"":""450"",""price_2"":""550"",""price_3"":""680""}","rating","wwb","catch","null","washing machines","80","75","10","35","50","35","1","null","null","null","null","null","null","Average lifespan","Energy savings","",""
"","","","","","rating_trial_setup","html-keyboard-response","23","375559","0.0-3.0-0.10","191","1","2025-04-14 14:43:20","bb671e3ae32f654b8954ea4c4635f915","","Mozilla/5.0 (Windows NT 10.0; Win64; x64; rv:137.0) Gecko/20100101 Firefox/137.0","","Firefox","137.0","Windows","10.0","https://hz8g1ckzuq.cognition.run/","en-US,en;q=0.5","1hd956yjxpd6l41","33","[""White""]","No","Male","1591653","null","","<p></p>","null","rating","tcd","attraction_2","1","microwave ovens","null","null","null","null","null","null","2","","","","","","","","","",""
"","","","","","rating_trial","survey-html-form","24","401933","0.0-3.0-1.10","191","1","2025-04-14 14:43:20","bb671e3ae32f654b8954ea4c4635f915","","Mozilla/5.0 (Windows NT 10.0; Win64; x64; rv:137.0) Gecko/20100101 Firefox/137.0","","Firefox","137.0","Windows","10.0","https://hz8g1ckzuq.cognition.run/","en-US,en;q=0.5","1hd956yjxpd6l41","33","[""White""]","No","Male","1591653","26372","","","{""price_1"":""140"",""price_2"":""150"",""price_3"":""135""}","rating","tcd","attraction_2","1","microwave ovens","null","null","null","null","null","null","2","60","50","60","50","60","40","Warranty","Cooking power","",""
"","","","","","rating_trial_setup","html-keyboard-response","25","402245","0.0-3.0-0.11","191","1","2025-04-14 14:43:20","bb671e3ae32f654b8954ea4c4635f915","","Mozilla/5.0 (Windows NT 10.0; Win64; x64; rv:137.0) Gecko/20100101 Firefox/137.0","","Firefox","137.0","Windows","10.0","https://hz8g1ckzuq.cognition.run/","en-US,en;q=0.5","1hd956yjxpd6l41","33","[""White""]","No","Male","1591653","null","","<p></p>","null","rating","cdt","repulsion_2","2","laptops","null","null","null","null","null","null","1","","","","","","","","","",""
"","","","","","rating_trial","survey-html-form","26","447626","0.0-3.0-1.11","191","1","2025-04-14 14:43:20","bb671e3ae32f654b8954ea4c4635f915","","Mozilla/5.0 (Windows NT 10.0; Win64; x64; rv:137.0) Gecko/20100101 Firefox/137.0","","Firefox","137.0","Windows","10.0","https://hz8g1ckzuq.cognition.run/","en-US,en;q=0.5","1hd956yjxpd6l41","33","[""White""]","No","Male","1591653","45380","","","{""price_1"":""450"",""price_2"":""360"",""price_3"":""370""}","rating","cdt","repulsion_2","2","laptops","null","null","null","null","null","null","1","30","40","20","100","90","100","Processing speed","Memory (RAM)","",""
"","","","","","rating_trial_setup","html-keyboard-response","27","447936","0.0-3.0-0.12","191","1","2025-04-14 14:43:20","bb671e3ae32f654b8954ea4c4635f915","","Mozilla/5.0 (Windows NT 10.0; Win64; x64; rv:137.0) Gecko/20100101 Firefox/137.0","","Firefox","137.0","Windows","10.0","https://hz8g1ckzuq.cognition.run/","en-US,en;q=0.5","1hd956yjxpd6l41","33","[""White""]","No","Male","1591653","null","","<p></p>","null","rating","dct","repulsion_2","1","washing machines","null","null","null","null","null","null","1","","","","","","","","","",""
"","","","","","rating_trial","survey-html-form","28","473240","0.0-3.0-1.12","191","1","2025-04-14 14:43:20","bb671e3ae32f654b8954ea4c4635f915","","Mozilla/5.0 (Windows NT 10.0; Win64; x64; rv:137.0) Gecko/20100101 Firefox/137.0","","Firefox","137.0","Windows","10.0","https://hz8g1ckzuq.cognition.run/","en-US,en;q=0.5","1hd956yjxpd6l41","33","[""White""]","No","Male","1591653","25304","","","{""price_1"":""700"",""price_2"":""800"",""price_3"":""750""}","rating","dct","repulsion_2","1","washing machines","null","null","null","null","null","null","1","100","90","100","30","40","20","Average lifespan","Energy savings","",""
"","","","","","rating_trial_setup","html-keyboard-response","29","473569","0.0-3.0-0.13","191","1","2025-04-14 14:43:20","bb671e3ae32f654b8954ea4c4635f915","","Mozilla/5.0 (Windows NT 10.0; Win64; x64; rv:137.0) Gecko/20100101 Firefox/137.0","","Firefox","137.0","Windows","10.0","https://hz8g1ckzuq.cognition.run/","en-US,en;q=0.5","1hd956yjxpd6l41","33","[""White""]","No","Male","1591653","null","","<p></p>","null","rating","tcd","attraction_2","2","televisions","null","null","null","null","null","null","2","","","","","","","","","",""
"","","","","","rating_trial","survey-html-form","30","507505","0.0-3.0-1.13","191","1","2025-04-14 14:43:20","bb671e3ae32f654b8954ea4c4635f915","","Mozilla/5.0 (Windows NT 10.0; Win64; x64; rv:137.0) Gecko/20100101 Firefox/137.0","","Firefox","137.0","Windows","10.0","https://hz8g1ckzuq.cognition.run/","en-US,en;q=0.5","1hd956yjxpd6l41","33","[""White""]","No","Male","1591653","33933","","","{""price_1"":""390"",""price_2"":""420"",""price_3"":""380""}","rating","tcd","attraction_2","2","televisions","null","null","null","null","null","null","2","50","60","40","60","50","60","Screen size","Average lifespan","",""
"","","","","","rating_trial_setup","html-keyboard-response","31","507810","0.0-3.0-0.14","191","1","2025-04-14 14:43:20","bb671e3ae32f654b8954ea4c4635f915","","Mozilla/5.0 (Windows NT 10.0; Win64; x64; rv:137.0) Gecko/20100101 Firefox/137.0","","Firefox","137.0","Windows","10.0","https://hz8g1ckzuq.cognition.run/","en-US,en;q=0.5","1hd956yjxpd6l41","33","[""White""]","No","Male","1591653","null","","<p></p>","null","rating","bww","catch","null","televisions","60","55","50","50","30","10","2","","","","","","","","","",""
"","","","","","rating_trial","survey-html-form","32","528069","0.0-3.0-1.14","191","1","2025-04-14 14:43:20","bb671e3ae32f654b8954ea4c4635f915","","Mozilla/5.0 (Windows NT 10.0; Win64; x64; rv:137.0) Gecko/20100101 Firefox/137.0","","Firefox","137.0","Windows","10.0","https://hz8g1ckzuq.cognition.run/","en-US,en;q=0.5","1hd956yjxpd6l41","33","[""White""]","No","Male","1591653","20257","","","{""price_1"":""390"",""price_2"":""370"",""price_3"":""180""}","rating","bww","catch","null","televisions","60","55","50","50","30","10","2","null","null","null","null","null","null","Screen size","Average lifespan","",""
"","","","","","rating_trial_setup","html-keyboard-response","33","528380","0.0-3.0-0.15","191","1","2025-04-14 14:43:20","bb671e3ae32f654b8954ea4c4635f915","","Mozilla/5.0 (Windows NT 10.0; Win64; x64; rv:137.0) Gecko/20100101 Firefox/137.0","","Firefox","137.0","Windows","10.0","https://hz8g1ckzuq.cognition.run/","en-US,en;q=0.5","1hd956yjxpd6l41","33","[""White""]","No","Male","1591653","null","","<p></p>","null","rating","dct","repulsion_2","1","televisions","null","null","null","null","null","null","2","","","","","","","","","",""
"","","","","","rating_trial","survey-html-form","34","558039","0.0-3.0-1.15","191","1","2025-04-14 14:43:20","bb671e3ae32f654b8954ea4c4635f915","","Mozilla/5.0 (Windows NT 10.0; Win64; x64; rv:137.0) Gecko/20100101 Firefox/137.0","","Firefox","137.0","Windows","10.0","https://hz8g1ckzuq.cognition.run/","en-US,en;q=0.5","1hd956yjxpd6l41","33","[""White""]","No","Male","1591653","29656","","","{""price_1"":""640"",""price_2"":""680"",""price_3"":""700""}","rating","dct","repulsion_2","1","televisions","null","null","null","null","null","null","2","100","90","100","30","40","20","Screen size","Average lifespan","",""
"","","","","","rating_trial_setup","html-keyboard-response","35","558363","0.0-3.0-0.16","191","1","2025-04-14 14:43:20","bb671e3ae32f654b8954ea4c4635f915","","Mozilla/5.0 (Windows NT 10.0; Win64; x64; rv:137.0) Gecko/20100101 Firefox/137.0","","Firefox","137.0","Windows","10.0","https://hz8g1ckzuq.cognition.run/","en-US,en;q=0.5","1hd956yjxpd6l41","33","[""White""]","No","Male","1591653","null","","<p></p>","null","rating","ctd","repulsion_1","1","washing machines","null","null","null","null","null","null","2","","","","","","","","","",""
"","","","","","rating_trial","survey-html-form","36","582121","0.0-3.0-1.16","191","1","2025-04-14 14:43:20","bb671e3ae32f654b8954ea4c4635f915","","Mozilla/5.0 (Windows NT 10.0; Win64; x64; rv:137.0) Gecko/20100101 Firefox/137.0","","Firefox","137.0","Windows","10.0","https://hz8g1ckzuq.cognition.run/","en-US,en;q=0.5","1hd956yjxpd6l41","33","[""White""]","No","Male","1591653","23757","","","{""price_1"":""800"",""price_2"":""760"",""price_3"":""740""}","rating","ctd","repulsion_1","1","washing machines","null","null","null","null","null","null","2","100","90","100","30","40","25","Average lifespan","Energy savings","",""
"","","","","","rating_trial_setup","html-keyboard-response","37","582436","0.0-3.0-0.17","191","1","2025-04-14 14:43:20","bb671e3ae32f654b8954ea4c4635f915","","Mozilla/5.0 (Windows NT 10.0; Win64; x64; rv:137.0) Gecko/20100101 Firefox/137.0","","Firefox","137.0","Windows","10.0","https://hz8g1ckzuq.cognition.run/","en-US,en;q=0.5","1hd956yjxpd6l41","33","[""White""]","No","Male","1591653","null","","<p></p>","null","rating","tcd","repulsion_1","1","laptops","null","null","null","null","null","null","2","","","","","","","","","",""
"","","","","","rating_trial","survey-html-form","38","613496","0.0-3.0-1.17","191","1","2025-04-14 14:43:20","bb671e3ae32f654b8954ea4c4635f915","","Mozilla/5.0 (Windows NT 10.0; Win64; x64; rv:137.0) Gecko/20100101 Firefox/137.0","","Firefox","137.0","Windows","10.0","https://hz8g1ckzuq.cognition.run/","en-US,en;q=0.5","1hd956yjxpd6l41","33","[""White""]","No","Male","1591653","31059","","","{""price_1"":""900"",""price_2"":""850"",""price_3"":""830""}","rating","tcd","repulsion_1","1","laptops","null","null","null","null","null","null","2","100","90","100","30","40","25","Processing speed","Memory (RAM)","",""
"","","","","","rating_trial_setup","html-keyboard-response","39","613810","0.0-3.0-0.18","191","1","2025-04-14 14:43:20","bb671e3ae32f654b8954ea4c4635f915","","Mozilla/5.0 (Windows NT 10.0; Win64; x64; rv:137.0) Gecko/20100101 Firefox/137.0","","Firefox","137.0","Windows","10.0","https://hz8g1ckzuq.cognition.run/","en-US,en;q=0.5","1hd956yjxpd6l41","33","[""White""]","No","Male","1591653","null","","<p></p>","null","rating","tdc","attraction_2","2","microwave ovens","null","null","null","null","null","null","1","","","","","","","","","",""
"","","","","","rating_trial","survey-html-form","40","656296","0.0-3.0-1.18","191","1","2025-04-14 14:43:20","bb671e3ae32f654b8954ea4c4635f915","","Mozilla/5.0 (Windows NT 10.0; Win64; x64; rv:137.0) Gecko/20100101 Firefox/137.0","","Firefox","137.0","Windows","10.0","https://hz8g1ckzuq.cognition.run/","en-US,en;q=0.5","1hd956yjxpd6l41","33","[""White""]","No","Male","1591653","42486","","","{""price_1"":""180"",""price_2"":""160"",""price_3"":""150""}","rating","tdc","attraction_2","2","microwave ovens","null","null","null","null","null","null","1","50","60","40","60","50","60","Warranty","Cooking power","",""
"","","","","","rating_trial_setup","html-keyboard-response","41","656610","0.0-3.0-0.19","191","1","2025-04-14 14:43:20","bb671e3ae32f654b8954ea4c4635f915","","Mozilla/5.0 (Windows NT 10.0; Win64; x64; rv:137.0) Gecko/20100101 Firefox/137.0","","Firefox","137.0","Windows","10.0","https://hz8g1ckzuq.cognition.run/","en-US,en;q=0.5","1hd956yjxpd6l41","33","[""White""]","No","Male","1591653","null","","<p></p>","null","rating","bww","catch","null","laptops","75","50","45","45","35","20","1","","","","","","","","","",""
"","","","","","rating_trial","survey-html-form","42","682566","0.0-3.0-1.19","191","1","2025-04-14 14:43:20","bb671e3ae32f654b8954ea4c4635f915","","Mozilla/5.0 (Windows NT 10.0; Win64; x64; rv:137.0) Gecko/20100101 Firefox/137.0","","Firefox","137.0","Windows","10.0","https://hz8g1ckzuq.cognition.run/","en-US,en;q=0.5","1hd956yjxpd6l41","33","[""White""]","No","Male","1591653","25954","","","{""price_1"":""650"",""price_2"":""500"",""price_3"":""300""}","rating","bww","catch","null","laptops","75","50","45","45","35","20","1","null","null","null","null","null","null","Processing speed","Memory (RAM)","",""
"","","","","","rating_trial_setup","html-keyboard-response","43","682880","0.0-3.0-0.20","191","1","2025-04-14 14:43:20","bb671e3ae32f654b8954ea4c4635f915","","Mozilla/5.0 (Windows NT 10.0; Win64; x64; rv:137.0) Gecko/20100101 Firefox/137.0","","Firefox","137.0","Windows","10.0","https://hz8g1ckzuq.cognition.run/","en-US,en;q=0.5","1hd956yjxpd6l41","33","[""White""]","No","Male","1591653","null","","<p></p>","null","rating","tdc","attraction_1","2","microwave ovens","null","null","null","null","null","null","2","","","","","","","","","",""
"","","","","","rating_trial","survey-html-form","44","718312","0.0-3.0-1.20","191","1","2025-04-14 14:43:20","bb671e3ae32f654b8954ea4c4635f915","","Mozilla/5.0 (Windows NT 10.0; Win64; x64; rv:137.0) Gecko/20100101 Firefox/137.0","","Firefox","137.0","Windows","10.0","https://hz8g1ckzuq.cognition.run/","en-US,en;q=0.5","1hd956yjxpd6l41","33","[""White""]","No","Male","1591653","35431","","","{""price_1"":""170"",""price_2"":""160"",""price_3"":""150""}","rating","tdc","attraction_1","2","microwave ovens","null","null","null","null","null","null","2","50","60","45","60","50","60","Warranty","Cooking power","",""
"","","","","","rating_trial_setup","html-keyboard-response","45","718629","0.0-3.0-0.21","191","1","2025-04-14 14:43:20","bb671e3ae32f654b8954ea4c4635f915","","Mozilla/5.0 (Windows NT 10.0; Win64; x64; rv:137.0) Gecko/20100101 Firefox/137.0","","Firefox","137.0","Windows","10.0","https://hz8g1ckzuq.cognition.run/","en-US,en;q=0.5","1hd956yjxpd6l41","33","[""White""]","No","Male","1591653","null","","<p></p>","null","rating","tcd","repulsion_2","2","televisions","null","null","null","null","null","null","1","","","","","","","","","",""
"","","","","","rating_trial","survey-html-form","46","755517","0.0-3.0-1.21","191","1","2025-04-14 14:43:20","bb671e3ae32f654b8954ea4c4635f915","","Mozilla/5.0 (Windows NT 10.0; Win64; x64; rv:137.0) Gecko/20100101 Firefox/137.0","","Firefox","137.0","Windows","10.0","https://hz8g1ckzuq.cognition.run/","en-US,en;q=0.5","1hd956yjxpd6l41","33","[""White""]","No","Male","1591653","36887","","","{""price_1"":""300"",""price_2"":""380"",""price_3"":""250""}","rating","tcd","repulsion_2","2","televisions","null","null","null","null","null","null","1","30","40","20","100","90","100","Screen size","Average lifespan","",""
"","","","","","rating_trial_setup","html-keyboard-response","47","755821","0.0-3.0-0.22","191","1","2025-04-14 14:43:20","bb671e3ae32f654b8954ea4c4635f915","","Mozilla/5.0 (Windows NT 10.0; Win64; x64; rv:137.0) Gecko/20100101 Firefox/137.0","","Firefox","137.0","Windows","10.0","https://hz8g1ckzuq.cognition.run/","en-US,en;q=0.5","1hd956yjxpd6l41","33","[""White""]","No","Male","1591653","null","","<p></p>","null","rating","wwb","catch","null","microwave ovens","95","50","30","5","15","20","2","","","","","","","","","",""
"","","","","","rating_trial","survey-html-form","48","776463","0.0-3.0-1.22","191","1","2025-04-14 14:43:20","bb671e3ae32f654b8954ea4c4635f915","","Mozilla/5.0 (Windows NT 10.0; Win64; x64; rv:137.0) Gecko/20100101 Firefox/137.0","","Firefox","137.0","Windows","10.0","https://hz8g1ckzuq.cognition.run/","en-US,en;q=0.5","1hd956yjxpd6l41","33","[""White""]","No","Male","1591653","20642","","","{""price_1"":""80"",""price_2"":""100"",""price_3"":""150""}","rating","wwb","catch","null","microwave ovens","95","50","30","5","15","20","2","null","null","null","null","null","null","Warranty","Cooking power","",""
"","","","","","rating_trial_setup","html-keyboard-response","49","776775","0.0-3.0-0.23","191","1","2025-04-14 14:43:20","bb671e3ae32f654b8954ea4c4635f915","","Mozilla/5.0 (Windows NT 10.0; Win64; x64; rv:137.0) Gecko/20100101 Firefox/137.0","","Firefox","137.0","Windows","10.0","https://hz8g1ckzuq.cognition.run/","en-US,en;q=0.5","1hd956yjxpd6l41","33","[""White""]","No","Male","1591653","null","","<p></p>","null","rating","tcd","repulsion_1","2","washing machines","null","null","null","null","null","null","1","","","","","","","","","",""
"","","","","","rating_trial","survey-html-form","50","831427","0.0-3.0-1.23","191","1","2025-04-14 14:43:20","bb671e3ae32f654b8954ea4c4635f915","","Mozilla/5.0 (Windows NT 10.0; Win64; x64; rv:137.0) Gecko/20100101 Firefox/137.0","","Firefox","137.0","Windows","10.0","https://hz8g1ckzuq.cognition.run/","en-US,en;q=0.5","1hd956yjxpd6l41","33","[""White""]","No","Male","1591653","54649","","","{""price_1"":""550"",""price_2"":""600"",""price_3"":""500""}","rating","tcd","repulsion_1","2","washing machines","null","null","null","null","null","null","1","30","40","25","100","90","100","Average lifespan","Energy savings","",""
"","","","","","rating_trial_setup","html-keyboard-response","51","831751","0.0-3.0-0.24","191","1","2025-04-14 14:43:20","bb671e3ae32f654b8954ea4c4635f915","","Mozilla/5.0 (Windows NT 10.0; Win64; x64; rv:137.0) Gecko/20100101 Firefox/137.0","","Firefox","137.0","Windows","10.0","https://hz8g1ckzuq.cognition.run/","en-US,en;q=0.5","1hd956yjxpd6l41","33","[""White""]","No","Male","1591653","null","","<p></p>","null","rating","wwb","catch","null","televisions","65","95","45","45","15","35","2","","","","","","","","","",""
"","","","","","rating_trial","survey-html-form","52","860190","0.0-3.0-1.24","191","1","2025-04-14 14:43:20","bb671e3ae32f654b8954ea4c4635f915","","Mozilla/5.0 (Windows NT 10.0; Win64; x64; rv:137.0) Gecko/20100101 Firefox/137.0","","Firefox","137.0","Windows","10.0","https://hz8g1ckzuq.cognition.run/","en-US,en;q=0.5","1hd956yjxpd6l41","33","[""White""]","No","Male","1591653","28437","","","{""price_1"":""350"",""price_2"":""160"",""price_3"":""600""}","rating","wwb","catch","null","televisions","65","95","45","45","15","35","2","null","null","null","null","null","null","Screen size","Average lifespan","",""
"","","","","","rating_trial_setup","html-keyboard-response","53","860498","0.0-3.0-0.25","191","1","2025-04-14 14:43:20","bb671e3ae32f654b8954ea4c4635f915","","Mozilla/5.0 (Windows NT 10.0; Win64; x64; rv:137.0) Gecko/20100101 Firefox/137.0","","Firefox","137.0","Windows","10.0","https://hz8g1ckzuq.cognition.run/","en-US,en;q=0.5","1hd956yjxpd6l41","33","[""White""]","No","Male","1591653","null","","<p></p>","null","rating","tcd","attraction_2","1","laptops","null","null","null","null","null","null","2","","","","","","","","","",""
"","","","","","rating_trial","survey-html-form","54","897975","0.0-3.0-1.25","191","1","2025-04-14 14:43:20","bb671e3ae32f654b8954ea4c4635f915","","Mozilla/5.0 (Windows NT 10.0; Win64; x64; rv:137.0) Gecko/20100101 Firefox/137.0","","Firefox","137.0","Windows","10.0","https://hz8g1ckzuq.cognition.run/","en-US,en;q=0.5","1hd956yjxpd6l41","33","[""White""]","No","Male","1591653","37475","","","{""price_1"":""500"",""price_2"":""460"",""price_3"":""480""}","rating","tcd","attraction_2","1","laptops","null","null","null","null","null","null","2","60","50","60","50","60","40","Processing speed","Memory (RAM)","",""
"","","","","","rating_trial_setup","html-keyboard-response","55","898289","0.0-3.0-0.26","191","1","2025-04-14 14:43:20","bb671e3ae32f654b8954ea4c4635f915","","Mozilla/5.0 (Windows NT 10.0; Win64; x64; rv:137.0) Gecko/20100101 Firefox/137.0","","Firefox","137.0","Windows","10.0","https://hz8g1ckzuq.cognition.run/","en-US,en;q=0.5","1hd956yjxpd6l41","33","[""White""]","No","Male","1591653","null","","<p></p>","null","rating","tdc","repulsion_2","2","microwave ovens","null","null","null","null","null","null","2","","","","","","","","","",""
"","","","","","rating_trial","survey-html-form","56","916639","0.0-3.0-1.26","191","1","2025-04-14 14:43:20","bb671e3ae32f654b8954ea4c4635f915","","Mozilla/5.0 (Windows NT 10.0; Win64; x64; rv:137.0) Gecko/20100101 Firefox/137.0","","Firefox","137.0","Windows","10.0","https://hz8g1ckzuq.cognition.run/","en-US,en;q=0.5","1hd956yjxpd6l41","33","[""White""]","No","Male","1591653","18349","","","{""price_1"":""150"",""price_2"":""140"",""price_3"":""170""}","rating","tdc","repulsion_2","2","microwave ovens","null","null","null","null","null","null","2","30","40","20","100","90","100","Warranty","Cooking power","",""
"","","","","","rating_trial_setup","html-keyboard-response","57","916945","0.0-3.0-0.27","191","1","2025-04-14 14:43:20","bb671e3ae32f654b8954ea4c4635f915","","Mozilla/5.0 (Windows NT 10.0; Win64; x64; rv:137.0) Gecko/20100101 Firefox/137.0","","Firefox","137.0","Windows","10.0","https://hz8g1ckzuq.cognition.run/","en-US,en;q=0.5","1hd956yjxpd6l41","33","[""White""]","No","Male","1591653","null","","<p></p>","null","rating","tcd","attraction_2","2","washing machines","null","null","null","null","null","null","2","","","","","","","","","",""
"","","","","","rating_trial","survey-html-form","58","936860","0.0-3.0-1.27","191","1","2025-04-14 14:43:20","bb671e3ae32f654b8954ea4c4635f915","","Mozilla/5.0 (Windows NT 10.0; Win64; x64; rv:137.0) Gecko/20100101 Firefox/137.0","","Firefox","137.0","Windows","10.0","https://hz8g1ckzuq.cognition.run/","en-US,en;q=0.5","1hd956yjxpd6l41","33","[""White""]","No","Male","1591653","19913","","","{""price_1"":""600"",""price_2"":""630"",""price_3"":""550""}","rating","tcd","attraction_2","2","washing machines","null","null","null","null","null","null","2","50","60","40","60","50","60","Average lifespan","Energy savings","",""
"","","","","","rating_trial_setup","html-keyboard-response","59","937190","0.0-3.0-0.28","191","1","2025-04-14 14:43:20","bb671e3ae32f654b8954ea4c4635f915","","Mozilla/5.0 (Windows NT 10.0; Win64; x64; rv:137.0) Gecko/20100101 Firefox/137.0","","Firefox","137.0","Windows","10.0","https://hz8g1ckzuq.cognition.run/","en-US,en;q=0.5","1hd956yjxpd6l41","33","[""White""]","No","Male","1591653","null","","<p></p>","null","rating","tdc","repulsion_2","1","laptops","null","null","null","null","null","null","2","","","","","","","","","",""
"","","","","","rating_trial","survey-html-form","60","967182","0.0-3.0-1.28","191","1","2025-04-14 14:43:20","bb671e3ae32f654b8954ea4c4635f915","","Mozilla/5.0 (Windows NT 10.0; Win64; x64; rv:137.0) Gecko/20100101 Firefox/137.0","","Firefox","137.0","Windows","10.0","https://hz8g1ckzuq.cognition.run/","en-US,en;q=0.5","1hd956yjxpd6l41","33","[""White""]","No","Male","1591653","29991","","","{""price_1"":""750"",""price_2"":""680"",""price_3"":""780""}","rating","tdc","repulsion_2","1","laptops","null","null","null","null","null","null","2","100","90","100","30","40","20","Processing speed","Memory (RAM)","",""
"","","","","","rating_trial_setup","html-keyboard-response","61","967495","0.0-3.0-0.29","191","1","2025-04-14 14:43:20","bb671e3ae32f654b8954ea4c4635f915","","Mozilla/5.0 (Windows NT 10.0; Win64; x64; rv:137.0) Gecko/20100101 Firefox/137.0","","Firefox","137.0","Windows","10.0","https://hz8g1ckzuq.cognition.run/","en-US,en;q=0.5","1hd956yjxpd6l41","33","[""White""]","No","Male","1591653","null","","<p></p>","null","rating","dtc","attraction_2","2","laptops","null","null","null","null","null","null","1","","","","","","","","","",""
"","","","","","rating_trial","survey-html-form","62","988937","0.0-3.0-1.29","191","1","2025-04-14 14:43:20","bb671e3ae32f654b8954ea4c4635f915","","Mozilla/5.0 (Windows NT 10.0; Win64; x64; rv:137.0) Gecko/20100101 Firefox/137.0","","Firefox","137.0","Windows","10.0","https://hz8g1ckzuq.cognition.run/","en-US,en;q=0.5","1hd956yjxpd6l41","33","[""White""]","No","Male","1591653","21440","","","{""price_1"":""450"",""price_2"":""470"",""price_3"":""520""}","rating","dtc","attraction_2","2","laptops","null","null","null","null","null","null","1","50","60","40","60","50","60","Processing speed","Memory (RAM)","",""
"","","","","","rating_trial_setup","html-keyboard-response","63","989249","0.0-3.0-0.30","191","1","2025-04-14 14:43:20","bb671e3ae32f654b8954ea4c4635f915","","Mozilla/5.0 (Windows NT 10.0; Win64; x64; rv:137.0) Gecko/20100101 Firefox/137.0","","Firefox","137.0","Windows","10.0","https://hz8g1ckzuq.cognition.run/","en-US,en;q=0.5","1hd956yjxpd6l41","33","[""White""]","No","Male","1591653","null","","<p></p>","null","rating","wbw","catch","null","laptops","80","65","15","45","15","25","1","","","","","","","","","",""
"","","","","","rating_trial","survey-html-form","64","1008253","0.0-3.0-1.30","191","1","2025-04-14 14:43:20","bb671e3ae32f654b8954ea4c4635f915","","Mozilla/5.0 (Windows NT 10.0; Win64; x64; rv:137.0) Gecko/20100101 Firefox/137.0","","Firefox","137.0","Windows","10.0","https://hz8g1ckzuq.cognition.run/","en-US,en;q=0.5","1hd956yjxpd6l41","33","[""White""]","No","Male","1591653","19002","","","{""price_1"":""300"",""price_2"":""750"",""price_3"":""280""}","rating","wbw","catch","null","laptops","80","65","15","45","15","25","1","null","null","null","null","null","null","Processing speed","Memory (RAM)","",""
"","","","","","rating_trial_setup","html-keyboard-response","65","1008563","0.0-3.0-0.31","191","1","2025-04-14 14:43:20","bb671e3ae32f654b8954ea4c4635f915","","Mozilla/5.0 (Windows NT 10.0; Win64; x64; rv:137.0) Gecko/20100101 Firefox/137.0","","Firefox","137.0","Windows","10.0","https://hz8g1ckzuq.cognition.run/","en-US,en;q=0.5","1hd956yjxpd6l41","33","[""White""]","No","Male","1591653","null","","<p></p>","null","rating","tcd","attraction_2","1","washing machines","null","null","null","null","null","null","1","","","","","","","","","",""
"","","","","","rating_trial","survey-html-form","66","1028844","0.0-3.0-1.31","191","1","2025-04-14 14:43:20","bb671e3ae32f654b8954ea4c4635f915","","Mozilla/5.0 (Windows NT 10.0; Win64; x64; rv:137.0) Gecko/20100101 Firefox/137.0","","Firefox","137.0","Windows","10.0","https://hz8g1ckzuq.cognition.run/","en-US,en;q=0.5","1hd956yjxpd6l41","33","[""White""]","No","Male","1591653","20280","","","{""price_1"":""650"",""price_2"":""600"",""price_3"":""620""}","rating","tcd","attraction_2","1","washing machines","null","null","null","null","null","null","1","60","50","60","50","60","40","Average lifespan","Energy savings","",""
"","","","","","rating_trial_setup","html-keyboard-response","67","1029152","0.0-3.0-0.32","191","1","2025-04-14 14:43:20","bb671e3ae32f654b8954ea4c4635f915","","Mozilla/5.0 (Windows NT 10.0; Win64; x64; rv:137.0) Gecko/20100101 Firefox/137.0","","Firefox","137.0","Windows","10.0","https://hz8g1ckzuq.cognition.run/","en-US,en;q=0.5","1hd956yjxpd6l41","33","[""White""]","No","Male","1591653","null","","<p></p>","null","rating","dtc","repulsion_1","1","microwave ovens","null","null","null","null","null","null","1","","","","","","","","","",""
"","","","","","rating_trial","survey-html-form","68","1055528","0.0-3.0-1.32","191","1","2025-04-14 14:43:20","bb671e3ae32f654b8954ea4c4635f915","","Mozilla/5.0 (Windows NT 10.0; Win64; x64; rv:137.0) Gecko/20100101 Firefox/137.0","","Firefox","137.0","Windows","10.0","https://hz8g1ckzuq.cognition.run/","en-US,en;q=0.5","1hd956yjxpd6l41","33","[""White""]","No","Male","1591653","26375","","","{""price_1"":""150"",""price_2"":""165"",""price_3"":""170""}","rating","dtc","repulsion_1","1","microwave ovens","null","null","null","null","null","null","1","100","90","100","30","40","25","Warranty","Cooking power","",""
"","","","","","rating_trial_setup","html-keyboard-response","69","1055842","0.0-3.0-0.33","191","1","2025-04-14 14:43:20","bb671e3ae32f654b8954ea4c4635f915","","Mozilla/5.0 (Windows NT 10.0; Win64; x64; rv:137.0) Gecko/20100101 Firefox/137.0","","Firefox","137.0","Windows","10.0","https://hz8g1ckzuq.cognition.run/","en-US,en;q=0.5","1hd956yjxpd6l41","33","[""White""]","No","Male","1591653","null","","<p></p>","null","rating","tdc","attraction_1","2","washing machines","null","null","null","null","null","null","1","","","","","","","","","",""
"","","","","","rating_trial","survey-html-form","70","1077448","0.0-3.0-1.33","191","1","2025-04-14 14:43:20","bb671e3ae32f654b8954ea4c4635f915","","Mozilla/5.0 (Windows NT 10.0; Win64; x64; rv:137.0) Gecko/20100101 Firefox/137.0","","Firefox","137.0","Windows","10.0","https://hz8g1ckzuq.cognition.run/","en-US,en;q=0.5","1hd956yjxpd6l41","33","[""White""]","No","Male","1591653","21604","","","{""price_1"":""580"",""price_2"":""570"",""price_3"":""630""}","rating","tdc","attraction_1","2","washing machines","null","null","null","null","null","null","1","50","60","45","60","50","60","Average lifespan","Energy savings","",""
"","","","","","rating_trial_setup","html-keyboard-response","71","1077757","0.0-3.0-0.34","191","1","2025-04-14 14:43:20","bb671e3ae32f654b8954ea4c4635f915","","Mozilla/5.0 (Windows NT 10.0; Win64; x64; rv:137.0) Gecko/20100101 Firefox/137.0","","Firefox","137.0","Windows","10.0","https://hz8g1ckzuq.cognition.run/","en-US,en;q=0.5","1hd956yjxpd6l41","33","[""White""]","No","Male","1591653","null","","<p></p>","null","rating","ctd","repulsion_1","2","microwave ovens","null","null","null","null","null","null","1","","","","","","","","","",""
"","","","","","rating_trial","survey-html-form","72","1097284","0.0-3.0-1.34","191","1","2025-04-14 14:43:20","bb671e3ae32f654b8954ea4c4635f915","","Mozilla/5.0 (Windows NT 10.0; Win64; x64; rv:137.0) Gecko/20100101 Firefox/137.0","","Firefox","137.0","Windows","10.0","https://hz8g1ckzuq.cognition.run/","en-US,en;q=0.5","1hd956yjxpd6l41","33","[""White""]","No","Male","1591653","19527","","","{""price_1"":""190"",""price_2"":""150"",""price_3"":""140""}","rating","ctd","repulsion_1","2","microwave ovens","null","null","null","null","null","null","1","30","40","25","100","90","100","Warranty","Cooking power","",""
"","","","","","rating_trial_setup","html-keyboard-response","73","1097598","0.0-3.0-0.35","191","1","2025-04-14 14:43:20","bb671e3ae32f654b8954ea4c4635f915","","Mozilla/5.0 (Windows NT 10.0; Win64; x64; rv:137.0) Gecko/20100101 Firefox/137.0","","Firefox","137.0","Windows","10.0","https://hz8g1ckzuq.cognition.run/","en-US,en;q=0.5","1hd956yjxpd6l41","33","[""White""]","No","Male","1591653","null","","<p></p>","null","rating","ctd","repulsion_1","1","televisions","null","null","null","null","null","null","1","","","","","","","","","",""
"","","","","","rating_trial","survey-html-form","74","1119017","0.0-3.0-1.35","191","1","2025-04-14 14:43:20","bb671e3ae32f654b8954ea4c4635f915","","Mozilla/5.0 (Windows NT 10.0; Win64; x64; rv:137.0) Gecko/20100101 Firefox/137.0","","Firefox","137.0","Windows","10.0","https://hz8g1ckzuq.cognition.run/","en-US,en;q=0.5","1hd956yjxpd6l41","33","[""White""]","No","Male","1591653","21416","","","{""price_1"":""680"",""price_2"":""600"",""price_3"":""500""}","rating","ctd","repulsion_1","1","televisions","null","null","null","null","null","null","1","100","90","100","30","40","25","Screen size","Average lifespan","",""
"","","","","","rating_trial_setup","html-keyboard-response","75","1119322","0.0-3.0-0.36","191","1","2025-04-14 14:43:20","bb671e3ae32f654b8954ea4c4635f915","","Mozilla/5.0 (Windows NT 10.0; Win64; x64; rv:137.0) Gecko/20100101 Firefox/137.0","","Firefox","137.0","Windows","10.0","https://hz8g1ckzuq.cognition.run/","en-US,en;q=0.5","1hd956yjxpd6l41","33","[""White""]","No","Male","1591653","null","","<p></p>","null","rating","ctd","repulsion_2","2","washing machines","null","null","null","null","null","null","1","","","","","","","","","",""
"","","","","","rating_trial","survey-html-form","76","1140450","0.0-3.0-1.36","191","1","2025-04-14 14:43:20","bb671e3ae32f654b8954ea4c4635f915","","Mozilla/5.0 (Windows NT 10.0; Win64; x64; rv:137.0) Gecko/20100101 Firefox/137.0","","Firefox","137.0","Windows","10.0","https://hz8g1ckzuq.cognition.run/","en-US,en;q=0.5","1hd956yjxpd6l41","33","[""White""]","No","Male","1591653","21126","","","{""price_1"":""580"",""price_2"":""560"",""price_3"":""530""}","rating","ctd","repulsion_2","2","washing machines","null","null","null","null","null","null","1","30","40","20","100","90","100","Average lifespan","Energy savings","",""
"","","","","","rating_trial_setup","html-keyboard-response","77","1140769","0.0-3.0-0.37","191","1","2025-04-14 14:43:20","bb671e3ae32f654b8954ea4c4635f915","","Mozilla/5.0 (Windows NT 10.0; Win64; x64; rv:137.0) Gecko/20100101 Firefox/137.0","","Firefox","137.0","Windows","10.0","https://hz8g1ckzuq.cognition.run/","en-US,en;q=0.5","1hd956yjxpd6l41","33","[""White""]","No","Male","1591653","null","","<p></p>","null","rating","tcd","attraction_2","1","televisions","null","null","null","null","null","null","1","","","","","","","","","",""
"","","","","","rating_trial","survey-html-form","78","1164660","0.0-3.0-1.37","191","1","2025-04-14 14:43:20","bb671e3ae32f654b8954ea4c4635f915","","Mozilla/5.0 (Windows NT 10.0; Win64; x64; rv:137.0) Gecko/20100101 Firefox/137.0","","Firefox","137.0","Windows","10.0","https://hz8g1ckzuq.cognition.run/","en-US,en;q=0.5","1hd956yjxpd6l41","33","[""White""]","No","Male","1591653","23890","","","{""price_1"":""420"",""price_2"":""390"",""price_3"":""400""}","rating","tcd","attraction_2","1","televisions","null","null","null","null","null","null","1","60","50","60","50","60","40","Screen size","Average lifespan","",""
"","","","","","rating_trial_setup","html-keyboard-response","79","1164977","0.0-3.0-0.38","191","1","2025-04-14 14:43:20","bb671e3ae32f654b8954ea4c4635f915","","Mozilla/5.0 (Windows NT 10.0; Win64; x64; rv:137.0) Gecko/20100101 Firefox/137.0","","Firefox","137.0","Windows","10.0","https://hz8g1ckzuq.cognition.run/","en-US,en;q=0.5","1hd956yjxpd6l41","33","[""White""]","No","Male","1591653","null","","<p></p>","null","rating","tdc","attraction_1","1","washing machines","null","null","null","null","null","null","1","","","","","","","","","",""
"","","","","","rating_trial","survey-html-form","80","1183144","0.0-3.0-1.38","191","1","2025-04-14 14:43:20","bb671e3ae32f654b8954ea4c4635f915","","Mozilla/5.0 (Windows NT 10.0; Win64; x64; rv:137.0) Gecko/20100101 Firefox/137.0","","Firefox","137.0","Windows","10.0","https://hz8g1ckzuq.cognition.run/","en-US,en;q=0.5","1hd956yjxpd6l41","33","[""White""]","No","Male","1591653","18166","","","{""price_1"":""650"",""price_2"":""630"",""price_3"":""600""}","rating","tdc","attraction_1","1","washing machines","null","null","null","null","null","null","1","60","50","60","50","60","45","Average lifespan","Energy savings","",""
"","","","","","rating_trial_setup","html-keyboard-response","81","1183462","0.0-3.0-0.39","191","1","2025-04-14 14:43:20","bb671e3ae32f654b8954ea4c4635f915","","Mozilla/5.0 (Windows NT 10.0; Win64; x64; rv:137.0) Gecko/20100101 Firefox/137.0","","Firefox","137.0","Windows","10.0","https://hz8g1ckzuq.cognition.run/","en-US,en;q=0.5","1hd956yjxpd6l41","33","[""White""]","No","Male","1591653","null","","<p></p>","null","rating","ctd","repulsion_1","2","laptops","null","null","null","null","null","null","1","","","","","","","","","",""
"","","","","","rating_trial","survey-html-form","82","1212142","0.0-3.0-1.39","191","1","2025-04-14 14:43:20","bb671e3ae32f654b8954ea4c4635f915","","Mozilla/5.0 (Windows NT 10.0; Win64; x64; rv:137.0) Gecko/20100101 Firefox/137.0","","Firefox","137.0","Windows","10.0","https://hz8g1ckzuq.cognition.run/","en-US,en;q=0.5","1hd956yjxpd6l41","33","[""White""]","No","Male","1591653","28679","","","{""price_1"":""460"",""price_2"":""430"",""price_3"":""380""}","rating","ctd","repulsion_1","2","laptops","null","null","null","null","null","null","1","30","40","25","100","90","100","Processing speed","Memory (RAM)","",""
"","","","","","","instructions","83","1241002","0.0-4.0","191","1","2025-04-14 14:43:20","bb671e3ae32f654b8954ea4c4635f915","","Mozilla/5.0 (Windows NT 10.0; Win64; x64; rv:137.0) Gecko/20100101 Firefox/137.0","","Firefox","137.0","Windows","10.0","https://hz8g1ckzuq.cognition.run/","en-US,en;q=0.5","1hd956yjxpd6l41","33","[""White""]","No","Male","1591653","28859","[{""page_index"":0,""viewing_time"":1291},{""page_index"":1,""viewing_time"":1030},{""page_index"":2,""viewing_time"":2333},{""page_index"":3,""viewing_time"":4096},{""page_index"":4,""viewing_time"":3636},{""page_index"":5,""viewing_time"":1723},{""page_index"":6,""viewing_time"":11871},{""page_index"":7,""viewing_time"":2879}]","","","","","","","","","","","","","","","","","","","","","","","",""
"","","","","","choice_trial_setup","html-keyboard-response","84","1241322","0.0-5.0-0.0","191","1","2025-04-14 14:43:20","bb671e3ae32f654b8954ea4c4635f915","","Mozilla/5.0 (Windows NT 10.0; Win64; x64; rv:137.0) Gecko/20100101 Firefox/137.0","","Firefox","137.0","Windows","10.0","https://hz8g1ckzuq.cognition.run/","en-US,en;q=0.5","1hd956yjxpd6l41","33","[""White""]","No","Male","1591653","null","","<p></p>","null","choice","tdc","repulsion_1","2","washing machines","null","null","null","null","null","null","1","","","","","","","","","",""
"","","","","","choice_trial","survey-html-form","85","1248966","0.0-5.0-1.0","191","1","2025-04-14 14:43:20","bb671e3ae32f654b8954ea4c4635f915","","Mozilla/5.0 (Windows NT 10.0; Win64; x64; rv:137.0) Gecko/20100101 Firefox/137.0","","Firefox","137.0","Windows","10.0","https://hz8g1ckzuq.cognition.run/","en-US,en;q=0.5","1hd956yjxpd6l41","33","[""White""]","No","Male","1591653","7644","","","{""product_choice"":""C""}","choice","tdc","repulsion_1","2","washing machines","null","null","null","null","null","null","1","30","40","25","100","90","100","Average lifespan","Energy savings","",""
"","","","","","choice_trial_setup","html-keyboard-response","86","1249281","0.0-5.0-0.1","191","1","2025-04-14 14:43:20","bb671e3ae32f654b8954ea4c4635f915","","Mozilla/5.0 (Windows NT 10.0; Win64; x64; rv:137.0) Gecko/20100101 Firefox/137.0","","Firefox","137.0","Windows","10.0","https://hz8g1ckzuq.cognition.run/","en-US,en;q=0.5","1hd956yjxpd6l41","33","[""White""]","No","Male","1591653","null","","<p></p>","null","choice","tdc","attraction_1","1","televisions","null","null","null","null","null","null","2","","","","","","","","","",""
"","","","","","choice_trial","survey-html-form","87","1256000","0.0-5.0-1.1","191","1","2025-04-14 14:43:20","bb671e3ae32f654b8954ea4c4635f915","","Mozilla/5.0 (Windows NT 10.0; Win64; x64; rv:137.0) Gecko/20100101 Firefox/137.0","","Firefox","137.0","Windows","10.0","https://hz8g1ckzuq.cognition.run/","en-US,en;q=0.5","1hd956yjxpd6l41","33","[""White""]","No","Male","1591653","6716","","","{""product_choice"":""C""}","choice","tdc","attraction_1","1","televisions","null","null","null","null","null","null","2","60","50","60","50","60","45","Screen size","Average lifespan","",""
"","","","","","choice_trial_setup","html-keyboard-response","88","1256312","0.0-5.0-0.2","191","1","2025-04-14 14:43:20","bb671e3ae32f654b8954ea4c4635f915","","Mozilla/5.0 (Windows NT 10.0; Win64; x64; rv:137.0) Gecko/20100101 Firefox/137.0","","Firefox","137.0","Windows","10.0","https://hz8g1ckzuq.cognition.run/","en-US,en;q=0.5","1hd956yjxpd6l41","33","[""White""]","No","Male","1591653","null","","<p></p>","null","choice","ctd","repulsion_2","1","laptops","null","null","null","null","null","null","1","","","","","","","","","",""
"","","","","","choice_trial","survey-html-form","89","1265082","0.0-5.0-1.2","191","1","2025-04-14 14:43:20","bb671e3ae32f654b8954ea4c4635f915","","Mozilla/5.0 (Windows NT 10.0; Win64; x64; rv:137.0) Gecko/20100101 Firefox/137.0","","Firefox","137.0","Windows","10.0","https://hz8g1ckzuq.cognition.run/","en-US,en;q=0.5","1hd956yjxpd6l41","33","[""White""]","No","Male","1591653","8768","","","{""product_choice"":""A""}","choice","ctd","repulsion_2","1","laptops","null","null","null","null","null","null","1","100","90","100","30","40","20","Processing speed","Memory (RAM)","",""
"","","","","","choice_trial_setup","html-keyboard-response","90","1265389","0.0-5.0-0.3","191","1","2025-04-14 14:43:20","bb671e3ae32f654b8954ea4c4635f915","","Mozilla/5.0 (Windows NT 10.0; Win64; x64; rv:137.0) Gecko/20100101 Firefox/137.0","","Firefox","137.0","Windows","10.0","https://hz8g1ckzuq.cognition.run/","en-US,en;q=0.5","1hd956yjxpd6l41","33","[""White""]","No","Male","1591653","null","","<p></p>","null","choice","cdt","attraction_2","1","washing machines","null","null","null","null","null","null","1","","","","","","","","","",""
"","","","","","choice_trial","survey-html-form","91","1272995","0.0-5.0-1.3","191","1","2025-04-14 14:43:20","bb671e3ae32f654b8954ea4c4635f915","","Mozilla/5.0 (Windows NT 10.0; Win64; x64; rv:137.0) Gecko/20100101 Firefox/137.0","","Firefox","137.0","Windows","10.0","https://hz8g1ckzuq.cognition.run/","en-US,en;q=0.5","1hd956yjxpd6l41","33","[""White""]","No","Male","1591653","7604","","","{""product_choice"":""C""}","choice","cdt","attraction_2","1","washing machines","null","null","null","null","null","null","1","60","50","60","50","60","40","Average lifespan","Energy savings","",""
"","","","","","choice_trial_setup","html-keyboard-response","92","1273302","0.0-5.0-0.4","191","1","2025-04-14 14:43:20","bb671e3ae32f654b8954ea4c4635f915","","Mozilla/5.0 (Windows NT 10.0; Win64; x64; rv:137.0) Gecko/20100101 Firefox/137.0","","Firefox","137.0","Windows","10.0","https://hz8g1ckzuq.cognition.run/","en-US,en;q=0.5","1hd956yjxpd6l41","33","[""White""]","No","Male","1591653","null","","<p></p>","null","choice","dtc","repulsion_2","1","washing machines","null","null","null","null","null","null","2","","","","","","","","","",""
"","","","","","choice_trial","survey-html-form","93","1280375","0.0-5.0-1.4","191","1","2025-04-14 14:43:20","bb671e3ae32f654b8954ea4c4635f915","","Mozilla/5.0 (Windows NT 10.0; Win64; x64; rv:137.0) Gecko/20100101 Firefox/137.0","","Firefox","137.0","Windows","10.0","https://hz8g1ckzuq.cognition.run/","en-US,en;q=0.5","1hd956yjxpd6l41","33","[""White""]","No","Male","1591653","7072","","","{""product_choice"":""C""}","choice","dtc","repulsion_2","1","washing machines","null","null","null","null","null","null","2","100","90","100","30","40","20","Average lifespan","Energy savings","",""
"","","","","","choice_trial_setup","html-keyboard-response","94","1280679","0.0-5.0-0.5","191","1","2025-04-14 14:43:20","bb671e3ae32f654b8954ea4c4635f915","","Mozilla/5.0 (Windows NT 10.0; Win64; x64; rv:137.0) Gecko/20100101 Firefox/137.0","","Firefox","137.0","Windows","10.0","https://hz8g1ckzuq.cognition.run/","en-US,en;q=0.5","1hd956yjxpd6l41","33","[""White""]","No","Male","1591653","null","","<p></p>","null","choice","wwb","catch","null","televisions","90","80","5","15","50","20","1","","","","","","","","","",""
"","","","","","choice_trial","survey-html-form","95","1285912","0.0-5.0-1.5","191","1","2025-04-14 14:43:20","bb671e3ae32f654b8954ea4c4635f915","","Mozilla/5.0 (Windows NT 10.0; Win64; x64; rv:137.0) Gecko/20100101 Firefox/137.0","","Firefox","137.0","Windows","10.0","https://hz8g1ckzuq.cognition.run/","en-US,en;q=0.5","1hd956yjxpd6l41","33","[""White""]","No","Male","1591653","5232","","","{""product_choice"":""C""}","choice","wwb","catch","null","televisions","90","80","5","15","50","20","1","null","null","null","null","null","null","Screen size","Average lifespan","",""
"","","","","","choice_trial_setup","html-keyboard-response","96","1286222","0.0-5.0-0.6","191","1","2025-04-14 14:43:20","bb671e3ae32f654b8954ea4c4635f915","","Mozilla/5.0 (Windows NT 10.0; Win64; x64; rv:137.0) Gecko/20100101 Firefox/137.0","","Firefox","137.0","Windows","10.0","https://hz8g1ckzuq.cognition.run/","en-US,en;q=0.5","1hd956yjxpd6l41","33","[""White""]","No","Male","1591653","null","","<p></p>","null","choice","bww","catch","null","washing machines","55","50","20","45","45","35","1","","","","","","","","","",""
"","","","","","choice_trial","survey-html-form","97","1290390","0.0-5.0-1.6","191","1","2025-04-14 14:43:20","bb671e3ae32f654b8954ea4c4635f915","","Mozilla/5.0 (Windows NT 10.0; Win64; x64; rv:137.0) Gecko/20100101 Firefox/137.0","","Firefox","137.0","Windows","10.0","https://hz8g1ckzuq.cognition.run/","en-US,en;q=0.5","1hd956yjxpd6l41","33","[""White""]","No","Male","1591653","4167","","","{""product_choice"":""A""}","choice","bww","catch","null","washing machines","55","50","20","45","45","35","1","null","null","null","null","null","null","Average lifespan","Energy savings","",""
"","","","","","choice_trial_setup","html-keyboard-response","98","1290703","0.0-5.0-0.7","191","1","2025-04-14 14:43:20","bb671e3ae32f654b8954ea4c4635f915","","Mozilla/5.0 (Windows NT 10.0; Win64; x64; rv:137.0) Gecko/20100101 Firefox/137.0","","Firefox","137.0","Windows","10.0","https://hz8g1ckzuq.cognition.run/","en-US,en;q=0.5","1hd956yjxpd6l41","33","[""White""]","No","Male","1591653","null","","<p></p>","null","choice","cdt","attraction_1","2","microwave ovens","null","null","null","null","null","null","1","","","","","","","","","",""
"","","","","","choice_trial","survey-html-form","99","1298218","0.0-5.0-1.7","191","1","2025-04-14 14:43:20","bb671e3ae32f654b8954ea4c4635f915","","Mozilla/5.0 (Windows NT 10.0; Win64; x64; rv:137.0) Gecko/20100101 Firefox/137.0","","Firefox","137.0","Windows","10.0","https://hz8g1ckzuq.cognition.run/","en-US,en;q=0.5","1hd956yjxpd6l41","33","[""White""]","No","Male","1591653","7513","","","{""product_choice"":""C""}","choice","cdt","attraction_1","2","microwave ovens","null","null","null","null","null","null","1","50","60","45","60","50","60","Warranty","Cooking power","",""
"","","","","","choice_trial_setup","html-keyboard-response","100","1298530","0.0-5.0-0.8","191","1","2025-04-14 14:43:20","bb671e3ae32f654b8954ea4c4635f915","","Mozilla/5.0 (Windows NT 10.0; Win64; x64; rv:137.0) Gecko/20100101 Firefox/137.0","","Firefox","137.0","Windows","10.0","https://hz8g1ckzuq.cognition.run/","en-US,en;q=0.5","1hd956yjxpd6l41","33","[""White""]","No","Male","1591653","null","","<p></p>","null","choice","cdt","repulsion_2","1","microwave ovens","null","null","null","null","null","null","2","","","","","","","","","",""
"","","","","","choice_trial","survey-html-form","101","1306002","0.0-5.0-1.8","191","1","2025-04-14 14:43:20","bb671e3ae32f654b8954ea4c4635f915","","Mozilla/5.0 (Windows NT 10.0; Win64; x64; rv:137.0) Gecko/20100101 Firefox/137.0","","Firefox","137.0","Windows","10.0","https://hz8g1ckzuq.cognition.run/","en-US,en;q=0.5","1hd956yjxpd6l41","33","[""White""]","No","Male","1591653","7469","","","{""product_choice"":""A""}","choice","cdt","repulsion_2","1","microwave ovens","null","null","null","null","null","null","2","100","90","100","30","40","20","Warranty","Cooking power","",""
"","","","","","choice_trial_setup","html-keyboard-response","102","1306315","0.0-5.0-0.9","191","1","2025-04-14 14:43:20","bb671e3ae32f654b8954ea4c4635f915","","Mozilla/5.0 (Windows NT 10.0; Win64; x64; rv:137.0) Gecko/20100101 Firefox/137.0","","Firefox","137.0","Windows","10.0","https://hz8g1ckzuq.cognition.run/","en-US,en;q=0.5","1hd956yjxpd6l41","33","[""White""]","No","Male","1591653","null","","<p></p>","null","choice","dct","repulsion_1","2","microwave ovens","null","null","null","null","null","null","1","","","","","","","","","",""
"","","","","","choice_trial","survey-html-form","103","1311947","0.0-5.0-1.9","191","1","2025-04-14 14:43:20","bb671e3ae32f654b8954ea4c4635f915","","Mozilla/5.0 (Windows NT 10.0; Win64; x64; rv:137.0) Gecko/20100101 Firefox/137.0","","Firefox","137.0","Windows","10.0","https://hz8g1ckzuq.cognition.run/","en-US,en;q=0.5","1hd956yjxpd6l41","33","[""White""]","No","Male","1591653","5630","","","{""product_choice"":""B""}","choice","dct","repulsion_1","2","microwave ovens","null","null","null","null","null","null","1","30","40","25","100","90","100","Warranty","Cooking power","",""
"","","","","","choice_trial_setup","html-keyboard-response","104","1312257","0.0-5.0-0.10","191","1","2025-04-14 14:43:20","bb671e3ae32f654b8954ea4c4635f915","","Mozilla/5.0 (Windows NT 10.0; Win64; x64; rv:137.0) Gecko/20100101 Firefox/137.0","","Firefox","137.0","Windows","10.0","https://hz8g1ckzuq.cognition.run/","en-US,en;q=0.5","1hd956yjxpd6l41","33","[""White""]","No","Male","1591653","null","","<p></p>","null","choice","dtc","attraction_1","2","laptops","null","null","null","null","null","null","1","","","","","","","","","",""
"","","","","","choice_trial","survey-html-form","105","1317795","0.0-5.0-1.10","191","1","2025-04-14 14:43:20","bb671e3ae32f654b8954ea4c4635f915","","Mozilla/5.0 (Windows NT 10.0; Win64; x64; rv:137.0) Gecko/20100101 Firefox/137.0","","Firefox","137.0","Windows","10.0","https://hz8g1ckzuq.cognition.run/","en-US,en;q=0.5","1hd956yjxpd6l41","33","[""White""]","No","Male","1591653","5536","","","{""product_choice"":""C""}","choice","dtc","attraction_1","2","laptops","null","null","null","null","null","null","1","50","60","45","60","50","60","Processing speed","Memory (RAM)","",""
"","","","","","choice_trial_setup","html-keyboard-response","106","1318103","0.0-5.0-0.11","191","1","2025-04-14 14:43:20","bb671e3ae32f654b8954ea4c4635f915","","Mozilla/5.0 (Windows NT 10.0; Win64; x64; rv:137.0) Gecko/20100101 Firefox/137.0","","Firefox","137.0","Windows","10.0","https://hz8g1ckzuq.cognition.run/","en-US,en;q=0.5","1hd956yjxpd6l41","33","[""White""]","No","Male","1591653","null","","<p></p>","null","choice","tcd","repulsion_1","1","televisions","null","null","null","null","null","null","1","","","","","","","","","",""
"","","","","","choice_trial","survey-html-form","107","1323123","0.0-5.0-1.11","191","1","2025-04-14 14:43:20","bb671e3ae32f654b8954ea4c4635f915","","Mozilla/5.0 (Windows NT 10.0; Win64; x64; rv:137.0) Gecko/20100101 Firefox/137.0","","Firefox","137.0","Windows","10.0","https://hz8g1ckzuq.cognition.run/","en-US,en;q=0.5","1hd956yjxpd6l41","33","[""White""]","No","Male","1591653","5018","","","{""product_choice"":""B""}","choice","tcd","repulsion_1","1","televisions","null","null","null","null","null","null","1","100","90","100","30","40","25","Screen size","Average lifespan","",""
"","","","","","choice_trial_setup","html-keyboard-response","108","1323430","0.0-5.0-0.12","191","1","2025-04-14 14:43:20","bb671e3ae32f654b8954ea4c4635f915","","Mozilla/5.0 (Windows NT 10.0; Win64; x64; rv:137.0) Gecko/20100101 Firefox/137.0","","Firefox","137.0","Windows","10.0","https://hz8g1ckzuq.cognition.run/","en-US,en;q=0.5","1hd956yjxpd6l41","33","[""White""]","No","Male","1591653","null","","<p></p>","null","choice","tcd","repulsion_2","2","laptops","null","null","null","null","null","null","1","","","","","","","","","",""
"","","","","","choice_trial","survey-html-form","109","1331879","0.0-5.0-1.12","191","1","2025-04-14 14:43:20","bb671e3ae32f654b8954ea4c4635f915","","Mozilla/5.0 (Windows NT 10.0; Win64; x64; rv:137.0) Gecko/20100101 Firefox/137.0","","Firefox","137.0","Windows","10.0","https://hz8g1ckzuq.cognition.run/","en-US,en;q=0.5","1hd956yjxpd6l41","33","[""White""]","No","Male","1591653","8447","","","{""product_choice"":""B""}","choice","tcd","repulsion_2","2","laptops","null","null","null","null","null","null","1","30","40","20","100","90","100","Processing speed","Memory (RAM)","",""
"","","","","","choice_trial_setup","html-keyboard-response","110","1332182","0.0-5.0-0.13","191","1","2025-04-14 14:43:20","bb671e3ae32f654b8954ea4c4635f915","","Mozilla/5.0 (Windows NT 10.0; Win64; x64; rv:137.0) Gecko/20100101 Firefox/137.0","","Firefox","137.0","Windows","10.0","https://hz8g1ckzuq.cognition.run/","en-US,en;q=0.5","1hd956yjxpd6l41","33","[""White""]","No","Male","1591653","null","","<p></p>","null","choice","ctd","repulsion_1","2","laptops","null","null","null","null","null","null","2","","","","","","","","","",""
"","","","","","choice_trial","survey-html-form","111","1343957","0.0-5.0-1.13","191","1","2025-04-14 14:43:20","bb671e3ae32f654b8954ea4c4635f915","","Mozilla/5.0 (Windows NT 10.0; Win64; x64; rv:137.0) Gecko/20100101 Firefox/137.0","","Firefox","137.0","Windows","10.0","https://hz8g1ckzuq.cognition.run/","en-US,en;q=0.5","1hd956yjxpd6l41","33","[""White""]","No","Male","1591653","11774","","","{""product_choice"":""A""}","choice","ctd","repulsion_1","2","laptops","null","null","null","null","null","null","2","30","40","25","100","90","100","Processing speed","Memory (RAM)","",""
"","","","","","choice_trial_setup","html-keyboard-response","112","1344260","0.0-5.0-0.14","191","1","2025-04-14 14:43:20","bb671e3ae32f654b8954ea4c4635f915","","Mozilla/5.0 (Windows NT 10.0; Win64; x64; rv:137.0) Gecko/20100101 Firefox/137.0","","Firefox","137.0","Windows","10.0","https://hz8g1ckzuq.cognition.run/","en-US,en;q=0.5","1hd956yjxpd6l41","33","[""White""]","No","Male","1591653","null","","<p></p>","null","choice","wwb","catch","null","washing machines","95","60","35","40","35","20","2","","","","","","","","","",""
"","","","","","choice_trial","survey-html-form","113","1349934","0.0-5.0-1.14","191","1","2025-04-14 14:43:20","bb671e3ae32f654b8954ea4c4635f915","","Mozilla/5.0 (Windows NT 10.0; Win64; x64; rv:137.0) Gecko/20100101 Firefox/137.0","","Firefox","137.0","Windows","10.0","https://hz8g1ckzuq.cognition.run/","en-US,en;q=0.5","1hd956yjxpd6l41","33","[""White""]","No","Male","1591653","5673","","","{""product_choice"":""C""}","choice","wwb","catch","null","washing machines","95","60","35","40","35","20","2","null","null","null","null","null","null","Average lifespan","Energy savings","",""
"","","","","","choice_trial_setup","html-keyboard-response","114","1350249","0.0-5.0-0.15","191","1","2025-04-14 14:43:20","bb671e3ae32f654b8954ea4c4635f915","","Mozilla/5.0 (Windows NT 10.0; Win64; x64; rv:137.0) Gecko/20100101 Firefox/137.0","","Firefox","137.0","Windows","10.0","https://hz8g1ckzuq.cognition.run/","en-US,en;q=0.5","1hd956yjxpd6l41","33","[""White""]","No","Male","1591653","null","","<p></p>","null","choice","dct","repulsion_2","2","washing machines","null","null","null","null","null","null","2","","","","","","","","","",""
"","","","","","choice_trial","survey-html-form","115","1353980","0.0-5.0-1.15","191","1","2025-04-14 14:43:20","bb671e3ae32f654b8954ea4c4635f915","","Mozilla/5.0 (Windows NT 10.0; Win64; x64; rv:137.0) Gecko/20100101 Firefox/137.0","","Firefox","137.0","Windows","10.0","https://hz8g1ckzuq.cognition.run/","en-US,en;q=0.5","1hd956yjxpd6l41","33","[""White""]","No","Male","1591653","3729","","","{""product_choice"":""B""}","choice","dct","repulsion_2","2","washing machines","null","null","null","null","null","null","2","30","40","20","100","90","100","Average lifespan","Energy savings","",""
"","","","","","choice_trial_setup","html-keyboard-response","116","1354283","0.0-5.0-0.16","191","1","2025-04-14 14:43:20","bb671e3ae32f654b8954ea4c4635f915","","Mozilla/5.0 (Windows NT 10.0; Win64; x64; rv:137.0) Gecko/20100101 Firefox/137.0","","Firefox","137.0","Windows","10.0","https://hz8g1ckzuq.cognition.run/","en-US,en;q=0.5","1hd956yjxpd6l41","33","[""White""]","No","Male","1591653","null","","<p></p>","null","choice","dtc","attraction_1","1","washing machines","null","null","null","null","null","null","1","","","","","","","","","",""
"","","","","","choice_trial","survey-html-form","117","1359422","0.0-5.0-1.16","191","1","2025-04-14 14:43:20","bb671e3ae32f654b8954ea4c4635f915","","Mozilla/5.0 (Windows NT 10.0; Win64; x64; rv:137.0) Gecko/20100101 Firefox/137.0","","Firefox","137.0","Windows","10.0","https://hz8g1ckzuq.cognition.run/","en-US,en;q=0.5","1hd956yjxpd6l41","33","[""White""]","No","Male","1591653","5136","","","{""product_choice"":""B""}","choice","dtc","attraction_1","1","washing machines","null","null","null","null","null","null","1","60","50","60","50","60","45","Average lifespan","Energy savings","",""
"","","","","","choice_trial_setup","html-keyboard-response","118","1359755","0.0-5.0-0.17","191","1","2025-04-14 14:43:20","bb671e3ae32f654b8954ea4c4635f915","","Mozilla/5.0 (Windows NT 10.0; Win64; x64; rv:137.0) Gecko/20100101 Firefox/137.0","","Firefox","137.0","Windows","10.0","https://hz8g1ckzuq.cognition.run/","en-US,en;q=0.5","1hd956yjxpd6l41","33","[""White""]","No","Male","1591653","null","","<p></p>","null","choice","wwb","catch","null","laptops","60","80","15","30","45","25","2","","","","","","","","","",""
"","","","","","choice_trial","survey-html-form","119","1366344","0.0-5.0-1.17","191","1","2025-04-14 14:43:20","bb671e3ae32f654b8954ea4c4635f915","","Mozilla/5.0 (Windows NT 10.0; Win64; x64; rv:137.0) Gecko/20100101 Firefox/137.0","","Firefox","137.0","Windows","10.0","https://hz8g1ckzuq.cognition.run/","en-US,en;q=0.5","1hd956yjxpd6l41","33","[""White""]","No","Male","1591653","6587","","","{""product_choice"":""C""}","choice","wwb","catch","null","laptops","60","80","15","30","45","25","2","null","null","null","null","null","null","Processing speed","Memory (RAM)","",""
"","","","","","choice_trial_setup","html-keyboard-response","120","1366649","0.0-5.0-0.18","191","1","2025-04-14 14:43:20","bb671e3ae32f654b8954ea4c4635f915","","Mozilla/5.0 (Windows NT 10.0; Win64; x64; rv:137.0) Gecko/20100101 Firefox/137.0","","Firefox","137.0","Windows","10.0","https://hz8g1ckzuq.cognition.run/","en-US,en;q=0.5","1hd956yjxpd6l41","33","[""White""]","No","Male","1591653","null","","<p></p>","null","choice","cdt","repulsion_1","1","microwave ovens","null","null","null","null","null","null","1","","","","","","","","","",""
"","","","","","choice_trial","survey-html-form","121","1372868","0.0-5.0-1.18","191","1","2025-04-14 14:43:20","bb671e3ae32f654b8954ea4c4635f915","","Mozilla/5.0 (Windows NT 10.0; Win64; x64; rv:137.0) Gecko/20100101 Firefox/137.0","","Firefox","137.0","Windows","10.0","https://hz8g1ckzuq.cognition.run/","en-US,en;q=0.5","1hd956yjxpd6l41","33","[""White""]","No","Male","1591653","6217","","","{""product_choice"":""A""}","choice","cdt","repulsion_1","1","microwave ovens","null","null","null","null","null","null","1","100","90","100","30","40","25","Warranty","Cooking power","",""
"","","","","","choice_trial_setup","html-keyboard-response","122","1373176","0.0-5.0-0.19","191","1","2025-04-14 14:43:20","bb671e3ae32f654b8954ea4c4635f915","","Mozilla/5.0 (Windows NT 10.0; Win64; x64; rv:137.0) Gecko/20100101 Firefox/137.0","","Firefox","137.0","Windows","10.0","https://hz8g1ckzuq.cognition.run/","en-US,en;q=0.5","1hd956yjxpd6l41","33","[""White""]","No","Male","1591653","null","","<p></p>","null","choice","ctd","repulsion_2","1","televisions","null","null","null","null","null","null","2","","","","","","","","","",""
"","","","","","choice_trial","survey-html-form","123","1389202","0.0-5.0-1.19","191","1","2025-04-14 14:43:20","bb671e3ae32f654b8954ea4c4635f915","","Mozilla/5.0 (Windows NT 10.0; Win64; x64; rv:137.0) Gecko/20100101 Firefox/137.0","","Firefox","137.0","Windows","10.0","https://hz8g1ckzuq.cognition.run/","en-US,en;q=0.5","1hd956yjxpd6l41","33","[""White""]","No","Male","1591653","16023","","","{""product_choice"":""A""}","choice","ctd","repulsion_2","1","televisions","null","null","null","null","null","null","2","100","90","100","30","40","20","Screen size","Average lifespan","",""
"","","","","","choice_trial_setup","html-keyboard-response","124","1389514","0.0-5.0-0.20","191","1","2025-04-14 14:43:20","bb671e3ae32f654b8954ea4c4635f915","","Mozilla/5.0 (Windows NT 10.0; Win64; x64; rv:137.0) Gecko/20100101 Firefox/137.0","","Firefox","137.0","Windows","10.0","https://hz8g1ckzuq.cognition.run/","en-US,en;q=0.5","1hd956yjxpd6l41","33","[""White""]","No","Male","1591653","null","","<p></p>","null","choice","ctd","attraction_2","2","microwave ovens","null","null","null","null","null","null","2","","","","","","","","","",""
"","","","","","choice_trial","survey-html-form","125","1398171","0.0-5.0-1.20","191","1","2025-04-14 14:43:20","bb671e3ae32f654b8954ea4c4635f915","","Mozilla/5.0 (Windows NT 10.0; Win64; x64; rv:137.0) Gecko/20100101 Firefox/137.0","","Firefox","137.0","Windows","10.0","https://hz8g1ckzuq.cognition.run/","en-US,en;q=0.5","1hd956yjxpd6l41","33","[""White""]","No","Male","1591653","8654","","","{""product_choice"":""A""}","choice","ctd","attraction_2","2","microwave ovens","null","null","null","null","null","null","2","50","60","40","60","50","60","Warranty","Cooking power","",""
"","","","","","choice_trial_setup","html-keyboard-response","126","1398482","0.0-5.0-0.21","191","1","2025-04-14 14:43:20","bb671e3ae32f654b8954ea4c4635f915","","Mozilla/5.0 (Windows NT 10.0; Win64; x64; rv:137.0) Gecko/20100101 Firefox/137.0","","Firefox","137.0","Windows","10.0","https://hz8g1ckzuq.cognition.run/","en-US,en;q=0.5","1hd956yjxpd6l41","33","[""White""]","No","Male","1591653","null","","<p></p>","null","choice","wbw","catch","null","laptops","95","90","15","40","10","30","1","","","","","","","","","",""
"","","","","","choice_trial","survey-html-form","127","1403020","0.0-5.0-1.21","191","1","2025-04-14 14:43:20","bb671e3ae32f654b8954ea4c4635f915","","Mozilla/5.0 (Windows NT 10.0; Win64; x64; rv:137.0) Gecko/20100101 Firefox/137.0","","Firefox","137.0","Windows","10.0","https://hz8g1ckzuq.cognition.run/","en-US,en;q=0.5","1hd956yjxpd6l41","33","[""White""]","No","Male","1591653","4536","","","{""product_choice"":""B""}","choice","wbw","catch","null","laptops","95","90","15","40","10","30","1","null","null","null","null","null","null","Processing speed","Memory (RAM)","",""
"","","","","","choice_trial_setup","html-keyboard-response","128","1403327","0.0-5.0-0.22","191","1","2025-04-14 14:43:20","bb671e3ae32f654b8954ea4c4635f915","","Mozilla/5.0 (Windows NT 10.0; Win64; x64; rv:137.0) Gecko/20100101 Firefox/137.0","","Firefox","137.0","Windows","10.0","https://hz8g1ckzuq.cognition.run/","en-US,en;q=0.5","1hd956yjxpd6l41","33","[""White""]","No","Male","1591653","null","","<p></p>","null","choice","wwb","catch","null","microwave ovens","85","70","10","35","45","35","2","","","","","","","","","",""
"","","","","","choice_trial","survey-html-form","129","1411458","0.0-5.0-1.22","191","1","2025-04-14 14:43:20","bb671e3ae32f654b8954ea4c4635f915","","Mozilla/5.0 (Windows NT 10.0; Win64; x64; rv:137.0) Gecko/20100101 Firefox/137.0","","Firefox","137.0","Windows","10.0","https://hz8g1ckzuq.cognition.run/","en-US,en;q=0.5","1hd956yjxpd6l41","33","[""White""]","No","Male","1591653","8129","","","{""product_choice"":""C""}","choice","wwb","catch","null","microwave ovens","85","70","10","35","45","35","2","null","null","null","null","null","null","Warranty","Cooking power","",""
"","","","","","choice_trial_setup","html-keyboard-response","130","1411764","0.0-5.0-0.23","191","1","2025-04-14 14:43:20","bb671e3ae32f654b8954ea4c4635f915","","Mozilla/5.0 (Windows NT 10.0; Win64; x64; rv:137.0) Gecko/20100101 Firefox/137.0","","Firefox","137.0","Windows","10.0","https://hz8g1ckzuq.cognition.run/","en-US,en;q=0.5","1hd956yjxpd6l41","33","[""White""]","No","Male","1591653","null","","<p></p>","null","choice","dct","attraction_1","1","microwave ovens","null","null","null","null","null","null","1","","","","","","","","","",""
"","","","","","choice_trial","survey-html-form","131","1416622","0.0-5.0-1.23","191","1","2025-04-14 14:43:20","bb671e3ae32f654b8954ea4c4635f915","","Mozilla/5.0 (Windows NT 10.0; Win64; x64; rv:137.0) Gecko/20100101 Firefox/137.0","","Firefox","137.0","Windows","10.0","https://hz8g1ckzuq.cognition.run/","en-US,en;q=0.5","1hd956yjxpd6l41","33","[""White""]","No","Male","1591653","4856","","","{""product_choice"":""C""}","choice","dct","attraction_1","1","microwave ovens","null","null","null","null","null","null","1","60","50","60","50","60","45","Warranty","Cooking power","",""
"","","","","","choice_trial_setup","html-keyboard-response","132","1416950","0.0-5.0-0.24","191","1","2025-04-14 14:43:20","bb671e3ae32f654b8954ea4c4635f915","","Mozilla/5.0 (Windows NT 10.0; Win64; x64; rv:137.0) Gecko/20100101 Firefox/137.0","","Firefox","137.0","Windows","10.0","https://hz8g1ckzuq.cognition.run/","en-US,en;q=0.5","1hd956yjxpd6l41","33","[""White""]","No","Male","1591653","null","","<p></p>","null","choice","wbw","catch","null","microwave ovens","90","80","45","5","20","50","1","","","","","","","","","",""
"","","","","","choice_trial","survey-html-form","133","1420814","0.0-5.0-1.24","191","1","2025-04-14 14:43:20","bb671e3ae32f654b8954ea4c4635f915","","Mozilla/5.0 (Windows NT 10.0; Win64; x64; rv:137.0) Gecko/20100101 Firefox/137.0","","Firefox","137.0","Windows","10.0","https://hz8g1ckzuq.cognition.run/","en-US,en;q=0.5","1hd956yjxpd6l41","33","[""White""]","No","Male","1591653","3863","","","{""product_choice"":""B""}","choice","wbw","catch","null","microwave ovens","90","80","45","5","20","50","1","null","null","null","null","null","null","Warranty","Cooking power","",""
"","","","","","choice_trial_setup","html-keyboard-response","134","1421126","0.0-5.0-0.25","191","1","2025-04-14 14:43:20","bb671e3ae32f654b8954ea4c4635f915","","Mozilla/5.0 (Windows NT 10.0; Win64; x64; rv:137.0) Gecko/20100101 Firefox/137.0","","Firefox","137.0","Windows","10.0","https://hz8g1ckzuq.cognition.run/","en-US,en;q=0.5","1hd956yjxpd6l41","33","[""White""]","No","Male","1591653","null","","<p></p>","null","choice","dct","attraction_2","1","televisions","null","null","null","null","null","null","1","","","","","","","","","",""
"","","","","","choice_trial","survey-html-form","135","1424280","0.0-5.0-1.25","191","1","2025-04-14 14:43:20","bb671e3ae32f654b8954ea4c4635f915","","Mozilla/5.0 (Windows NT 10.0; Win64; x64; rv:137.0) Gecko/20100101 Firefox/137.0","","Firefox","137.0","Windows","10.0","https://hz8g1ckzuq.cognition.run/","en-US,en;q=0.5","1hd956yjxpd6l41","33","[""White""]","No","Male","1591653","3153","","","{""product_choice"":""B""}","choice","dct","attraction_2","1","televisions","null","null","null","null","null","null","1","60","50","60","50","60","40","Screen size","Average lifespan","",""
"","","","","","choice_trial_setup","html-keyboard-response","136","1424583","0.0-5.0-0.26","191","1","2025-04-14 14:43:20","bb671e3ae32f654b8954ea4c4635f915","","Mozilla/5.0 (Windows NT 10.0; Win64; x64; rv:137.0) Gecko/20100101 Firefox/137.0","","Firefox","137.0","Windows","10.0","https://hz8g1ckzuq.cognition.run/","en-US,en;q=0.5","1hd956yjxpd6l41","33","[""White""]","No","Male","1591653","null","","<p></p>","null","choice","ctd","attraction_1","2","televisions","null","null","null","null","null","null","2","","","","","","","","","",""
"","","","","","choice_trial","survey-html-form","137","1429156","0.0-5.0-1.26","191","1","2025-04-14 14:43:20","bb671e3ae32f654b8954ea4c4635f915","","Mozilla/5.0 (Windows NT 10.0; Win64; x64; rv:137.0) Gecko/20100101 Firefox/137.0","","Firefox","137.0","Windows","10.0","https://hz8g1ckzuq.cognition.run/","en-US,en;q=0.5","1hd956yjxpd6l41","33","[""White""]","No","Male","1591653","4571","","","{""product_choice"":""B""}","choice","ctd","attraction_1","2","televisions","null","null","null","null","null","null","2","50","60","45","60","50","60","Screen size","Average lifespan","",""
"","","","","","choice_trial_setup","html-keyboard-response","138","1429459","0.0-5.0-0.27","191","1","2025-04-14 14:43:20","bb671e3ae32f654b8954ea4c4635f915","","Mozilla/5.0 (Windows NT 10.0; Win64; x64; rv:137.0) Gecko/20100101 Firefox/137.0","","Firefox","137.0","Windows","10.0","https://hz8g1ckzuq.cognition.run/","en-US,en;q=0.5","1hd956yjxpd6l41","33","[""White""]","No","Male","1591653","null","","<p></p>","null","choice","ctd","attraction_2","2","washing machines","null","null","null","null","null","null","2","","","","","","","","","",""
"","","","","","choice_trial","survey-html-form","139","1438389","0.0-5.0-1.27","191","1","2025-04-14 14:43:20","bb671e3ae32f654b8954ea4c4635f915","","Mozilla/5.0 (Windows NT 10.0; Win64; x64; rv:137.0) Gecko/20100101 Firefox/137.0","","Firefox","137.0","Windows","10.0","https://hz8g1ckzuq.cognition.run/","en-US,en;q=0.5","1hd956yjxpd6l41","33","[""White""]","No","Male","1591653","8926","","","{""product_choice"":""A""}","choice","ctd","attraction_2","2","washing machines","null","null","null","null","null","null","2","50","60","40","60","50","60","Average lifespan","Energy savings","",""
"","","","","","choice_trial_setup","html-keyboard-response","140","1438703","0.0-5.0-0.28","191","1","2025-04-14 14:43:20","bb671e3ae32f654b8954ea4c4635f915","","Mozilla/5.0 (Windows NT 10.0; Win64; x64; rv:137.0) Gecko/20100101 Firefox/137.0","","Firefox","137.0","Windows","10.0","https://hz8g1ckzuq.cognition.run/","en-US,en;q=0.5","1hd956yjxpd6l41","33","[""White""]","No","Male","1591653","null","","<p></p>","null","choice","tcd","repulsion_1","2","televisions","null","null","null","null","null","null","2","","","","","","","","","",""
"","","","","","choice_trial","survey-html-form","141","1445367","0.0-5.0-1.28","191","1","2025-04-14 14:43:20","bb671e3ae32f654b8954ea4c4635f915","","Mozilla/5.0 (Windows NT 10.0; Win64; x64; rv:137.0) Gecko/20100101 Firefox/137.0","","Firefox","137.0","Windows","10.0","https://hz8g1ckzuq.cognition.run/","en-US,en;q=0.5","1hd956yjxpd6l41","33","[""White""]","No","Male","1591653","6662","","","{""product_choice"":""B""}","choice","tcd","repulsion_1","2","televisions","null","null","null","null","null","null","2","30","40","25","100","90","100","Screen size","Average lifespan","",""
"","","","","","choice_trial_setup","html-keyboard-response","142","1445673","0.0-5.0-0.29","191","1","2025-04-14 14:43:20","bb671e3ae32f654b8954ea4c4635f915","","Mozilla/5.0 (Windows NT 10.0; Win64; x64; rv:137.0) Gecko/20100101 Firefox/137.0","","Firefox","137.0","Windows","10.0","https://hz8g1ckzuq.cognition.run/","en-US,en;q=0.5","1hd956yjxpd6l41","33","[""White""]","No","Male","1591653","null","","<p></p>","null","choice","tcd","repulsion_1","1","washing machines","null","null","null","null","null","null","1","","","","","","","","","",""
"","","","","","choice_trial","survey-html-form","143","1454705","0.0-5.0-1.29","191","1","2025-04-14 14:43:20","bb671e3ae32f654b8954ea4c4635f915","","Mozilla/5.0 (Windows NT 10.0; Win64; x64; rv:137.0) Gecko/20100101 Firefox/137.0","","Firefox","137.0","Windows","10.0","https://hz8g1ckzuq.cognition.run/","en-US,en;q=0.5","1hd956yjxpd6l41","33","[""White""]","No","Male","1591653","9030","","","{""product_choice"":""B""}","choice","tcd","repulsion_1","1","washing machines","null","null","null","null","null","null","1","100","90","100","30","40","25","Average lifespan","Energy savings","",""
"","","","","","choice_trial_setup","html-keyboard-response","144","1455009","0.0-5.0-0.30","191","1","2025-04-14 14:43:20","bb671e3ae32f654b8954ea4c4635f915","","Mozilla/5.0 (Windows NT 10.0; Win64; x64; rv:137.0) Gecko/20100101 Firefox/137.0","","Firefox","137.0","Windows","10.0","https://hz8g1ckzuq.cognition.run/","en-US,en;q=0.5","1hd956yjxpd6l41","33","[""White""]","No","Male","1591653","null","","<p></p>","null","choice","dct","repulsion_2","2","microwave ovens","null","null","null","null","null","null","2","","","","","","","","","",""
"","","","","","choice_trial","survey-html-form","145","1459160","0.0-5.0-1.30","191","1","2025-04-14 14:43:20","bb671e3ae32f654b8954ea4c4635f915","","Mozilla/5.0 (Windows NT 10.0; Win64; x64; rv:137.0) Gecko/20100101 Firefox/137.0","","Firefox","137.0","Windows","10.0","https://hz8g1ckzuq.cognition.run/","en-US,en;q=0.5","1hd956yjxpd6l41","33","[""White""]","No","Male","1591653","4149","","","{""product_choice"":""B""}","choice","dct","repulsion_2","2","microwave ovens","null","null","null","null","null","null","2","30","40","20","100","90","100","Warranty","Cooking power","",""
"","","","","","choice_trial_setup","html-keyboard-response","146","1459467","0.0-5.0-0.31","191","1","2025-04-14 14:43:20","bb671e3ae32f654b8954ea4c4635f915","","Mozilla/5.0 (Windows NT 10.0; Win64; x64; rv:137.0) Gecko/20100101 Firefox/137.0","","Firefox","137.0","Windows","10.0","https://hz8g1ckzuq.cognition.run/","en-US,en;q=0.5","1hd956yjxpd6l41","33","[""White""]","No","Male","1591653","null","","<p></p>","null","choice","tdc","repulsion_1","1","laptops","null","null","null","null","null","null","2","","","","","","","","","",""
"","","","","","choice_trial","survey-html-form","147","1465785","0.0-5.0-1.31","191","1","2025-04-14 14:43:20","bb671e3ae32f654b8954ea4c4635f915","","Mozilla/5.0 (Windows NT 10.0; Win64; x64; rv:137.0) Gecko/20100101 Firefox/137.0","","Firefox","137.0","Windows","10.0","https://hz8g1ckzuq.cognition.run/","en-US,en;q=0.5","1hd956yjxpd6l41","33","[""White""]","No","Male","1591653","6316","","","{""product_choice"":""C""}","choice","tdc","repulsion_1","1","laptops","null","null","null","null","null","null","2","100","90","100","30","40","25","Processing speed","Memory (RAM)","",""
"","","","","","choice_trial_setup","html-keyboard-response","148","1466102","0.0-5.0-0.32","191","1","2025-04-14 14:43:20","bb671e3ae32f654b8954ea4c4635f915","","Mozilla/5.0 (Windows NT 10.0; Win64; x64; rv:137.0) Gecko/20100101 Firefox/137.0","","Firefox","137.0","Windows","10.0","https://hz8g1ckzuq.cognition.run/","en-US,en;q=0.5","1hd956yjxpd6l41","33","[""White""]","No","Male","1591653","null","","<p></p>","null","choice","dct","attraction_1","2","washing machines","null","null","null","null","null","null","2","","","","","","","","","",""
"","","","","","choice_trial","survey-html-form","149","1469822","0.0-5.0-1.32","191","1","2025-04-14 14:43:20","bb671e3ae32f654b8954ea4c4635f915","","Mozilla/5.0 (Windows NT 10.0; Win64; x64; rv:137.0) Gecko/20100101 Firefox/137.0","","Firefox","137.0","Windows","10.0","https://hz8g1ckzuq.cognition.run/","en-US,en;q=0.5","1hd956yjxpd6l41","33","[""White""]","No","Male","1591653","3719","","","{""product_choice"":""B""}","choice","dct","attraction_1","2","washing machines","null","null","null","null","null","null","2","50","60","45","60","50","60","Average lifespan","Energy savings","",""
"","","","","","choice_trial_setup","html-keyboard-response","150","1470136","0.0-5.0-0.33","191","1","2025-04-14 14:43:20","bb671e3ae32f654b8954ea4c4635f915","","Mozilla/5.0 (Windows NT 10.0; Win64; x64; rv:137.0) Gecko/20100101 Firefox/137.0","","Firefox","137.0","Windows","10.0","https://hz8g1ckzuq.cognition.run/","en-US,en;q=0.5","1hd956yjxpd6l41","33","[""White""]","No","Male","1591653","null","","<p></p>","null","choice","tcd","attraction_2","1","laptops","null","null","null","null","null","null","2","","","","","","","","","",""
"","","","","","choice_trial","survey-html-form","151","1473532","0.0-5.0-1.33","191","1","2025-04-14 14:43:20","bb671e3ae32f654b8954ea4c4635f915","","Mozilla/5.0 (Windows NT 10.0; Win64; x64; rv:137.0) Gecko/20100101 Firefox/137.0","","Firefox","137.0","Windows","10.0","https://hz8g1ckzuq.cognition.run/","en-US,en;q=0.5","1hd956yjxpd6l41","33","[""White""]","No","Male","1591653","3393","","","{""product_choice"":""A""}","choice","tcd","attraction_2","1","laptops","null","null","null","null","null","null","2","60","50","60","50","60","40","Processing speed","Memory (RAM)","",""
"","","","","","choice_trial_setup","html-keyboard-response","152","1473842","0.0-5.0-0.34","191","1","2025-04-14 14:43:20","bb671e3ae32f654b8954ea4c4635f915","","Mozilla/5.0 (Windows NT 10.0; Win64; x64; rv:137.0) Gecko/20100101 Firefox/137.0","","Firefox","137.0","Windows","10.0","https://hz8g1ckzuq.cognition.run/","en-US,en;q=0.5","1hd956yjxpd6l41","33","[""White""]","No","Male","1591653","null","","<p></p>","null","choice","tcd","attraction_2","2","laptops","null","null","null","null","null","null","2","","","","","","","","","",""
"","","","","","choice_trial","survey-html-form","153","1477442","0.0-5.0-1.34","191","1","2025-04-14 14:43:20","bb671e3ae32f654b8954ea4c4635f915","","Mozilla/5.0 (Windows NT 10.0; Win64; x64; rv:137.0) Gecko/20100101 Firefox/137.0","","Firefox","137.0","Windows","10.0","https://hz8g1ckzuq.cognition.run/","en-US,en;q=0.5","1hd956yjxpd6l41","33","[""White""]","No","Male","1591653","3598","","","{""product_choice"":""B""}","choice","tcd","attraction_2","2","laptops","null","null","null","null","null","null","2","50","60","40","60","50","60","Processing speed","Memory (RAM)","",""
"","","","","","choice_trial_setup","html-keyboard-response","154","1477754","0.0-5.0-0.35","191","1","2025-04-14 14:43:20","bb671e3ae32f654b8954ea4c4635f915","","Mozilla/5.0 (Windows NT 10.0; Win64; x64; rv:137.0) Gecko/20100101 Firefox/137.0","","Firefox","137.0","Windows","10.0","https://hz8g1ckzuq.cognition.run/","en-US,en;q=0.5","1hd956yjxpd6l41","33","[""White""]","No","Male","1591653","null","","<p></p>","null","choice","wwb","catch","null","televisions","55","65","35","25","10","35","1","","","","","","","","","",""
"","","","","","choice_trial","survey-html-form","155","1481056","0.0-5.0-1.35","191","1","2025-04-14 14:43:20","bb671e3ae32f654b8954ea4c4635f915","","Mozilla/5.0 (Windows NT 10.0; Win64; x64; rv:137.0) Gecko/20100101 Firefox/137.0","","Firefox","137.0","Windows","10.0","https://hz8g1ckzuq.cognition.run/","en-US,en;q=0.5","1hd956yjxpd6l41","33","[""White""]","No","Male","1591653","3301","","","{""product_choice"":""C""}","choice","wwb","catch","null","televisions","55","65","35","25","10","35","1","null","null","null","null","null","null","Screen size","Average lifespan","",""
"","","","","","choice_trial_setup","html-keyboard-response","156","1481361","0.0-5.0-0.36","191","1","2025-04-14 14:43:20","bb671e3ae32f654b8954ea4c4635f915","","Mozilla/5.0 (Windows NT 10.0; Win64; x64; rv:137.0) Gecko/20100101 Firefox/137.0","","Firefox","137.0","Windows","10.0","https://hz8g1ckzuq.cognition.run/","en-US,en;q=0.5","1hd956yjxpd6l41","33","[""White""]","No","Male","1591653","null","","<p></p>","null","choice","tdc","attraction_2","1","microwave ovens","null","null","null","null","null","null","2","","","","","","","","","",""
"","","","","","choice_trial","survey-html-form","157","1486388","0.0-5.0-1.36","191","1","2025-04-14 14:43:20","bb671e3ae32f654b8954ea4c4635f915","","Mozilla/5.0 (Windows NT 10.0; Win64; x64; rv:137.0) Gecko/20100101 Firefox/137.0","","Firefox","137.0","Windows","10.0","https://hz8g1ckzuq.cognition.run/","en-US,en;q=0.5","1hd956yjxpd6l41","33","[""White""]","No","Male","1591653","5025","","","{""product_choice"":""A""}","choice","tdc","attraction_2","1","microwave ovens","null","null","null","null","null","null","2","60","50","60","50","60","40","Warranty","Cooking power","",""
"","","","","","choice_trial_setup","html-keyboard-response","158","1486704","0.0-5.0-0.37","191","1","2025-04-14 14:43:20","bb671e3ae32f654b8954ea4c4635f915","","Mozilla/5.0 (Windows NT 10.0; Win64; x64; rv:137.0) Gecko/20100101 Firefox/137.0","","Firefox","137.0","Windows","10.0","https://hz8g1ckzuq.cognition.run/","en-US,en;q=0.5","1hd956yjxpd6l41","33","[""White""]","No","Male","1591653","null","","<p></p>","null","choice","ctd","attraction_2","2","televisions","null","null","null","null","null","null","1","","","","","","","","","",""
"","","","","","choice_trial","survey-html-form","159","1492976","0.0-5.0-1.37","191","1","2025-04-14 14:43:20","bb671e3ae32f654b8954ea4c4635f915","","Mozilla/5.0 (Windows NT 10.0; Win64; x64; rv:137.0) Gecko/20100101 Firefox/137.0","","Firefox","137.0","Windows","10.0","https://hz8g1ckzuq.cognition.run/","en-US,en;q=0.5","1hd956yjxpd6l41","33","[""White""]","No","Male","1591653","6270","","","{""product_choice"":""B""}","choice","ctd","attraction_2","2","televisions","null","null","null","null","null","null","1","50","60","40","60","50","60","Screen size","Average lifespan","",""
"","","","","","choice_trial_setup","html-keyboard-response","160","1493289","0.0-5.0-0.38","191","1","2025-04-14 14:43:20","bb671e3ae32f654b8954ea4c4635f915","","Mozilla/5.0 (Windows NT 10.0; Win64; x64; rv:137.0) Gecko/20100101 Firefox/137.0","","Firefox","137.0","Windows","10.0","https://hz8g1ckzuq.cognition.run/","en-US,en;q=0.5","1hd956yjxpd6l41","33","[""White""]","No","Male","1591653","null","","<p></p>","null","choice","tdc","attraction_1","1","laptops","null","null","null","null","null","null","1","","","","","","","","","",""
"","","","","","choice_trial","survey-html-form","161","1497634","0.0-5.0-1.38","191","1","2025-04-14 14:43:20","bb671e3ae32f654b8954ea4c4635f915","","Mozilla/5.0 (Windows NT 10.0; Win64; x64; rv:137.0) Gecko/20100101 Firefox/137.0","","Firefox","137.0","Windows","10.0","https://hz8g1ckzuq.cognition.run/","en-US,en;q=0.5","1hd956yjxpd6l41","33","[""White""]","No","Male","1591653","4344","","","{""product_choice"":""A""}","choice","tdc","attraction_1","1","laptops","null","null","null","null","null","null","1","60","50","60","50","60","45","Processing speed","Memory (RAM)","",""
"","","","","","choice_trial_setup","html-keyboard-response","162","1497937","0.0-5.0-0.39","191","1","2025-04-14 14:43:20","bb671e3ae32f654b8954ea4c4635f915","","Mozilla/5.0 (Windows NT 10.0; Win64; x64; rv:137.0) Gecko/20100101 Firefox/137.0","","Firefox","137.0","Windows","10.0","https://hz8g1ckzuq.cognition.run/","en-US,en;q=0.5","1hd956yjxpd6l41","33","[""White""]","No","Male","1591653","null","","<p></p>","null","choice","tdc","repulsion_2","2","televisions","null","null","null","null","null","null","2","","","","","","","","","",""
"","","","","","choice_trial","survey-html-form","163","1501591","0.0-5.0-1.39","191","1","2025-04-14 14:43:20","bb671e3ae32f654b8954ea4c4635f915","","Mozilla/5.0 (Windows NT 10.0; Win64; x64; rv:137.0) Gecko/20100101 Firefox/137.0","","Firefox","137.0","Windows","10.0","https://hz8g1ckzuq.cognition.run/","en-US,en;q=0.5","1hd956yjxpd6l41","33","[""White""]","No","Male","1591653","3651","","","{""product_choice"":""C""}","choice","tdc","repulsion_2","2","televisions","null","null","null","null","null","null","2","30","40","20","100","90","100","Screen size","Average lifespan","",""
"","","","","","","html-button-response","164","1503024","0.0-6.0","191","1","2025-04-14 14:43:20","bb671e3ae32f654b8954ea4c4635f915","","Mozilla/5.0 (Windows NT 10.0; Win64; x64; rv:137.0) Gecko/20100101 Firefox/137.0","","Firefox","137.0","Windows","10.0","https://hz8g1ckzuq.cognition.run/","en-US,en;q=0.5","1hd956yjxpd6l41","33","[""White""]","No","Male","1591653","1430","","<p> <b>Thank you for your patience!</b></p><p>  The study will be done after completing a brief form. </p>","0","","","","","","","","","","","","","","","","","","","","","",""
"","","","","","","survey-text","165","1584424","0.0-7.0","191","1","2025-04-14 14:43:20","bb671e3ae32f654b8954ea4c4635f915","","Mozilla/5.0 (Windows NT 10.0; Win64; x64; rv:137.0) Gecko/20100101 Firefox/137.0","","Firefox","137.0","Windows","10.0","https://hz8g1ckzuq.cognition.run/","en-US,en;q=0.5","1hd956yjxpd6l41","33","[""White""]","No","Male","1591653","81391","","","{""Q0"":""Reliability played a major factor when it came to washing machines becuase I factored in the hassle of moving and installation. Small appliances I was more forgiving regarding reliability and wanted some decent performance as well. ""}","","","","","","","","","","","","","","","","","","","","","Reliability played a major factor when it came to washing machines becuase I factored in the hassle of moving and installation. Small appliances I was more forgiving regarding reliability and wanted some decent performance as well. ",""
"","","","","","","survey-text","166","1586486","0.0-8.0","191","1","2025-04-14 14:43:20","bb671e3ae32f654b8954ea4c4635f915","","Mozilla/5.0 (Windows NT 10.0; Win64; x64; rv:137.0) Gecko/20100101 Firefox/137.0","","Firefox","137.0","Windows","10.0","https://hz8g1ckzuq.cognition.run/","en-US,en;q=0.5","1hd956yjxpd6l41","33","[""White""]","No","Male","1591653","2049","","","{""Q0"":""33""}","","","","","","","","","","","","","","","","","","","","","",""
"","","","","","","survey-multi-select","167","1587962","0.0-9.0","191","1","2025-04-14 14:43:20","bb671e3ae32f654b8954ea4c4635f915","","Mozilla/5.0 (Windows NT 10.0; Win64; x64; rv:137.0) Gecko/20100101 Firefox/137.0","","Firefox","137.0","Windows","10.0","https://hz8g1ckzuq.cognition.run/","en-US,en;q=0.5","1hd956yjxpd6l41","33","[""White""]","No","Male","1591653","1474","","","{""Q0"":[""White""]}","","","","","","","","","","","","","","","","","","","","","","[0]"
"","","","","","","survey-multi-choice","168","1591651","0.0-10.0","191","1","2025-04-14 14:43:20","bb671e3ae32f654b8954ea4c4635f915","","Mozilla/5.0 (Windows NT 10.0; Win64; x64; rv:137.0) Gecko/20100101 Firefox/137.0","","Firefox","137.0","Windows","10.0","https://hz8g1ckzuq.cognition.run/","en-US,en;q=0.5","1hd956yjxpd6l41","33","[""White""]","No","Male","1591653","3687","","","{""Q0"":""No"",""Q1"":""Male""}","","","","","","","","","","","","","","","","","","","","","","[0,1]"
"","","","","","","html-keyboard-response","169","1596730","0.0-11.0","191","1","2025-04-14 14:43:20","bb671e3ae32f654b8954ea4c4635f915","","Mozilla/5.0 (Windows NT 10.0; Win64; x64; rv:137.0) Gecko/20100101 Firefox/137.0","","Firefox","137.0","Windows","10.0","https://hz8g1ckzuq.cognition.run/","en-US,en;q=0.5","1hd956yjxpd6l41","33","[""White""]","No","Male","1591653","5075","","","q","","","","","","","","","","","","","","","","","","","","","",""