"success","timeout","failed_images","failed_audio","failed_video","screen_id","trial_type","trial_index","time_elapsed","internal_node_id","run_id","condition","recorded_at","source_code_version","ip","user_agent","device","browser","browser_version","platform","platform_version","referer","accept_language","ppt_id","age","race","ethnicity","gender","exp_duration","rt","view_history","stimulus","response","phase","order","effect","t_high","category","d1_best","d2_best","d1_worst1","d2_worst1","d1_worst2","d2_worst2","first_dim","d1_t","d1_c","d1_d","d2_t","d2_c","d2_d","d1_name","d2_name","strategy_response","question_order"
"true","false","[]","[]","[]","img preload","preload","0","4874","0.0-0.0","192","1","2025-04-14 14:43:43","bb671e3ae32f654b8954ea4c4635f915","","Mozilla/5.0 (Windows NT 11.0; Win64; x64) AppleWebKit/537.36 (KHTML, like Gecko) Chrome/130.0.0.0 Safari/537.36","WebKit","Chrome","130.0.0.0","Windows","11.0","https://hz8g1ckzuq.cognition.run/","en,en-US;q=0.9","gbaa77knbnpxf2d","38","[""Black or African-American""]","No","Non-binary","1298402.299999997","","","","","","","","","","","","","","","","","","","","","","","","","",""
"true","","","","","","fullscreen","1","10608","0.0-1.0","192","1","2025-04-14 14:43:43","bb671e3ae32f654b8954ea4c4635f915","","Mozilla/5.0 (Windows NT 11.0; Win64; x64) AppleWebKit/537.36 (KHTML, like Gecko) Chrome/130.0.0.0 Safari/537.36","WebKit","Chrome","130.0.0.0","Windows","11.0","https://hz8g1ckzuq.cognition.run/","en,en-US;q=0.9","gbaa77knbnpxf2d","38","[""Black or African-American""]","No","Non-binary","1298402.299999997","4726","","","","","","","","","","","","","","","","","","","","","","","","",""
"","","","","","","instructions","2","89402","0.0-2.0","192","1","2025-04-14 14:43:43","bb671e3ae32f654b8954ea4c4635f915","","Mozilla/5.0 (Windows NT 11.0; Win64; x64) AppleWebKit/537.36 (KHTML, like Gecko) Chrome/130.0.0.0 Safari/537.36","WebKit","Chrome","130.0.0.0","Windows","11.0","https://hz8g1ckzuq.cognition.run/","en,en-US;q=0.9","gbaa77knbnpxf2d","38","[""Black or African-American""]","No","Non-binary","1298402.299999997","78792","[{""page_index"":0,""viewing_time"":1768},{""page_index"":1,""viewing_time"":1135},{""page_index"":2,""viewing_time"":1856},{""page_index"":3,""viewing_time"":8641},{""page_index"":4,""viewing_time"":7672},{""page_index"":5,""viewing_time"":2073},{""page_index"":6,""viewing_time"":4478},{""page_index"":7,""viewing_time"":27800},{""page_index"":8,""viewing_time"":5864},{""page_index"":9,""viewing_time"":17504}]","","","","","","","","","","","","","","","","","","","","","","","",""
"","","","","","rating_trial_setup","html-keyboard-response","3","89708","0.0-3.0-0.0","192","1","2025-04-14 14:43:43","bb671e3ae32f654b8954ea4c4635f915","","Mozilla/5.0 (Windows NT 11.0; Win64; x64) AppleWebKit/537.36 (KHTML, like Gecko) Chrome/130.0.0.0 Safari/537.36","WebKit","Chrome","130.0.0.0","Windows","11.0","https://hz8g1ckzuq.cognition.run/","en,en-US;q=0.9","gbaa77knbnpxf2d","38","[""Black or African-American""]","No","Non-binary","1298402.299999997","null","","<p></p>","null","rating","ctd","attraction_1","2","washing machines","null","null","null","null","null","null","2","","","","","","","","","",""
"","","","","","rating_trial","survey-html-form","4","131024","0.0-3.0-1.0","192","1","2025-04-14 14:43:43","bb671e3ae32f654b8954ea4c4635f915","","Mozilla/5.0 (Windows NT 11.0; Win64; x64) AppleWebKit/537.36 (KHTML, like Gecko) Chrome/130.0.0.0 Safari/537.36","WebKit","Chrome","130.0.0.0","Windows","11.0","https://hz8g1ckzuq.cognition.run/","en,en-US;q=0.9","gbaa77knbnpxf2d","38","[""Black or African-American""]","No","Non-binary","1298402.299999997","41307","","","{""price_1"":""300"",""price_2"":""250"",""price_3"":""200""}","rating","ctd","attraction_1","2","washing machines","null","null","null","null","null","null","2","50","60","45","60","50","60","Average lifespan","Energy savings","",""
"","","","","","rating_trial_setup","html-keyboard-response","5","131329","0.0-3.0-0.1","192","1","2025-04-14 14:43:43","bb671e3ae32f654b8954ea4c4635f915","","Mozilla/5.0 (Windows NT 11.0; Win64; x64) AppleWebKit/537.36 (KHTML, like Gecko) Chrome/130.0.0.0 Safari/537.36","WebKit","Chrome","130.0.0.0","Windows","11.0","https://hz8g1ckzuq.cognition.run/","en,en-US;q=0.9","gbaa77knbnpxf2d","38","[""Black or African-American""]","No","Non-binary","1298402.299999997","null","","<p></p>","null","rating","tdc","attraction_1","1","microwave ovens","null","null","null","null","null","null","1","","","","","","","","","",""
"","","","","","rating_trial","survey-html-form","6","156859","0.0-3.0-1.1","192","1","2025-04-14 14:43:43","bb671e3ae32f654b8954ea4c4635f915","","Mozilla/5.0 (Windows NT 11.0; Win64; x64) AppleWebKit/537.36 (KHTML, like Gecko) Chrome/130.0.0.0 Safari/537.36","WebKit","Chrome","130.0.0.0","Windows","11.0","https://hz8g1ckzuq.cognition.run/","en,en-US;q=0.9","gbaa77knbnpxf2d","38","[""Black or African-American""]","No","Non-binary","1298402.299999997","25526","","","{""price_1"":""200"",""price_2"":""150"",""price_3"":""180""}","rating","tdc","attraction_1","1","microwave ovens","null","null","null","null","null","null","1","60","50","60","50","60","45","Warranty","Cooking power","",""
"","","","","","rating_trial_setup","html-keyboard-response","7","157164","0.0-3.0-0.2","192","1","2025-04-14 14:43:43","bb671e3ae32f654b8954ea4c4635f915","","Mozilla/5.0 (Windows NT 11.0; Win64; x64) AppleWebKit/537.36 (KHTML, like Gecko) Chrome/130.0.0.0 Safari/537.36","WebKit","Chrome","130.0.0.0","Windows","11.0","https://hz8g1ckzuq.cognition.run/","en,en-US;q=0.9","gbaa77knbnpxf2d","38","[""Black or African-American""]","No","Non-binary","1298402.299999997","null","","<p></p>","null","rating","dct","attraction_1","1","washing machines","null","null","null","null","null","null","2","","","","","","","","","",""
"","","","","","rating_trial","survey-html-form","8","203810","0.0-3.0-1.2","192","1","2025-04-14 14:43:43","bb671e3ae32f654b8954ea4c4635f915","","Mozilla/5.0 (Windows NT 11.0; Win64; x64) AppleWebKit/537.36 (KHTML, like Gecko) Chrome/130.0.0.0 Safari/537.36","WebKit","Chrome","130.0.0.0","Windows","11.0","https://hz8g1ckzuq.cognition.run/","en,en-US;q=0.9","gbaa77knbnpxf2d","38","[""Black or African-American""]","No","Non-binary","1298402.299999997","46643","","","{""price_1"":""200"",""price_2"":""300"",""price_3"":""250""}","rating","dct","attraction_1","1","washing machines","null","null","null","null","null","null","2","60","50","60","50","60","45","Average lifespan","Energy savings","",""
"","","","","","rating_trial_setup","html-keyboard-response","9","204116","0.0-3.0-0.3","192","1","2025-04-14 14:43:43","bb671e3ae32f654b8954ea4c4635f915","","Mozilla/5.0 (Windows NT 11.0; Win64; x64) AppleWebKit/537.36 (KHTML, like Gecko) Chrome/130.0.0.0 Safari/537.36","WebKit","Chrome","130.0.0.0","Windows","11.0","https://hz8g1ckzuq.cognition.run/","en,en-US;q=0.9","gbaa77knbnpxf2d","38","[""Black or African-American""]","No","Non-binary","1298402.299999997","null","","<p></p>","null","rating","tdc","repulsion_1","2","televisions","null","null","null","null","null","null","1","","","","","","","","","",""
"","","","","","rating_trial","survey-html-form","10","222675","0.0-3.0-1.3","192","1","2025-04-14 14:43:43","bb671e3ae32f654b8954ea4c4635f915","","Mozilla/5.0 (Windows NT 11.0; Win64; x64) AppleWebKit/537.36 (KHTML, like Gecko) Chrome/130.0.0.0 Safari/537.36","WebKit","Chrome","130.0.0.0","Windows","11.0","https://hz8g1ckzuq.cognition.run/","en,en-US;q=0.9","gbaa77knbnpxf2d","38","[""Black or African-American""]","No","Non-binary","1298402.299999997","18554","","","{""price_1"":""200"",""price_2"":""150"",""price_3"":""300""}","rating","tdc","repulsion_1","2","televisions","null","null","null","null","null","null","1","30","40","25","100","90","100","Screen size","Average lifespan","",""
"","","","","","rating_trial_setup","html-keyboard-response","11","222979","0.0-3.0-0.4","192","1","2025-04-14 14:43:43","bb671e3ae32f654b8954ea4c4635f915","","Mozilla/5.0 (Windows NT 11.0; Win64; x64) AppleWebKit/537.36 (KHTML, like Gecko) Chrome/130.0.0.0 Safari/537.36","WebKit","Chrome","130.0.0.0","Windows","11.0","https://hz8g1ckzuq.cognition.run/","en,en-US;q=0.9","gbaa77knbnpxf2d","38","[""Black or African-American""]","No","Non-binary","1298402.299999997","null","","<p></p>","null","rating","dct","attraction_1","1","televisions","null","null","null","null","null","null","2","","","","","","","","","",""
"","","","","","rating_trial","survey-html-form","12","262083","0.0-3.0-1.4","192","1","2025-04-14 14:43:43","bb671e3ae32f654b8954ea4c4635f915","","Mozilla/5.0 (Windows NT 11.0; Win64; x64) AppleWebKit/537.36 (KHTML, like Gecko) Chrome/130.0.0.0 Safari/537.36","WebKit","Chrome","130.0.0.0","Windows","11.0","https://hz8g1ckzuq.cognition.run/","en,en-US;q=0.9","gbaa77knbnpxf2d","38","[""Black or African-American""]","No","Non-binary","1298402.299999997","39100","","","{""price_1"":""200"",""price_2"":""250"",""price_3"":""230""}","rating","dct","attraction_1","1","televisions","null","null","null","null","null","null","2","60","50","60","50","60","45","Screen size","Average lifespan","",""
"","","","","","rating_trial_setup","html-keyboard-response","13","262389","0.0-3.0-0.5","192","1","2025-04-14 14:43:43","bb671e3ae32f654b8954ea4c4635f915","","Mozilla/5.0 (Windows NT 11.0; Win64; x64) AppleWebKit/537.36 (KHTML, like Gecko) Chrome/130.0.0.0 Safari/537.36","WebKit","Chrome","130.0.0.0","Windows","11.0","https://hz8g1ckzuq.cognition.run/","en,en-US;q=0.9","gbaa77knbnpxf2d","38","[""Black or African-American""]","No","Non-binary","1298402.299999997","null","","<p></p>","null","rating","bww","catch","null","microwave ovens","70","85","25","35","50","5","1","","","","","","","","","",""
"","","","","","rating_trial","survey-html-form","14","279746","0.0-3.0-1.5","192","1","2025-04-14 14:43:43","bb671e3ae32f654b8954ea4c4635f915","","Mozilla/5.0 (Windows NT 11.0; Win64; x64) AppleWebKit/537.36 (KHTML, like Gecko) Chrome/130.0.0.0 Safari/537.36","WebKit","Chrome","130.0.0.0","Windows","11.0","https://hz8g1ckzuq.cognition.run/","en,en-US;q=0.9","gbaa77knbnpxf2d","38","[""Black or African-American""]","No","Non-binary","1298402.299999997","17353","","","{""price_1"":""350"",""price_2"":""200"",""price_3"":""130""}","rating","bww","catch","null","microwave ovens","70","85","25","35","50","5","1","null","null","null","null","null","null","Warranty","Cooking power","",""
"","","","","","rating_trial_setup","html-keyboard-response","15","280051","0.0-3.0-0.6","192","1","2025-04-14 14:43:43","bb671e3ae32f654b8954ea4c4635f915","","Mozilla/5.0 (Windows NT 11.0; Win64; x64) AppleWebKit/537.36 (KHTML, like Gecko) Chrome/130.0.0.0 Safari/537.36","WebKit","Chrome","130.0.0.0","Windows","11.0","https://hz8g1ckzuq.cognition.run/","en,en-US;q=0.9","gbaa77knbnpxf2d","38","[""Black or African-American""]","No","Non-binary","1298402.299999997","null","","<p></p>","null","rating","bww","catch","null","televisions","95","80","10","40","10","50","2","","","","","","","","","",""
"","","","","","rating_trial","survey-html-form","16","298363","0.0-3.0-1.6","192","1","2025-04-14 14:43:43","bb671e3ae32f654b8954ea4c4635f915","","Mozilla/5.0 (Windows NT 11.0; Win64; x64) AppleWebKit/537.36 (KHTML, like Gecko) Chrome/130.0.0.0 Safari/537.36","WebKit","Chrome","130.0.0.0","Windows","11.0","https://hz8g1ckzuq.cognition.run/","en,en-US;q=0.9","gbaa77knbnpxf2d","38","[""Black or African-American""]","No","Non-binary","1298402.299999997","18307","","","{""price_1"":""350"",""price_2"":""150"",""price_3"":""130""}","rating","bww","catch","null","televisions","95","80","10","40","10","50","2","null","null","null","null","null","null","Screen size","Average lifespan","",""
"","","","","","rating_trial_setup","html-keyboard-response","17","298670","0.0-3.0-0.7","192","1","2025-04-14 14:43:43","bb671e3ae32f654b8954ea4c4635f915","","Mozilla/5.0 (Windows NT 11.0; Win64; x64) AppleWebKit/537.36 (KHTML, like Gecko) Chrome/130.0.0.0 Safari/537.36","WebKit","Chrome","130.0.0.0","Windows","11.0","https://hz8g1ckzuq.cognition.run/","en,en-US;q=0.9","gbaa77knbnpxf2d","38","[""Black or African-American""]","No","Non-binary","1298402.299999997","null","","<p></p>","null","rating","tdc","attraction_1","2","televisions","null","null","null","null","null","null","2","","","","","","","","","",""
"","","","","","rating_trial","survey-html-form","18","318787","0.0-3.0-1.7","192","1","2025-04-14 14:43:43","bb671e3ae32f654b8954ea4c4635f915","","Mozilla/5.0 (Windows NT 11.0; Win64; x64) AppleWebKit/537.36 (KHTML, like Gecko) Chrome/130.0.0.0 Safari/537.36","WebKit","Chrome","130.0.0.0","Windows","11.0","https://hz8g1ckzuq.cognition.run/","en,en-US;q=0.9","gbaa77knbnpxf2d","38","[""Black or African-American""]","No","Non-binary","1298402.299999997","20112","","","{""price_1"":""250"",""price_2"":""180"",""price_3"":""200""}","rating","tdc","attraction_1","2","televisions","null","null","null","null","null","null","2","50","60","45","60","50","60","Screen size","Average lifespan","",""
"","","","","","rating_trial_setup","html-keyboard-response","19","319093","0.0-3.0-0.8","192","1","2025-04-14 14:43:43","bb671e3ae32f654b8954ea4c4635f915","","Mozilla/5.0 (Windows NT 11.0; Win64; x64) AppleWebKit/537.36 (KHTML, like Gecko) Chrome/130.0.0.0 Safari/537.36","WebKit","Chrome","130.0.0.0","Windows","11.0","https://hz8g1ckzuq.cognition.run/","en,en-US;q=0.9","gbaa77knbnpxf2d","38","[""Black or African-American""]","No","Non-binary","1298402.299999997","null","","<p></p>","null","rating","dct","repulsion_2","2","televisions","null","null","null","null","null","null","1","","","","","","","","","",""
"","","","","","rating_trial","survey-html-form","20","338426","0.0-3.0-1.8","192","1","2025-04-14 14:43:43","bb671e3ae32f654b8954ea4c4635f915","","Mozilla/5.0 (Windows NT 11.0; Win64; x64) AppleWebKit/537.36 (KHTML, like Gecko) Chrome/130.0.0.0 Safari/537.36","WebKit","Chrome","130.0.0.0","Windows","11.0","https://hz8g1ckzuq.cognition.run/","en,en-US;q=0.9","gbaa77knbnpxf2d","38","[""Black or African-American""]","No","Non-binary","1298402.299999997","19327","","","{""price_1"":""200"",""price_2"":""270"",""price_3"":""230""}","rating","dct","repulsion_2","2","televisions","null","null","null","null","null","null","1","30","40","20","100","90","100","Screen size","Average lifespan","",""
"","","","","","rating_trial_setup","html-keyboard-response","21","338730","0.0-3.0-0.9","192","1","2025-04-14 14:43:43","bb671e3ae32f654b8954ea4c4635f915","","Mozilla/5.0 (Windows NT 11.0; Win64; x64) AppleWebKit/537.36 (KHTML, like Gecko) Chrome/130.0.0.0 Safari/537.36","WebKit","Chrome","130.0.0.0","Windows","11.0","https://hz8g1ckzuq.cognition.run/","en,en-US;q=0.9","gbaa77knbnpxf2d","38","[""Black or African-American""]","No","Non-binary","1298402.299999997","null","","<p></p>","null","rating","bww","catch","null","washing machines","80","75","45","10","15","15","1","","","","","","","","","",""
"","","","","","rating_trial","survey-html-form","22","355787","0.0-3.0-1.9","192","1","2025-04-14 14:43:43","bb671e3ae32f654b8954ea4c4635f915","","Mozilla/5.0 (Windows NT 11.0; Win64; x64) AppleWebKit/537.36 (KHTML, like Gecko) Chrome/130.0.0.0 Safari/537.36","WebKit","Chrome","130.0.0.0","Windows","11.0","https://hz8g1ckzuq.cognition.run/","en,en-US;q=0.9","gbaa77knbnpxf2d","38","[""Black or African-American""]","No","Non-binary","1298402.299999997","17052","","","{""price_1"":""300"",""price_2"":""180"",""price_3"":""100""}","rating","bww","catch","null","washing machines","80","75","45","10","15","15","1","null","null","null","null","null","null","Average lifespan","Energy savings","",""
"","","","","","rating_trial_setup","html-keyboard-response","23","356092","0.0-3.0-0.10","192","1","2025-04-14 14:43:43","bb671e3ae32f654b8954ea4c4635f915","","Mozilla/5.0 (Windows NT 11.0; Win64; x64) AppleWebKit/537.36 (KHTML, like Gecko) Chrome/130.0.0.0 Safari/537.36","WebKit","Chrome","130.0.0.0","Windows","11.0","https://hz8g1ckzuq.cognition.run/","en,en-US;q=0.9","gbaa77knbnpxf2d","38","[""Black or African-American""]","No","Non-binary","1298402.299999997","null","","<p></p>","null","rating","ctd","attraction_1","2","laptops","null","null","null","null","null","null","2","","","","","","","","","",""
"","","","","","rating_trial","survey-html-form","24","373930","0.0-3.0-1.10","192","1","2025-04-14 14:43:43","bb671e3ae32f654b8954ea4c4635f915","","Mozilla/5.0 (Windows NT 11.0; Win64; x64) AppleWebKit/537.36 (KHTML, like Gecko) Chrome/130.0.0.0 Safari/537.36","WebKit","Chrome","130.0.0.0","Windows","11.0","https://hz8g1ckzuq.cognition.run/","en,en-US;q=0.9","gbaa77knbnpxf2d","38","[""Black or African-American""]","No","Non-binary","1298402.299999997","17833","","","{""price_1"":""400"",""price_2"":""380"",""price_3"":""320""}","rating","ctd","attraction_1","2","laptops","null","null","null","null","null","null","2","50","60","45","60","50","60","Processing speed","Memory (RAM)","",""
"","","","","","rating_trial_setup","html-keyboard-response","25","374243","0.0-3.0-0.11","192","1","2025-04-14 14:43:43","bb671e3ae32f654b8954ea4c4635f915","","Mozilla/5.0 (Windows NT 11.0; Win64; x64) AppleWebKit/537.36 (KHTML, like Gecko) Chrome/130.0.0.0 Safari/537.36","WebKit","Chrome","130.0.0.0","Windows","11.0","https://hz8g1ckzuq.cognition.run/","en,en-US;q=0.9","gbaa77knbnpxf2d","38","[""Black or African-American""]","No","Non-binary","1298402.299999997","null","","<p></p>","null","rating","tdc","repulsion_2","2","laptops","null","null","null","null","null","null","2","","","","","","","","","",""
"","","","","","rating_trial","survey-html-form","26","389104","0.0-3.0-1.11","192","1","2025-04-14 14:43:43","bb671e3ae32f654b8954ea4c4635f915","","Mozilla/5.0 (Windows NT 11.0; Win64; x64) AppleWebKit/537.36 (KHTML, like Gecko) Chrome/130.0.0.0 Safari/537.36","WebKit","Chrome","130.0.0.0","Windows","11.0","https://hz8g1ckzuq.cognition.run/","en,en-US;q=0.9","gbaa77knbnpxf2d","38","[""Black or African-American""]","No","Non-binary","1298402.299999997","14855","","","{""price_1"":""300"",""price_2"":""250"",""price_3"":""350""}","rating","tdc","repulsion_2","2","laptops","null","null","null","null","null","null","2","30","40","20","100","90","100","Processing speed","Memory (RAM)","",""
"","","","","","rating_trial_setup","html-keyboard-response","27","389409","0.0-3.0-0.12","192","1","2025-04-14 14:43:43","bb671e3ae32f654b8954ea4c4635f915","","Mozilla/5.0 (Windows NT 11.0; Win64; x64) AppleWebKit/537.36 (KHTML, like Gecko) Chrome/130.0.0.0 Safari/537.36","WebKit","Chrome","130.0.0.0","Windows","11.0","https://hz8g1ckzuq.cognition.run/","en,en-US;q=0.9","gbaa77knbnpxf2d","38","[""Black or African-American""]","No","Non-binary","1298402.299999997","null","","<p></p>","null","rating","tcd","repulsion_2","1","televisions","null","null","null","null","null","null","1","","","","","","","","","",""
"","","","","","rating_trial","survey-html-form","28","407634","0.0-3.0-1.12","192","1","2025-04-14 14:43:43","bb671e3ae32f654b8954ea4c4635f915","","Mozilla/5.0 (Windows NT 11.0; Win64; x64) AppleWebKit/537.36 (KHTML, like Gecko) Chrome/130.0.0.0 Safari/537.36","WebKit","Chrome","130.0.0.0","Windows","11.0","https://hz8g1ckzuq.cognition.run/","en,en-US;q=0.9","gbaa77knbnpxf2d","38","[""Black or African-American""]","No","Non-binary","1298402.299999997","18219","","","{""price_1"":""250"",""price_2"":""280"",""price_3"":""230""}","rating","tcd","repulsion_2","1","televisions","null","null","null","null","null","null","1","100","90","100","30","40","20","Screen size","Average lifespan","",""
"","","","","","rating_trial_setup","html-keyboard-response","29","407940","0.0-3.0-0.13","192","1","2025-04-14 14:43:43","bb671e3ae32f654b8954ea4c4635f915","","Mozilla/5.0 (Windows NT 11.0; Win64; x64) AppleWebKit/537.36 (KHTML, like Gecko) Chrome/130.0.0.0 Safari/537.36","WebKit","Chrome","130.0.0.0","Windows","11.0","https://hz8g1ckzuq.cognition.run/","en,en-US;q=0.9","gbaa77knbnpxf2d","38","[""Black or African-American""]","No","Non-binary","1298402.299999997","null","","<p></p>","null","rating","tcd","attraction_2","1","washing machines","null","null","null","null","null","null","2","","","","","","","","","",""
"","","","","","rating_trial","survey-html-form","30","428979","0.0-3.0-1.13","192","1","2025-04-14 14:43:43","bb671e3ae32f654b8954ea4c4635f915","","Mozilla/5.0 (Windows NT 11.0; Win64; x64) AppleWebKit/537.36 (KHTML, like Gecko) Chrome/130.0.0.0 Safari/537.36","WebKit","Chrome","130.0.0.0","Windows","11.0","https://hz8g1ckzuq.cognition.run/","en,en-US;q=0.9","gbaa77knbnpxf2d","38","[""Black or African-American""]","No","Non-binary","1298402.299999997","21033","","","{""price_1"":""200"",""price_2"":""230"",""price_3"":""180""}","rating","tcd","attraction_2","1","washing machines","null","null","null","null","null","null","2","60","50","60","50","60","40","Average lifespan","Energy savings","",""
"","","","","","rating_trial_setup","html-keyboard-response","31","429285","0.0-3.0-0.14","192","1","2025-04-14 14:43:43","bb671e3ae32f654b8954ea4c4635f915","","Mozilla/5.0 (Windows NT 11.0; Win64; x64) AppleWebKit/537.36 (KHTML, like Gecko) Chrome/130.0.0.0 Safari/537.36","WebKit","Chrome","130.0.0.0","Windows","11.0","https://hz8g1ckzuq.cognition.run/","en,en-US;q=0.9","gbaa77knbnpxf2d","38","[""Black or African-American""]","No","Non-binary","1298402.299999997","null","","<p></p>","null","rating","dct","attraction_2","1","microwave ovens","null","null","null","null","null","null","2","","","","","","","","","",""
"","","","","","rating_trial","survey-html-form","32","445754","0.0-3.0-1.14","192","1","2025-04-14 14:43:43","bb671e3ae32f654b8954ea4c4635f915","","Mozilla/5.0 (Windows NT 11.0; Win64; x64) AppleWebKit/537.36 (KHTML, like Gecko) Chrome/130.0.0.0 Safari/537.36","WebKit","Chrome","130.0.0.0","Windows","11.0","https://hz8g1ckzuq.cognition.run/","en,en-US;q=0.9","gbaa77knbnpxf2d","38","[""Black or African-American""]","No","Non-binary","1298402.299999997","16463","","","{""price_1"":""200"",""price_2"":""250"",""price_3"":""230""}","rating","dct","attraction_2","1","microwave ovens","null","null","null","null","null","null","2","60","50","60","50","60","40","Warranty","Cooking power","",""
"","","","","","rating_trial_setup","html-keyboard-response","33","446060","0.0-3.0-0.15","192","1","2025-04-14 14:43:43","bb671e3ae32f654b8954ea4c4635f915","","Mozilla/5.0 (Windows NT 11.0; Win64; x64) AppleWebKit/537.36 (KHTML, like Gecko) Chrome/130.0.0.0 Safari/537.36","WebKit","Chrome","130.0.0.0","Windows","11.0","https://hz8g1ckzuq.cognition.run/","en,en-US;q=0.9","gbaa77knbnpxf2d","38","[""Black or African-American""]","No","Non-binary","1298402.299999997","null","","<p></p>","null","rating","ctd","attraction_2","2","televisions","null","null","null","null","null","null","1","","","","","","","","","",""
"","","","","","rating_trial","survey-html-form","34","460162","0.0-3.0-1.15","192","1","2025-04-14 14:43:43","bb671e3ae32f654b8954ea4c4635f915","","Mozilla/5.0 (Windows NT 11.0; Win64; x64) AppleWebKit/537.36 (KHTML, like Gecko) Chrome/130.0.0.0 Safari/537.36","WebKit","Chrome","130.0.0.0","Windows","11.0","https://hz8g1ckzuq.cognition.run/","en,en-US;q=0.9","gbaa77knbnpxf2d","38","[""Black or African-American""]","No","Non-binary","1298402.299999997","14096","","","{""price_1"":""250"",""price_2"":""230"",""price_3"":""200""}","rating","ctd","attraction_2","2","televisions","null","null","null","null","null","null","1","50","60","40","60","50","60","Screen size","Average lifespan","",""
"","","","","","rating_trial_setup","html-keyboard-response","35","460468","0.0-3.0-0.16","192","1","2025-04-14 14:43:43","bb671e3ae32f654b8954ea4c4635f915","","Mozilla/5.0 (Windows NT 11.0; Win64; x64) AppleWebKit/537.36 (KHTML, like Gecko) Chrome/130.0.0.0 Safari/537.36","WebKit","Chrome","130.0.0.0","Windows","11.0","https://hz8g1ckzuq.cognition.run/","en,en-US;q=0.9","gbaa77knbnpxf2d","38","[""Black or African-American""]","No","Non-binary","1298402.299999997","null","","<p></p>","null","rating","tdc","attraction_1","2","microwave ovens","null","null","null","null","null","null","1","","","","","","","","","",""
"","","","","","rating_trial","survey-html-form","36","478412","0.0-3.0-1.16","192","1","2025-04-14 14:43:43","bb671e3ae32f654b8954ea4c4635f915","","Mozilla/5.0 (Windows NT 11.0; Win64; x64) AppleWebKit/537.36 (KHTML, like Gecko) Chrome/130.0.0.0 Safari/537.36","WebKit","Chrome","130.0.0.0","Windows","11.0","https://hz8g1ckzuq.cognition.run/","en,en-US;q=0.9","gbaa77knbnpxf2d","38","[""Black or African-American""]","No","Non-binary","1298402.299999997","17937","","","{""price_1"":""250"",""price_2"":""220"",""price_3"":""230""}","rating","tdc","attraction_1","2","microwave ovens","null","null","null","null","null","null","1","50","60","45","60","50","60","Warranty","Cooking power","",""
"","","","","","rating_trial_setup","html-keyboard-response","37","478721","0.0-3.0-0.17","192","1","2025-04-14 14:43:43","bb671e3ae32f654b8954ea4c4635f915","","Mozilla/5.0 (Windows NT 11.0; Win64; x64) AppleWebKit/537.36 (KHTML, like Gecko) Chrome/130.0.0.0 Safari/537.36","WebKit","Chrome","130.0.0.0","Windows","11.0","https://hz8g1ckzuq.cognition.run/","en,en-US;q=0.9","gbaa77knbnpxf2d","38","[""Black or African-American""]","No","Non-binary","1298402.299999997","null","","<p></p>","null","rating","dtc","repulsion_2","1","laptops","null","null","null","null","null","null","1","","","","","","","","","",""
"","","","","","rating_trial","survey-html-form","38","498603","0.0-3.0-1.17","192","1","2025-04-14 14:43:43","bb671e3ae32f654b8954ea4c4635f915","","Mozilla/5.0 (Windows NT 11.0; Win64; x64) AppleWebKit/537.36 (KHTML, like Gecko) Chrome/130.0.0.0 Safari/537.36","WebKit","Chrome","130.0.0.0","Windows","11.0","https://hz8g1ckzuq.cognition.run/","en,en-US;q=0.9","gbaa77knbnpxf2d","38","[""Black or African-American""]","No","Non-binary","1298402.299999997","19875","","","{""price_1"":""300"",""price_2"":""320"",""price_3"":""400""}","rating","dtc","repulsion_2","1","laptops","null","null","null","null","null","null","1","100","90","100","30","40","20","Processing speed","Memory (RAM)","",""
"","","","","","rating_trial_setup","html-keyboard-response","39","498910","0.0-3.0-0.18","192","1","2025-04-14 14:43:43","bb671e3ae32f654b8954ea4c4635f915","","Mozilla/5.0 (Windows NT 11.0; Win64; x64) AppleWebKit/537.36 (KHTML, like Gecko) Chrome/130.0.0.0 Safari/537.36","WebKit","Chrome","130.0.0.0","Windows","11.0","https://hz8g1ckzuq.cognition.run/","en,en-US;q=0.9","gbaa77knbnpxf2d","38","[""Black or African-American""]","No","Non-binary","1298402.299999997","null","","<p></p>","null","rating","tdc","repulsion_1","1","microwave ovens","null","null","null","null","null","null","2","","","","","","","","","",""
"","","","","","rating_trial","survey-html-form","40","525002","0.0-3.0-1.18","192","1","2025-04-14 14:43:43","bb671e3ae32f654b8954ea4c4635f915","","Mozilla/5.0 (Windows NT 11.0; Win64; x64) AppleWebKit/537.36 (KHTML, like Gecko) Chrome/130.0.0.0 Safari/537.36","WebKit","Chrome","130.0.0.0","Windows","11.0","https://hz8g1ckzuq.cognition.run/","en,en-US;q=0.9","gbaa77knbnpxf2d","38","[""Black or African-American""]","No","Non-binary","1298402.299999997","26087","","","{""price_1"":""270"",""price_2"":""250"",""price_3"":""300""}","rating","tdc","repulsion_1","1","microwave ovens","null","null","null","null","null","null","2","100","90","100","30","40","25","Warranty","Cooking power","",""
"","","","","","rating_trial_setup","html-keyboard-response","41","525310","0.0-3.0-0.19","192","1","2025-04-14 14:43:43","bb671e3ae32f654b8954ea4c4635f915","","Mozilla/5.0 (Windows NT 11.0; Win64; x64) AppleWebKit/537.36 (KHTML, like Gecko) Chrome/130.0.0.0 Safari/537.36","WebKit","Chrome","130.0.0.0","Windows","11.0","https://hz8g1ckzuq.cognition.run/","en,en-US;q=0.9","gbaa77knbnpxf2d","38","[""Black or African-American""]","No","Non-binary","1298402.299999997","null","","<p></p>","null","rating","tdc","repulsion_1","2","microwave ovens","null","null","null","null","null","null","1","","","","","","","","","",""
"","","","","","rating_trial","survey-html-form","42","541683","0.0-3.0-1.19","192","1","2025-04-14 14:43:43","bb671e3ae32f654b8954ea4c4635f915","","Mozilla/5.0 (Windows NT 11.0; Win64; x64) AppleWebKit/537.36 (KHTML, like Gecko) Chrome/130.0.0.0 Safari/537.36","WebKit","Chrome","130.0.0.0","Windows","11.0","https://hz8g1ckzuq.cognition.run/","en,en-US;q=0.9","gbaa77knbnpxf2d","38","[""Black or African-American""]","No","Non-binary","1298402.299999997","16365","","","{""price_1"":""270"",""price_2"":""240"",""price_3"":""300""}","rating","tdc","repulsion_1","2","microwave ovens","null","null","null","null","null","null","1","30","40","25","100","90","100","Warranty","Cooking power","",""
"","","","","","rating_trial_setup","html-keyboard-response","43","541990","0.0-3.0-0.20","192","1","2025-04-14 14:43:43","bb671e3ae32f654b8954ea4c4635f915","","Mozilla/5.0 (Windows NT 11.0; Win64; x64) AppleWebKit/537.36 (KHTML, like Gecko) Chrome/130.0.0.0 Safari/537.36","WebKit","Chrome","130.0.0.0","Windows","11.0","https://hz8g1ckzuq.cognition.run/","en,en-US;q=0.9","gbaa77knbnpxf2d","38","[""Black or African-American""]","No","Non-binary","1298402.299999997","null","","<p></p>","null","rating","cdt","repulsion_2","2","microwave ovens","null","null","null","null","null","null","1","","","","","","","","","",""
"","","","","","rating_trial","survey-html-form","44","562967","0.0-3.0-1.20","192","1","2025-04-14 14:43:43","bb671e3ae32f654b8954ea4c4635f915","","Mozilla/5.0 (Windows NT 11.0; Win64; x64) AppleWebKit/537.36 (KHTML, like Gecko) Chrome/130.0.0.0 Safari/537.36","WebKit","Chrome","130.0.0.0","Windows","11.0","https://hz8g1ckzuq.cognition.run/","en,en-US;q=0.9","gbaa77knbnpxf2d","38","[""Black or African-American""]","No","Non-binary","1298402.299999997","20970","","","{""price_1"":""300"",""price_2"":""270"",""price_3"":""320""}","rating","cdt","repulsion_2","2","microwave ovens","null","null","null","null","null","null","1","30","40","20","100","90","100","Warranty","Cooking power","",""
"","","","","","rating_trial_setup","html-keyboard-response","45","563274","0.0-3.0-0.21","192","1","2025-04-14 14:43:43","bb671e3ae32f654b8954ea4c4635f915","","Mozilla/5.0 (Windows NT 11.0; Win64; x64) AppleWebKit/537.36 (KHTML, like Gecko) Chrome/130.0.0.0 Safari/537.36","WebKit","Chrome","130.0.0.0","Windows","11.0","https://hz8g1ckzuq.cognition.run/","en,en-US;q=0.9","gbaa77knbnpxf2d","38","[""Black or African-American""]","No","Non-binary","1298402.299999997","null","","<p></p>","null","rating","wbw","catch","null","washing machines","90","75","30","10","30","25","2","","","","","","","","","",""
"","","","","","rating_trial","survey-html-form","46","587882","0.0-3.0-1.21","192","1","2025-04-14 14:43:43","bb671e3ae32f654b8954ea4c4635f915","","Mozilla/5.0 (Windows NT 11.0; Win64; x64) AppleWebKit/537.36 (KHTML, like Gecko) Chrome/130.0.0.0 Safari/537.36","WebKit","Chrome","130.0.0.0","Windows","11.0","https://hz8g1ckzuq.cognition.run/","en,en-US;q=0.9","gbaa77knbnpxf2d","38","[""Black or African-American""]","No","Non-binary","1298402.299999997","24601","","","{""price_1"":""100"",""price_2"":""400"",""price_3"":""180""}","rating","wbw","catch","null","washing machines","90","75","30","10","30","25","2","null","null","null","null","null","null","Average lifespan","Energy savings","",""
"","","","","","rating_trial_setup","html-keyboard-response","47","588188","0.0-3.0-0.22","192","1","2025-04-14 14:43:43","bb671e3ae32f654b8954ea4c4635f915","","Mozilla/5.0 (Windows NT 11.0; Win64; x64) AppleWebKit/537.36 (KHTML, like Gecko) Chrome/130.0.0.0 Safari/537.36","WebKit","Chrome","130.0.0.0","Windows","11.0","https://hz8g1ckzuq.cognition.run/","en,en-US;q=0.9","gbaa77knbnpxf2d","38","[""Black or African-American""]","No","Non-binary","1298402.299999997","null","","<p></p>","null","rating","dtc","attraction_2","2","washing machines","null","null","null","null","null","null","1","","","","","","","","","",""
"","","","","","rating_trial","survey-html-form","48","602594","0.0-3.0-1.22","192","1","2025-04-14 14:43:43","bb671e3ae32f654b8954ea4c4635f915","","Mozilla/5.0 (Windows NT 11.0; Win64; x64) AppleWebKit/537.36 (KHTML, like Gecko) Chrome/130.0.0.0 Safari/537.36","WebKit","Chrome","130.0.0.0","Windows","11.0","https://hz8g1ckzuq.cognition.run/","en,en-US;q=0.9","gbaa77knbnpxf2d","38","[""Black or African-American""]","No","Non-binary","1298402.299999997","14399","","","{""price_1"":""200"",""price_2"":""220"",""price_3"":""250""}","rating","dtc","attraction_2","2","washing machines","null","null","null","null","null","null","1","50","60","40","60","50","60","Average lifespan","Energy savings","",""
"","","","","","rating_trial_setup","html-keyboard-response","49","602901","0.0-3.0-0.23","192","1","2025-04-14 14:43:43","bb671e3ae32f654b8954ea4c4635f915","","Mozilla/5.0 (Windows NT 11.0; Win64; x64) AppleWebKit/537.36 (KHTML, like Gecko) Chrome/130.0.0.0 Safari/537.36","WebKit","Chrome","130.0.0.0","Windows","11.0","https://hz8g1ckzuq.cognition.run/","en,en-US;q=0.9","gbaa77knbnpxf2d","38","[""Black or African-American""]","No","Non-binary","1298402.299999997","null","","<p></p>","null","rating","tdc","attraction_2","1","laptops","null","null","null","null","null","null","2","","","","","","","","","",""
"","","","","","rating_trial","survey-html-form","50","623107","0.0-3.0-1.23","192","1","2025-04-14 14:43:43","bb671e3ae32f654b8954ea4c4635f915","","Mozilla/5.0 (Windows NT 11.0; Win64; x64) AppleWebKit/537.36 (KHTML, like Gecko) Chrome/130.0.0.0 Safari/537.36","WebKit","Chrome","130.0.0.0","Windows","11.0","https://hz8g1ckzuq.cognition.run/","en,en-US;q=0.9","gbaa77knbnpxf2d","38","[""Black or African-American""]","No","Non-binary","1298402.299999997","20197","","","{""price_1"":""300"",""price_2"":""270"",""price_3"":""320""}","rating","tdc","attraction_2","1","laptops","null","null","null","null","null","null","2","60","50","60","50","60","40","Processing speed","Memory (RAM)","",""
"","","","","","rating_trial_setup","html-keyboard-response","51","623415","0.0-3.0-0.24","192","1","2025-04-14 14:43:43","bb671e3ae32f654b8954ea4c4635f915","","Mozilla/5.0 (Windows NT 11.0; Win64; x64) AppleWebKit/537.36 (KHTML, like Gecko) Chrome/130.0.0.0 Safari/537.36","WebKit","Chrome","130.0.0.0","Windows","11.0","https://hz8g1ckzuq.cognition.run/","en,en-US;q=0.9","gbaa77knbnpxf2d","38","[""Black or African-American""]","No","Non-binary","1298402.299999997","null","","<p></p>","null","rating","dct","attraction_2","2","laptops","null","null","null","null","null","null","2","","","","","","","","","",""
"","","","","","rating_trial","survey-html-form","52","654067","0.0-3.0-1.24","192","1","2025-04-14 14:43:43","bb671e3ae32f654b8954ea4c4635f915","","Mozilla/5.0 (Windows NT 11.0; Win64; x64) AppleWebKit/537.36 (KHTML, like Gecko) Chrome/130.0.0.0 Safari/537.36","WebKit","Chrome","130.0.0.0","Windows","11.0","https://hz8g1ckzuq.cognition.run/","en,en-US;q=0.9","gbaa77knbnpxf2d","38","[""Black or African-American""]","No","Non-binary","1298402.299999997","30646","","","{""price_1"":""200"",""price_2"":""270"",""price_3"":""300""}","rating","dct","attraction_2","2","laptops","null","null","null","null","null","null","2","50","60","40","60","50","60","Processing speed","Memory (RAM)","",""
"","","","","","rating_trial_setup","html-keyboard-response","53","654375","0.0-3.0-0.25","192","1","2025-04-14 14:43:43","bb671e3ae32f654b8954ea4c4635f915","","Mozilla/5.0 (Windows NT 11.0; Win64; x64) AppleWebKit/537.36 (KHTML, like Gecko) Chrome/130.0.0.0 Safari/537.36","WebKit","Chrome","130.0.0.0","Windows","11.0","https://hz8g1ckzuq.cognition.run/","en,en-US;q=0.9","gbaa77knbnpxf2d","38","[""Black or African-American""]","No","Non-binary","1298402.299999997","null","","<p></p>","null","rating","dtc","repulsion_2","2","washing machines","null","null","null","null","null","null","2","","","","","","","","","",""
"","","","","","rating_trial","survey-html-form","54","679338","0.0-3.0-1.25","192","1","2025-04-14 14:43:43","bb671e3ae32f654b8954ea4c4635f915","","Mozilla/5.0 (Windows NT 11.0; Win64; x64) AppleWebKit/537.36 (KHTML, like Gecko) Chrome/130.0.0.0 Safari/537.36","WebKit","Chrome","130.0.0.0","Windows","11.0","https://hz8g1ckzuq.cognition.run/","en,en-US;q=0.9","gbaa77knbnpxf2d","38","[""Black or African-American""]","No","Non-binary","1298402.299999997","24956","","","{""price_1"":""220"",""price_2"":""200"",""price_3"":""280""}","rating","dtc","repulsion_2","2","washing machines","null","null","null","null","null","null","2","30","40","20","100","90","100","Average lifespan","Energy savings","",""
"","","","","","rating_trial_setup","html-keyboard-response","55","679646","0.0-3.0-0.26","192","1","2025-04-14 14:43:43","bb671e3ae32f654b8954ea4c4635f915","","Mozilla/5.0 (Windows NT 11.0; Win64; x64) AppleWebKit/537.36 (KHTML, like Gecko) Chrome/130.0.0.0 Safari/537.36","WebKit","Chrome","130.0.0.0","Windows","11.0","https://hz8g1ckzuq.cognition.run/","en,en-US;q=0.9","gbaa77knbnpxf2d","38","[""Black or African-American""]","No","Non-binary","1298402.299999997","null","","<p></p>","null","rating","wwb","catch","null","laptops","80","80","40","35","40","40","2","","","","","","","","","",""
"","","","","","rating_trial","survey-html-form","56","710866","0.0-3.0-1.26","192","1","2025-04-14 14:43:43","bb671e3ae32f654b8954ea4c4635f915","","Mozilla/5.0 (Windows NT 11.0; Win64; x64) AppleWebKit/537.36 (KHTML, like Gecko) Chrome/130.0.0.0 Safari/537.36","WebKit","Chrome","130.0.0.0","Windows","11.0","https://hz8g1ckzuq.cognition.run/","en,en-US;q=0.9","gbaa77knbnpxf2d","38","[""Black or African-American""]","No","Non-binary","1298402.299999997","31212","","","{""price_1"":""200"",""price_2"":""220"",""price_3"":""300""}","rating","wwb","catch","null","laptops","80","80","40","35","40","40","2","null","null","null","null","null","null","Processing speed","Memory (RAM)","",""
"","","","","","rating_trial_setup","html-keyboard-response","57","711175","0.0-3.0-0.27","192","1","2025-04-14 14:43:43","bb671e3ae32f654b8954ea4c4635f915","","Mozilla/5.0 (Windows NT 11.0; Win64; x64) AppleWebKit/537.36 (KHTML, like Gecko) Chrome/130.0.0.0 Safari/537.36","WebKit","Chrome","130.0.0.0","Windows","11.0","https://hz8g1ckzuq.cognition.run/","en,en-US;q=0.9","gbaa77knbnpxf2d","38","[""Black or African-American""]","No","Non-binary","1298402.299999997","null","","<p></p>","null","rating","tdc","repulsion_1","2","laptops","null","null","null","null","null","null","2","","","","","","","","","",""
"","","","","","rating_trial","survey-html-form","58","731381","0.0-3.0-1.27","192","1","2025-04-14 14:43:43","bb671e3ae32f654b8954ea4c4635f915","","Mozilla/5.0 (Windows NT 11.0; Win64; x64) AppleWebKit/537.36 (KHTML, like Gecko) Chrome/130.0.0.0 Safari/537.36","WebKit","Chrome","130.0.0.0","Windows","11.0","https://hz8g1ckzuq.cognition.run/","en,en-US;q=0.9","gbaa77knbnpxf2d","38","[""Black or African-American""]","No","Non-binary","1298402.299999997","20199","","","{""price_1"":""280"",""price_2"":""250"",""price_3"":""300""}","rating","tdc","repulsion_1","2","laptops","null","null","null","null","null","null","2","30","40","25","100","90","100","Processing speed","Memory (RAM)","",""
"","","","","","rating_trial_setup","html-keyboard-response","59","731690","0.0-3.0-0.28","192","1","2025-04-14 14:43:43","bb671e3ae32f654b8954ea4c4635f915","","Mozilla/5.0 (Windows NT 11.0; Win64; x64) AppleWebKit/537.36 (KHTML, like Gecko) Chrome/130.0.0.0 Safari/537.36","WebKit","Chrome","130.0.0.0","Windows","11.0","https://hz8g1ckzuq.cognition.run/","en,en-US;q=0.9","gbaa77knbnpxf2d","38","[""Black or African-American""]","No","Non-binary","1298402.299999997","null","","<p></p>","null","rating","ctd","repulsion_1","1","laptops","null","null","null","null","null","null","2","","","","","","","","","",""
"","","","","","rating_trial","survey-html-form","60","758963","0.0-3.0-1.28","192","1","2025-04-14 14:43:43","bb671e3ae32f654b8954ea4c4635f915","","Mozilla/5.0 (Windows NT 11.0; Win64; x64) AppleWebKit/537.36 (KHTML, like Gecko) Chrome/130.0.0.0 Safari/537.36","WebKit","Chrome","130.0.0.0","Windows","11.0","https://hz8g1ckzuq.cognition.run/","en,en-US;q=0.9","gbaa77knbnpxf2d","38","[""Black or African-American""]","No","Non-binary","1298402.299999997","27263","","","{""price_1"":""300"",""price_2"":""280"",""price_3"":""250""}","rating","ctd","repulsion_1","1","laptops","null","null","null","null","null","null","2","100","90","100","30","40","25","Processing speed","Memory (RAM)","",""
"","","","","","rating_trial_setup","html-keyboard-response","61","759271","0.0-3.0-0.29","192","1","2025-04-14 14:43:43","bb671e3ae32f654b8954ea4c4635f915","","Mozilla/5.0 (Windows NT 11.0; Win64; x64) AppleWebKit/537.36 (KHTML, like Gecko) Chrome/130.0.0.0 Safari/537.36","WebKit","Chrome","130.0.0.0","Windows","11.0","https://hz8g1ckzuq.cognition.run/","en,en-US;q=0.9","gbaa77knbnpxf2d","38","[""Black or African-American""]","No","Non-binary","1298402.299999997","null","","<p></p>","null","rating","tcd","repulsion_1","1","televisions","null","null","null","null","null","null","1","","","","","","","","","",""
"","","","","","rating_trial","survey-html-form","62","782866","0.0-3.0-1.29","192","1","2025-04-14 14:43:43","bb671e3ae32f654b8954ea4c4635f915","","Mozilla/5.0 (Windows NT 11.0; Win64; x64) AppleWebKit/537.36 (KHTML, like Gecko) Chrome/130.0.0.0 Safari/537.36","WebKit","Chrome","130.0.0.0","Windows","11.0","https://hz8g1ckzuq.cognition.run/","en,en-US;q=0.9","gbaa77knbnpxf2d","38","[""Black or African-American""]","No","Non-binary","1298402.299999997","23587","","","{""price_1"":""200"",""price_2"":""280"",""price_3"":""180""}","rating","tcd","repulsion_1","1","televisions","null","null","null","null","null","null","1","100","90","100","30","40","25","Screen size","Average lifespan","",""
"","","","","","rating_trial_setup","html-keyboard-response","63","783175","0.0-3.0-0.30","192","1","2025-04-14 14:43:43","bb671e3ae32f654b8954ea4c4635f915","","Mozilla/5.0 (Windows NT 11.0; Win64; x64) AppleWebKit/537.36 (KHTML, like Gecko) Chrome/130.0.0.0 Safari/537.36","WebKit","Chrome","130.0.0.0","Windows","11.0","https://hz8g1ckzuq.cognition.run/","en,en-US;q=0.9","gbaa77knbnpxf2d","38","[""Black or African-American""]","No","Non-binary","1298402.299999997","null","","<p></p>","null","rating","tdc","repulsion_2","1","washing machines","null","null","null","null","null","null","1","","","","","","","","","",""
"","","","","","rating_trial","survey-html-form","64","810643","0.0-3.0-1.30","192","1","2025-04-14 14:43:43","bb671e3ae32f654b8954ea4c4635f915","","Mozilla/5.0 (Windows NT 11.0; Win64; x64) AppleWebKit/537.36 (KHTML, like Gecko) Chrome/130.0.0.0 Safari/537.36","WebKit","Chrome","130.0.0.0","Windows","11.0","https://hz8g1ckzuq.cognition.run/","en,en-US;q=0.9","gbaa77knbnpxf2d","38","[""Black or African-American""]","No","Non-binary","1298402.299999997","27459","","","{""price_1"":""300"",""price_2"":""280"",""price_3"":""320""}","rating","tdc","repulsion_2","1","washing machines","null","null","null","null","null","null","1","100","90","100","30","40","20","Average lifespan","Energy savings","",""
"","","","","","rating_trial_setup","html-keyboard-response","65","810953","0.0-3.0-0.31","192","1","2025-04-14 14:43:43","bb671e3ae32f654b8954ea4c4635f915","","Mozilla/5.0 (Windows NT 11.0; Win64; x64) AppleWebKit/537.36 (KHTML, like Gecko) Chrome/130.0.0.0 Safari/537.36","WebKit","Chrome","130.0.0.0","Windows","11.0","https://hz8g1ckzuq.cognition.run/","en,en-US;q=0.9","gbaa77knbnpxf2d","38","[""Black or African-American""]","No","Non-binary","1298402.299999997","null","","<p></p>","null","rating","bww","catch","null","televisions","55","50","30","20","15","20","1","","","","","","","","","",""
"","","","","","rating_trial","survey-html-form","66","828802","0.0-3.0-1.31","192","1","2025-04-14 14:43:43","bb671e3ae32f654b8954ea4c4635f915","","Mozilla/5.0 (Windows NT 11.0; Win64; x64) AppleWebKit/537.36 (KHTML, like Gecko) Chrome/130.0.0.0 Safari/537.36","WebKit","Chrome","130.0.0.0","Windows","11.0","https://hz8g1ckzuq.cognition.run/","en,en-US;q=0.9","gbaa77knbnpxf2d","38","[""Black or African-American""]","No","Non-binary","1298402.299999997","17841","","","{""price_1"":""250"",""price_2"":""180"",""price_3"":""100""}","rating","bww","catch","null","televisions","55","50","30","20","15","20","1","null","null","null","null","null","null","Screen size","Average lifespan","",""
"","","","","","rating_trial_setup","html-keyboard-response","67","829111","0.0-3.0-0.32","192","1","2025-04-14 14:43:43","bb671e3ae32f654b8954ea4c4635f915","","Mozilla/5.0 (Windows NT 11.0; Win64; x64) AppleWebKit/537.36 (KHTML, like Gecko) Chrome/130.0.0.0 Safari/537.36","WebKit","Chrome","130.0.0.0","Windows","11.0","https://hz8g1ckzuq.cognition.run/","en,en-US;q=0.9","gbaa77knbnpxf2d","38","[""Black or African-American""]","No","Non-binary","1298402.299999997","null","","<p></p>","null","rating","bww","catch","null","laptops","75","95","30","30","15","45","1","","","","","","","","","",""
"","","","","","rating_trial","survey-html-form","68","849706","0.0-3.0-1.32","192","1","2025-04-14 14:43:43","bb671e3ae32f654b8954ea4c4635f915","","Mozilla/5.0 (Windows NT 11.0; Win64; x64) AppleWebKit/537.36 (KHTML, like Gecko) Chrome/130.0.0.0 Safari/537.36","WebKit","Chrome","130.0.0.0","Windows","11.0","https://hz8g1ckzuq.cognition.run/","en,en-US;q=0.9","gbaa77knbnpxf2d","38","[""Black or African-American""]","No","Non-binary","1298402.299999997","20586","","","{""price_1"":""350"",""price_2"":""180"",""price_3"":""150""}","rating","bww","catch","null","laptops","75","95","30","30","15","45","1","null","null","null","null","null","null","Processing speed","Memory (RAM)","",""
"","","","","","rating_trial_setup","html-keyboard-response","69","850016","0.0-3.0-0.33","192","1","2025-04-14 14:43:43","bb671e3ae32f654b8954ea4c4635f915","","Mozilla/5.0 (Windows NT 11.0; Win64; x64) AppleWebKit/537.36 (KHTML, like Gecko) Chrome/130.0.0.0 Safari/537.36","WebKit","Chrome","130.0.0.0","Windows","11.0","https://hz8g1ckzuq.cognition.run/","en,en-US;q=0.9","gbaa77knbnpxf2d","38","[""Black or African-American""]","No","Non-binary","1298402.299999997","null","","<p></p>","null","rating","dtc","repulsion_2","1","microwave ovens","null","null","null","null","null","null","2","","","","","","","","","",""
"","","","","","rating_trial","survey-html-form","70","864731","0.0-3.0-1.33","192","1","2025-04-14 14:43:43","bb671e3ae32f654b8954ea4c4635f915","","Mozilla/5.0 (Windows NT 11.0; Win64; x64) AppleWebKit/537.36 (KHTML, like Gecko) Chrome/130.0.0.0 Safari/537.36","WebKit","Chrome","130.0.0.0","Windows","11.0","https://hz8g1ckzuq.cognition.run/","en,en-US;q=0.9","gbaa77knbnpxf2d","38","[""Black or African-American""]","No","Non-binary","1298402.299999997","14706","","","{""price_1"":""200"",""price_2"":""250"",""price_3"":""280""}","rating","dtc","repulsion_2","1","microwave ovens","null","null","null","null","null","null","2","100","90","100","30","40","20","Warranty","Cooking power","",""
"","","","","","rating_trial_setup","html-keyboard-response","71","865039","0.0-3.0-0.34","192","1","2025-04-14 14:43:43","bb671e3ae32f654b8954ea4c4635f915","","Mozilla/5.0 (Windows NT 11.0; Win64; x64) AppleWebKit/537.36 (KHTML, like Gecko) Chrome/130.0.0.0 Safari/537.36","WebKit","Chrome","130.0.0.0","Windows","11.0","https://hz8g1ckzuq.cognition.run/","en,en-US;q=0.9","gbaa77knbnpxf2d","38","[""Black or African-American""]","No","Non-binary","1298402.299999997","null","","<p></p>","null","rating","tdc","repulsion_1","2","washing machines","null","null","null","null","null","null","1","","","","","","","","","",""
"","","","","","rating_trial","survey-html-form","72","881052","0.0-3.0-1.34","192","1","2025-04-14 14:43:43","bb671e3ae32f654b8954ea4c4635f915","","Mozilla/5.0 (Windows NT 11.0; Win64; x64) AppleWebKit/537.36 (KHTML, like Gecko) Chrome/130.0.0.0 Safari/537.36","WebKit","Chrome","130.0.0.0","Windows","11.0","https://hz8g1ckzuq.cognition.run/","en,en-US;q=0.9","gbaa77knbnpxf2d","38","[""Black or African-American""]","No","Non-binary","1298402.299999997","16004","","","{""price_1"":""300"",""price_2"":""280"",""price_3"":""320""}","rating","tdc","repulsion_1","2","washing machines","null","null","null","null","null","null","1","30","40","25","100","90","100","Average lifespan","Energy savings","",""
"","","","","","rating_trial_setup","html-keyboard-response","73","881366","0.0-3.0-0.35","192","1","2025-04-14 14:43:43","bb671e3ae32f654b8954ea4c4635f915","","Mozilla/5.0 (Windows NT 11.0; Win64; x64) AppleWebKit/537.36 (KHTML, like Gecko) Chrome/130.0.0.0 Safari/537.36","WebKit","Chrome","130.0.0.0","Windows","11.0","https://hz8g1ckzuq.cognition.run/","en,en-US;q=0.9","gbaa77knbnpxf2d","38","[""Black or African-American""]","No","Non-binary","1298402.299999997","null","","<p></p>","null","rating","dtc","attraction_1","1","laptops","null","null","null","null","null","null","2","","","","","","","","","",""
"","","","","","rating_trial","survey-html-form","74","905051","0.0-3.0-1.35","192","1","2025-04-14 14:43:43","bb671e3ae32f654b8954ea4c4635f915","","Mozilla/5.0 (Windows NT 11.0; Win64; x64) AppleWebKit/537.36 (KHTML, like Gecko) Chrome/130.0.0.0 Safari/537.36","WebKit","Chrome","130.0.0.0","Windows","11.0","https://hz8g1ckzuq.cognition.run/","en,en-US;q=0.9","gbaa77knbnpxf2d","38","[""Black or African-American""]","No","Non-binary","1298402.299999997","23677","","","{""price_1"":""200"",""price_2"":""230"",""price_3"":""250""}","rating","dtc","attraction_1","1","laptops","null","null","null","null","null","null","2","60","50","60","50","60","45","Processing speed","Memory (RAM)","",""
"","","","","","rating_trial_setup","html-keyboard-response","75","905366","0.0-3.0-0.36","192","1","2025-04-14 14:43:43","bb671e3ae32f654b8954ea4c4635f915","","Mozilla/5.0 (Windows NT 11.0; Win64; x64) AppleWebKit/537.36 (KHTML, like Gecko) Chrome/130.0.0.0 Safari/537.36","WebKit","Chrome","130.0.0.0","Windows","11.0","https://hz8g1ckzuq.cognition.run/","en,en-US;q=0.9","gbaa77knbnpxf2d","38","[""Black or African-American""]","No","Non-binary","1298402.299999997","null","","<p></p>","null","rating","tcd","attraction_2","1","televisions","null","null","null","null","null","null","1","","","","","","","","","",""
"","","","","","rating_trial","survey-html-form","76","930011","0.0-3.0-1.36","192","1","2025-04-14 14:43:43","bb671e3ae32f654b8954ea4c4635f915","","Mozilla/5.0 (Windows NT 11.0; Win64; x64) AppleWebKit/537.36 (KHTML, like Gecko) Chrome/130.0.0.0 Safari/537.36","WebKit","Chrome","130.0.0.0","Windows","11.0","https://hz8g1ckzuq.cognition.run/","en,en-US;q=0.9","gbaa77knbnpxf2d","38","[""Black or African-American""]","No","Non-binary","1298402.299999997","24632","","","{""price_1"":""200"",""price_2"":""220"",""price_3"":""190""}","rating","tcd","attraction_2","1","televisions","null","null","null","null","null","null","1","60","50","60","50","60","40","Screen size","Average lifespan","",""
"","","","","","rating_trial_setup","html-keyboard-response","77","930321","0.0-3.0-0.37","192","1","2025-04-14 14:43:43","bb671e3ae32f654b8954ea4c4635f915","","Mozilla/5.0 (Windows NT 11.0; Win64; x64) AppleWebKit/537.36 (KHTML, like Gecko) Chrome/130.0.0.0 Safari/537.36","WebKit","Chrome","130.0.0.0","Windows","11.0","https://hz8g1ckzuq.cognition.run/","en,en-US;q=0.9","gbaa77knbnpxf2d","38","[""Black or African-American""]","No","Non-binary","1298402.299999997","null","","<p></p>","null","rating","bww","catch","null","microwave ovens","80","55","25","20","35","5","2","","","","","","","","","",""
"","","","","","rating_trial","survey-html-form","78","944531","0.0-3.0-1.37","192","1","2025-04-14 14:43:43","bb671e3ae32f654b8954ea4c4635f915","","Mozilla/5.0 (Windows NT 11.0; Win64; x64) AppleWebKit/537.36 (KHTML, like Gecko) Chrome/130.0.0.0 Safari/537.36","WebKit","Chrome","130.0.0.0","Windows","11.0","https://hz8g1ckzuq.cognition.run/","en,en-US;q=0.9","gbaa77knbnpxf2d","38","[""Black or African-American""]","No","Non-binary","1298402.299999997","14200","","","{""price_1"":""300"",""price_2"":""180"",""price_3"":""150""}","rating","bww","catch","null","microwave ovens","80","55","25","20","35","5","2","null","null","null","null","null","null","Warranty","Cooking power","",""
"","","","","","rating_trial_setup","html-keyboard-response","79","944839","0.0-3.0-0.38","192","1","2025-04-14 14:43:43","bb671e3ae32f654b8954ea4c4635f915","","Mozilla/5.0 (Windows NT 11.0; Win64; x64) AppleWebKit/537.36 (KHTML, like Gecko) Chrome/130.0.0.0 Safari/537.36","WebKit","Chrome","130.0.0.0","Windows","11.0","https://hz8g1ckzuq.cognition.run/","en,en-US;q=0.9","gbaa77knbnpxf2d","38","[""Black or African-American""]","No","Non-binary","1298402.299999997","null","","<p></p>","null","rating","dtc","repulsion_1","1","washing machines","null","null","null","null","null","null","2","","","","","","","","","",""
"","","","","","rating_trial","survey-html-form","80","976866","0.0-3.0-1.38","192","1","2025-04-14 14:43:43","bb671e3ae32f654b8954ea4c4635f915","","Mozilla/5.0 (Windows NT 11.0; Win64; x64) AppleWebKit/537.36 (KHTML, like Gecko) Chrome/130.0.0.0 Safari/537.36","WebKit","Chrome","130.0.0.0","Windows","11.0","https://hz8g1ckzuq.cognition.run/","en,en-US;q=0.9","gbaa77knbnpxf2d","38","[""Black or African-American""]","No","Non-binary","1298402.299999997","32016","","","{""price_1"":""200"",""price_2"":""270"",""price_3"":""320""}","rating","dtc","repulsion_1","1","washing machines","null","null","null","null","null","null","2","100","90","100","30","40","25","Average lifespan","Energy savings","",""
"","","","","","rating_trial_setup","html-keyboard-response","81","977177","0.0-3.0-0.39","192","1","2025-04-14 14:43:43","bb671e3ae32f654b8954ea4c4635f915","","Mozilla/5.0 (Windows NT 11.0; Win64; x64) AppleWebKit/537.36 (KHTML, like Gecko) Chrome/130.0.0.0 Safari/537.36","WebKit","Chrome","130.0.0.0","Windows","11.0","https://hz8g1ckzuq.cognition.run/","en,en-US;q=0.9","gbaa77knbnpxf2d","38","[""Black or African-American""]","No","Non-binary","1298402.299999997","null","","<p></p>","null","rating","cdt","attraction_2","2","microwave ovens","null","null","null","null","null","null","2","","","","","","","","","",""
"","","","","","rating_trial","survey-html-form","82","1016875","0.0-3.0-1.39","192","1","2025-04-14 14:43:43","bb671e3ae32f654b8954ea4c4635f915","","Mozilla/5.0 (Windows NT 11.0; Win64; x64) AppleWebKit/537.36 (KHTML, like Gecko) Chrome/130.0.0.0 Safari/537.36","WebKit","Chrome","130.0.0.0","Windows","11.0","https://hz8g1ckzuq.cognition.run/","en,en-US;q=0.9","gbaa77knbnpxf2d","38","[""Black or African-American""]","No","Non-binary","1298402.299999997","39685","","","{""price_1"":""200"",""price_2"":""180"",""price_3"":""220""}","rating","cdt","attraction_2","2","microwave ovens","null","null","null","null","null","null","2","50","60","40","60","50","60","Warranty","Cooking power","",""
"","","","","","","instructions","83","1092265","0.0-4.0","192","1","2025-04-14 14:43:43","bb671e3ae32f654b8954ea4c4635f915","","Mozilla/5.0 (Windows NT 11.0; Win64; x64) AppleWebKit/537.36 (KHTML, like Gecko) Chrome/130.0.0.0 Safari/537.36","WebKit","Chrome","130.0.0.0","Windows","11.0","https://hz8g1ckzuq.cognition.run/","en,en-US;q=0.9","gbaa77knbnpxf2d","38","[""Black or African-American""]","No","Non-binary","1298402.299999997","75380","[{""page_index"":0,""viewing_time"":2251},{""page_index"":1,""viewing_time"":824},{""page_index"":2,""viewing_time"":3280},{""page_index"":3,""viewing_time"":2728},{""page_index"":4,""viewing_time"":1512},{""page_index"":5,""viewing_time"":1640},{""page_index"":6,""viewing_time"":60528},{""page_index"":7,""viewing_time"":2616}]","","","","","","","","","","","","","","","","","","","","","","","",""
"","","","","","choice_trial_setup","html-keyboard-response","84","1092578","0.0-5.0-0.0","192","1","2025-04-14 14:43:43","bb671e3ae32f654b8954ea4c4635f915","","Mozilla/5.0 (Windows NT 11.0; Win64; x64) AppleWebKit/537.36 (KHTML, like Gecko) Chrome/130.0.0.0 Safari/537.36","WebKit","Chrome","130.0.0.0","Windows","11.0","https://hz8g1ckzuq.cognition.run/","en,en-US;q=0.9","gbaa77knbnpxf2d","38","[""Black or African-American""]","No","Non-binary","1298402.299999997","null","","<p></p>","null","choice","dct","repulsion_2","2","televisions","null","null","null","null","null","null","2","","","","","","","","","",""
"","","","","","choice_trial","survey-html-form","85","1103665","0.0-5.0-1.0","192","1","2025-04-14 14:43:43","bb671e3ae32f654b8954ea4c4635f915","","Mozilla/5.0 (Windows NT 11.0; Win64; x64) AppleWebKit/537.36 (KHTML, like Gecko) Chrome/130.0.0.0 Safari/537.36","WebKit","Chrome","130.0.0.0","Windows","11.0","https://hz8g1ckzuq.cognition.run/","en,en-US;q=0.9","gbaa77knbnpxf2d","38","[""Black or African-American""]","No","Non-binary","1298402.299999997","11075","","","{""product_choice"":""B""}","choice","dct","repulsion_2","2","televisions","null","null","null","null","null","null","2","30","40","20","100","90","100","Screen size","Average lifespan","",""
"","","","","","choice_trial_setup","html-keyboard-response","86","1103975","0.0-5.0-0.1","192","1","2025-04-14 14:43:43","bb671e3ae32f654b8954ea4c4635f915","","Mozilla/5.0 (Windows NT 11.0; Win64; x64) AppleWebKit/537.36 (KHTML, like Gecko) Chrome/130.0.0.0 Safari/537.36","WebKit","Chrome","130.0.0.0","Windows","11.0","https://hz8g1ckzuq.cognition.run/","en,en-US;q=0.9","gbaa77knbnpxf2d","38","[""Black or African-American""]","No","Non-binary","1298402.299999997","null","","<p></p>","null","choice","tcd","attraction_2","2","microwave ovens","null","null","null","null","null","null","1","","","","","","","","","",""
"","","","","","choice_trial","survey-html-form","87","1107697","0.0-5.0-1.1","192","1","2025-04-14 14:43:43","bb671e3ae32f654b8954ea4c4635f915","","Mozilla/5.0 (Windows NT 11.0; Win64; x64) AppleWebKit/537.36 (KHTML, like Gecko) Chrome/130.0.0.0 Safari/537.36","WebKit","Chrome","130.0.0.0","Windows","11.0","https://hz8g1ckzuq.cognition.run/","en,en-US;q=0.9","gbaa77knbnpxf2d","38","[""Black or African-American""]","No","Non-binary","1298402.299999997","3714","","","{""product_choice"":""B""}","choice","tcd","attraction_2","2","microwave ovens","null","null","null","null","null","null","1","50","60","40","60","50","60","Warranty","Cooking power","",""
"","","","","","choice_trial_setup","html-keyboard-response","88","1108009","0.0-5.0-0.2","192","1","2025-04-14 14:43:43","bb671e3ae32f654b8954ea4c4635f915","","Mozilla/5.0 (Windows NT 11.0; Win64; x64) AppleWebKit/537.36 (KHTML, like Gecko) Chrome/130.0.0.0 Safari/537.36","WebKit","Chrome","130.0.0.0","Windows","11.0","https://hz8g1ckzuq.cognition.run/","en,en-US;q=0.9","gbaa77knbnpxf2d","38","[""Black or African-American""]","No","Non-binary","1298402.299999997","null","","<p></p>","null","choice","cdt","attraction_2","2","televisions","null","null","null","null","null","null","1","","","","","","","","","",""
"","","","","","choice_trial","survey-html-form","89","1111225","0.0-5.0-1.2","192","1","2025-04-14 14:43:43","bb671e3ae32f654b8954ea4c4635f915","","Mozilla/5.0 (Windows NT 11.0; Win64; x64) AppleWebKit/537.36 (KHTML, like Gecko) Chrome/130.0.0.0 Safari/537.36","WebKit","Chrome","130.0.0.0","Windows","11.0","https://hz8g1ckzuq.cognition.run/","en,en-US;q=0.9","gbaa77knbnpxf2d","38","[""Black or African-American""]","No","Non-binary","1298402.299999997","3206","","","{""product_choice"":""A""}","choice","cdt","attraction_2","2","televisions","null","null","null","null","null","null","1","50","60","40","60","50","60","Screen size","Average lifespan","",""
"","","","","","choice_trial_setup","html-keyboard-response","90","1111535","0.0-5.0-0.3","192","1","2025-04-14 14:43:43","bb671e3ae32f654b8954ea4c4635f915","","Mozilla/5.0 (Windows NT 11.0; Win64; x64) AppleWebKit/537.36 (KHTML, like Gecko) Chrome/130.0.0.0 Safari/537.36","WebKit","Chrome","130.0.0.0","Windows","11.0","https://hz8g1ckzuq.cognition.run/","en,en-US;q=0.9","gbaa77knbnpxf2d","38","[""Black or African-American""]","No","Non-binary","1298402.299999997","null","","<p></p>","null","choice","ctd","repulsion_1","2","microwave ovens","null","null","null","null","null","null","1","","","","","","","","","",""
"","","","","","choice_trial","survey-html-form","91","1115346","0.0-5.0-1.3","192","1","2025-04-14 14:43:43","bb671e3ae32f654b8954ea4c4635f915","","Mozilla/5.0 (Windows NT 11.0; Win64; x64) AppleWebKit/537.36 (KHTML, like Gecko) Chrome/130.0.0.0 Safari/537.36","WebKit","Chrome","130.0.0.0","Windows","11.0","https://hz8g1ckzuq.cognition.run/","en,en-US;q=0.9","gbaa77knbnpxf2d","38","[""Black or African-American""]","No","Non-binary","1298402.299999997","3801","","","{""product_choice"":""A""}","choice","ctd","repulsion_1","2","microwave ovens","null","null","null","null","null","null","1","30","40","25","100","90","100","Warranty","Cooking power","",""
"","","","","","choice_trial_setup","html-keyboard-response","92","1115661","0.0-5.0-0.4","192","1","2025-04-14 14:43:43","bb671e3ae32f654b8954ea4c4635f915","","Mozilla/5.0 (Windows NT 11.0; Win64; x64) AppleWebKit/537.36 (KHTML, like Gecko) Chrome/130.0.0.0 Safari/537.36","WebKit","Chrome","130.0.0.0","Windows","11.0","https://hz8g1ckzuq.cognition.run/","en,en-US;q=0.9","gbaa77knbnpxf2d","38","[""Black or African-American""]","No","Non-binary","1298402.299999997","null","","<p></p>","null","choice","wwb","catch","null","washing machines","85","70","45","20","50","35","2","","","","","","","","","",""
"","","","","","choice_trial","survey-html-form","93","1118618","0.0-5.0-1.4","192","1","2025-04-14 14:43:43","bb671e3ae32f654b8954ea4c4635f915","","Mozilla/5.0 (Windows NT 11.0; Win64; x64) AppleWebKit/537.36 (KHTML, like Gecko) Chrome/130.0.0.0 Safari/537.36","WebKit","Chrome","130.0.0.0","Windows","11.0","https://hz8g1ckzuq.cognition.run/","en,en-US;q=0.9","gbaa77knbnpxf2d","38","[""Black or African-American""]","No","Non-binary","1298402.299999997","2938","","","{""product_choice"":""C""}","choice","wwb","catch","null","washing machines","85","70","45","20","50","35","2","null","null","null","null","null","null","Average lifespan","Energy savings","",""
"","","","","","choice_trial_setup","html-keyboard-response","94","1118928","0.0-5.0-0.5","192","1","2025-04-14 14:43:43","bb671e3ae32f654b8954ea4c4635f915","","Mozilla/5.0 (Windows NT 11.0; Win64; x64) AppleWebKit/537.36 (KHTML, like Gecko) Chrome/130.0.0.0 Safari/537.36","WebKit","Chrome","130.0.0.0","Windows","11.0","https://hz8g1ckzuq.cognition.run/","en,en-US;q=0.9","gbaa77knbnpxf2d","38","[""Black or African-American""]","No","Non-binary","1298402.299999997","null","","<p></p>","null","choice","dtc","attraction_1","2","televisions","null","null","null","null","null","null","2","","","","","","","","","",""
"","","","","","choice_trial","survey-html-form","95","1122521","0.0-5.0-1.5","192","1","2025-04-14 14:43:43","bb671e3ae32f654b8954ea4c4635f915","","Mozilla/5.0 (Windows NT 11.0; Win64; x64) AppleWebKit/537.36 (KHTML, like Gecko) Chrome/130.0.0.0 Safari/537.36","WebKit","Chrome","130.0.0.0","Windows","11.0","https://hz8g1ckzuq.cognition.run/","en,en-US;q=0.9","gbaa77knbnpxf2d","38","[""Black or African-American""]","No","Non-binary","1298402.299999997","3583","","","{""product_choice"":""B""}","choice","dtc","attraction_1","2","televisions","null","null","null","null","null","null","2","50","60","45","60","50","60","Screen size","Average lifespan","",""
"","","","","","choice_trial_setup","html-keyboard-response","96","1122833","0.0-5.0-0.6","192","1","2025-04-14 14:43:43","bb671e3ae32f654b8954ea4c4635f915","","Mozilla/5.0 (Windows NT 11.0; Win64; x64) AppleWebKit/537.36 (KHTML, like Gecko) Chrome/130.0.0.0 Safari/537.36","WebKit","Chrome","130.0.0.0","Windows","11.0","https://hz8g1ckzuq.cognition.run/","en,en-US;q=0.9","gbaa77knbnpxf2d","38","[""Black or African-American""]","No","Non-binary","1298402.299999997","null","","<p></p>","null","choice","tdc","repulsion_1","1","televisions","null","null","null","null","null","null","2","","","","","","","","","",""
"","","","","","choice_trial","survey-html-form","97","1125513","0.0-5.0-1.6","192","1","2025-04-14 14:43:43","bb671e3ae32f654b8954ea4c4635f915","","Mozilla/5.0 (Windows NT 11.0; Win64; x64) AppleWebKit/537.36 (KHTML, like Gecko) Chrome/130.0.0.0 Safari/537.36","WebKit","Chrome","130.0.0.0","Windows","11.0","https://hz8g1ckzuq.cognition.run/","en,en-US;q=0.9","gbaa77knbnpxf2d","38","[""Black or African-American""]","No","Non-binary","1298402.299999997","2669","","","{""product_choice"":""C""}","choice","tdc","repulsion_1","1","televisions","null","null","null","null","null","null","2","100","90","100","30","40","25","Screen size","Average lifespan","",""
"","","","","","choice_trial_setup","html-keyboard-response","98","1125822","0.0-5.0-0.7","192","1","2025-04-14 14:43:43","bb671e3ae32f654b8954ea4c4635f915","","Mozilla/5.0 (Windows NT 11.0; Win64; x64) AppleWebKit/537.36 (KHTML, like Gecko) Chrome/130.0.0.0 Safari/537.36","WebKit","Chrome","130.0.0.0","Windows","11.0","https://hz8g1ckzuq.cognition.run/","en,en-US;q=0.9","gbaa77knbnpxf2d","38","[""Black or African-American""]","No","Non-binary","1298402.299999997","null","","<p></p>","null","choice","ctd","attraction_2","1","televisions","null","null","null","null","null","null","2","","","","","","","","","",""
"","","","","","choice_trial","survey-html-form","99","1130177","0.0-5.0-1.7","192","1","2025-04-14 14:43:43","bb671e3ae32f654b8954ea4c4635f915","","Mozilla/5.0 (Windows NT 11.0; Win64; x64) AppleWebKit/537.36 (KHTML, like Gecko) Chrome/130.0.0.0 Safari/537.36","WebKit","Chrome","130.0.0.0","Windows","11.0","https://hz8g1ckzuq.cognition.run/","en,en-US;q=0.9","gbaa77knbnpxf2d","38","[""Black or African-American""]","No","Non-binary","1298402.299999997","4344","","","{""product_choice"":""A""}","choice","ctd","attraction_2","1","televisions","null","null","null","null","null","null","2","60","50","60","50","60","40","Screen size","Average lifespan","",""
"","","","","","choice_trial_setup","html-keyboard-response","100","1130489","0.0-5.0-0.8","192","1","2025-04-14 14:43:43","bb671e3ae32f654b8954ea4c4635f915","","Mozilla/5.0 (Windows NT 11.0; Win64; x64) AppleWebKit/537.36 (KHTML, like Gecko) Chrome/130.0.0.0 Safari/537.36","WebKit","Chrome","130.0.0.0","Windows","11.0","https://hz8g1ckzuq.cognition.run/","en,en-US;q=0.9","gbaa77knbnpxf2d","38","[""Black or African-American""]","No","Non-binary","1298402.299999997","null","","<p></p>","null","choice","dct","repulsion_1","1","microwave ovens","null","null","null","null","null","null","1","","","","","","","","","",""
"","","","","","choice_trial","survey-html-form","101","1133913","0.0-5.0-1.8","192","1","2025-04-14 14:43:43","bb671e3ae32f654b8954ea4c4635f915","","Mozilla/5.0 (Windows NT 11.0; Win64; x64) AppleWebKit/537.36 (KHTML, like Gecko) Chrome/130.0.0.0 Safari/537.36","WebKit","Chrome","130.0.0.0","Windows","11.0","https://hz8g1ckzuq.cognition.run/","en,en-US;q=0.9","gbaa77knbnpxf2d","38","[""Black or African-American""]","No","Non-binary","1298402.299999997","3412","","","{""product_choice"":""B""}","choice","dct","repulsion_1","1","microwave ovens","null","null","null","null","null","null","1","100","90","100","30","40","25","Warranty","Cooking power","",""
"","","","","","choice_trial_setup","html-keyboard-response","102","1134225","0.0-5.0-0.9","192","1","2025-04-14 14:43:43","bb671e3ae32f654b8954ea4c4635f915","","Mozilla/5.0 (Windows NT 11.0; Win64; x64) AppleWebKit/537.36 (KHTML, like Gecko) Chrome/130.0.0.0 Safari/537.36","WebKit","Chrome","130.0.0.0","Windows","11.0","https://hz8g1ckzuq.cognition.run/","en,en-US;q=0.9","gbaa77knbnpxf2d","38","[""Black or African-American""]","No","Non-binary","1298402.299999997","null","","<p></p>","null","choice","bww","catch","null","televisions","55","65","20","40","5","15","1","","","","","","","","","",""
"","","","","","choice_trial","survey-html-form","103","1136665","0.0-5.0-1.9","192","1","2025-04-14 14:43:43","bb671e3ae32f654b8954ea4c4635f915","","Mozilla/5.0 (Windows NT 11.0; Win64; x64) AppleWebKit/537.36 (KHTML, like Gecko) Chrome/130.0.0.0 Safari/537.36","WebKit","Chrome","130.0.0.0","Windows","11.0","https://hz8g1ckzuq.cognition.run/","en,en-US;q=0.9","gbaa77knbnpxf2d","38","[""Black or African-American""]","No","Non-binary","1298402.299999997","2427","","","{""product_choice"":""A""}","choice","bww","catch","null","televisions","55","65","20","40","5","15","1","null","null","null","null","null","null","Screen size","Average lifespan","",""
"","","","","","choice_trial_setup","html-keyboard-response","104","1136976","0.0-5.0-0.10","192","1","2025-04-14 14:43:43","bb671e3ae32f654b8954ea4c4635f915","","Mozilla/5.0 (Windows NT 11.0; Win64; x64) AppleWebKit/537.36 (KHTML, like Gecko) Chrome/130.0.0.0 Safari/537.36","WebKit","Chrome","130.0.0.0","Windows","11.0","https://hz8g1ckzuq.cognition.run/","en,en-US;q=0.9","gbaa77knbnpxf2d","38","[""Black or African-American""]","No","Non-binary","1298402.299999997","null","","<p></p>","null","choice","tcd","attraction_2","2","washing machines","null","null","null","null","null","null","2","","","","","","","","","",""
"","","","","","choice_trial","survey-html-form","105","1139873","0.0-5.0-1.10","192","1","2025-04-14 14:43:43","bb671e3ae32f654b8954ea4c4635f915","","Mozilla/5.0 (Windows NT 11.0; Win64; x64) AppleWebKit/537.36 (KHTML, like Gecko) Chrome/130.0.0.0 Safari/537.36","WebKit","Chrome","130.0.0.0","Windows","11.0","https://hz8g1ckzuq.cognition.run/","en,en-US;q=0.9","gbaa77knbnpxf2d","38","[""Black or African-American""]","No","Non-binary","1298402.299999997","2877","","","{""product_choice"":""A""}","choice","tcd","attraction_2","2","washing machines","null","null","null","null","null","null","2","50","60","40","60","50","60","Average lifespan","Energy savings","",""
"","","","","","choice_trial_setup","html-keyboard-response","106","1140184","0.0-5.0-0.11","192","1","2025-04-14 14:43:43","bb671e3ae32f654b8954ea4c4635f915","","Mozilla/5.0 (Windows NT 11.0; Win64; x64) AppleWebKit/537.36 (KHTML, like Gecko) Chrome/130.0.0.0 Safari/537.36","WebKit","Chrome","130.0.0.0","Windows","11.0","https://hz8g1ckzuq.cognition.run/","en,en-US;q=0.9","gbaa77knbnpxf2d","38","[""Black or African-American""]","No","Non-binary","1298402.299999997","null","","<p></p>","null","choice","cdt","repulsion_2","2","microwave ovens","null","null","null","null","null","null","2","","","","","","","","","",""
"","","","","","choice_trial","survey-html-form","107","1142730","0.0-5.0-1.11","192","1","2025-04-14 14:43:43","bb671e3ae32f654b8954ea4c4635f915","","Mozilla/5.0 (Windows NT 11.0; Win64; x64) AppleWebKit/537.36 (KHTML, like Gecko) Chrome/130.0.0.0 Safari/537.36","WebKit","Chrome","130.0.0.0","Windows","11.0","https://hz8g1ckzuq.cognition.run/","en,en-US;q=0.9","gbaa77knbnpxf2d","38","[""Black or African-American""]","No","Non-binary","1298402.299999997","2527","","","{""product_choice"":""A""}","choice","cdt","repulsion_2","2","microwave ovens","null","null","null","null","null","null","2","30","40","20","100","90","100","Warranty","Cooking power","",""
"","","","","","choice_trial_setup","html-keyboard-response","108","1143045","0.0-5.0-0.12","192","1","2025-04-14 14:43:43","bb671e3ae32f654b8954ea4c4635f915","","Mozilla/5.0 (Windows NT 11.0; Win64; x64) AppleWebKit/537.36 (KHTML, like Gecko) Chrome/130.0.0.0 Safari/537.36","WebKit","Chrome","130.0.0.0","Windows","11.0","https://hz8g1ckzuq.cognition.run/","en,en-US;q=0.9","gbaa77knbnpxf2d","38","[""Black or African-American""]","No","Non-binary","1298402.299999997","null","","<p></p>","null","choice","bww","catch","null","washing machines","60","55","20","25","10","10","1","","","","","","","","","",""
"","","","","","choice_trial","survey-html-form","109","1144481","0.0-5.0-1.12","192","1","2025-04-14 14:43:43","bb671e3ae32f654b8954ea4c4635f915","","Mozilla/5.0 (Windows NT 11.0; Win64; x64) AppleWebKit/537.36 (KHTML, like Gecko) Chrome/130.0.0.0 Safari/537.36","WebKit","Chrome","130.0.0.0","Windows","11.0","https://hz8g1ckzuq.cognition.run/","en,en-US;q=0.9","gbaa77knbnpxf2d","38","[""Black or African-American""]","No","Non-binary","1298402.299999997","1426","","","{""product_choice"":""A""}","choice","bww","catch","null","washing machines","60","55","20","25","10","10","1","null","null","null","null","null","null","Average lifespan","Energy savings","",""
"","","","","","choice_trial_setup","html-keyboard-response","110","1144793","0.0-5.0-0.13","192","1","2025-04-14 14:43:43","bb671e3ae32f654b8954ea4c4635f915","","Mozilla/5.0 (Windows NT 11.0; Win64; x64) AppleWebKit/537.36 (KHTML, like Gecko) Chrome/130.0.0.0 Safari/537.36","WebKit","Chrome","130.0.0.0","Windows","11.0","https://hz8g1ckzuq.cognition.run/","en,en-US;q=0.9","gbaa77knbnpxf2d","38","[""Black or African-American""]","No","Non-binary","1298402.299999997","null","","<p></p>","null","choice","bww","catch","null","televisions","50","55","40","5","10","15","2","","","","","","","","","",""
"","","","","","choice_trial","survey-html-form","111","1146093","0.0-5.0-1.13","192","1","2025-04-14 14:43:43","bb671e3ae32f654b8954ea4c4635f915","","Mozilla/5.0 (Windows NT 11.0; Win64; x64) AppleWebKit/537.36 (KHTML, like Gecko) Chrome/130.0.0.0 Safari/537.36","WebKit","Chrome","130.0.0.0","Windows","11.0","https://hz8g1ckzuq.cognition.run/","en,en-US;q=0.9","gbaa77knbnpxf2d","38","[""Black or African-American""]","No","Non-binary","1298402.299999997","1288","","","{""product_choice"":""A""}","choice","bww","catch","null","televisions","50","55","40","5","10","15","2","null","null","null","null","null","null","Screen size","Average lifespan","",""
"","","","","","choice_trial_setup","html-keyboard-response","112","1146410","0.0-5.0-0.14","192","1","2025-04-14 14:43:43","bb671e3ae32f654b8954ea4c4635f915","","Mozilla/5.0 (Windows NT 11.0; Win64; x64) AppleWebKit/537.36 (KHTML, like Gecko) Chrome/130.0.0.0 Safari/537.36","WebKit","Chrome","130.0.0.0","Windows","11.0","https://hz8g1ckzuq.cognition.run/","en,en-US;q=0.9","gbaa77knbnpxf2d","38","[""Black or African-American""]","No","Non-binary","1298402.299999997","null","","<p></p>","null","choice","ctd","repulsion_2","1","washing machines","null","null","null","null","null","null","1","","","","","","","","","",""
"","","","","","choice_trial","survey-html-form","113","1147809","0.0-5.0-1.14","192","1","2025-04-14 14:43:43","bb671e3ae32f654b8954ea4c4635f915","","Mozilla/5.0 (Windows NT 11.0; Win64; x64) AppleWebKit/537.36 (KHTML, like Gecko) Chrome/130.0.0.0 Safari/537.36","WebKit","Chrome","130.0.0.0","Windows","11.0","https://hz8g1ckzuq.cognition.run/","en,en-US;q=0.9","gbaa77knbnpxf2d","38","[""Black or African-American""]","No","Non-binary","1298402.299999997","1385","","","{""product_choice"":""A""}","choice","ctd","repulsion_2","1","washing machines","null","null","null","null","null","null","1","100","90","100","30","40","20","Average lifespan","Energy savings","",""
"","","","","","choice_trial_setup","html-keyboard-response","114","1148121","0.0-5.0-0.15","192","1","2025-04-14 14:43:43","bb671e3ae32f654b8954ea4c4635f915","","Mozilla/5.0 (Windows NT 11.0; Win64; x64) AppleWebKit/537.36 (KHTML, like Gecko) Chrome/130.0.0.0 Safari/537.36","WebKit","Chrome","130.0.0.0","Windows","11.0","https://hz8g1ckzuq.cognition.run/","en,en-US;q=0.9","gbaa77knbnpxf2d","38","[""Black or African-American""]","No","Non-binary","1298402.299999997","null","","<p></p>","null","choice","wbw","catch","null","laptops","65","80","45","35","35","30","2","","","","","","","","","",""
"","","","","","choice_trial","survey-html-form","115","1150250","0.0-5.0-1.15","192","1","2025-04-14 14:43:43","bb671e3ae32f654b8954ea4c4635f915","","Mozilla/5.0 (Windows NT 11.0; Win64; x64) AppleWebKit/537.36 (KHTML, like Gecko) Chrome/130.0.0.0 Safari/537.36","WebKit","Chrome","130.0.0.0","Windows","11.0","https://hz8g1ckzuq.cognition.run/","en,en-US;q=0.9","gbaa77knbnpxf2d","38","[""Black or African-American""]","No","Non-binary","1298402.299999997","2117","","","{""product_choice"":""B""}","choice","wbw","catch","null","laptops","65","80","45","35","35","30","2","null","null","null","null","null","null","Processing speed","Memory (RAM)","",""
"","","","","","choice_trial_setup","html-keyboard-response","116","1150578","0.0-5.0-0.16","192","1","2025-04-14 14:43:43","bb671e3ae32f654b8954ea4c4635f915","","Mozilla/5.0 (Windows NT 11.0; Win64; x64) AppleWebKit/537.36 (KHTML, like Gecko) Chrome/130.0.0.0 Safari/537.36","WebKit","Chrome","130.0.0.0","Windows","11.0","https://hz8g1ckzuq.cognition.run/","en,en-US;q=0.9","gbaa77knbnpxf2d","38","[""Black or African-American""]","No","Non-binary","1298402.299999997","null","","<p></p>","null","choice","tdc","repulsion_1","1","laptops","null","null","null","null","null","null","2","","","","","","","","","",""
"","","","","","choice_trial","survey-html-form","117","1153130","0.0-5.0-1.16","192","1","2025-04-14 14:43:43","bb671e3ae32f654b8954ea4c4635f915","","Mozilla/5.0 (Windows NT 11.0; Win64; x64) AppleWebKit/537.36 (KHTML, like Gecko) Chrome/130.0.0.0 Safari/537.36","WebKit","Chrome","130.0.0.0","Windows","11.0","https://hz8g1ckzuq.cognition.run/","en,en-US;q=0.9","gbaa77knbnpxf2d","38","[""Black or African-American""]","No","Non-binary","1298402.299999997","2541","","","{""product_choice"":""C""}","choice","tdc","repulsion_1","1","laptops","null","null","null","null","null","null","2","100","90","100","30","40","25","Processing speed","Memory (RAM)","",""
"","","","","","choice_trial_setup","html-keyboard-response","118","1153450","0.0-5.0-0.17","192","1","2025-04-14 14:43:43","bb671e3ae32f654b8954ea4c4635f915","","Mozilla/5.0 (Windows NT 11.0; Win64; x64) AppleWebKit/537.36 (KHTML, like Gecko) Chrome/130.0.0.0 Safari/537.36","WebKit","Chrome","130.0.0.0","Windows","11.0","https://hz8g1ckzuq.cognition.run/","en,en-US;q=0.9","gbaa77knbnpxf2d","38","[""Black or African-American""]","No","Non-binary","1298402.299999997","null","","<p></p>","null","choice","ctd","repulsion_1","2","washing machines","null","null","null","null","null","null","2","","","","","","","","","",""
"","","","","","choice_trial","survey-html-form","119","1155633","0.0-5.0-1.17","192","1","2025-04-14 14:43:43","bb671e3ae32f654b8954ea4c4635f915","","Mozilla/5.0 (Windows NT 11.0; Win64; x64) AppleWebKit/537.36 (KHTML, like Gecko) Chrome/130.0.0.0 Safari/537.36","WebKit","Chrome","130.0.0.0","Windows","11.0","https://hz8g1ckzuq.cognition.run/","en,en-US;q=0.9","gbaa77knbnpxf2d","38","[""Black or African-American""]","No","Non-binary","1298402.299999997","2171","","","{""product_choice"":""A""}","choice","ctd","repulsion_1","2","washing machines","null","null","null","null","null","null","2","30","40","25","100","90","100","Average lifespan","Energy savings","",""
"","","","","","choice_trial_setup","html-keyboard-response","120","1155948","0.0-5.0-0.18","192","1","2025-04-14 14:43:43","bb671e3ae32f654b8954ea4c4635f915","","Mozilla/5.0 (Windows NT 11.0; Win64; x64) AppleWebKit/537.36 (KHTML, like Gecko) Chrome/130.0.0.0 Safari/537.36","WebKit","Chrome","130.0.0.0","Windows","11.0","https://hz8g1ckzuq.cognition.run/","en,en-US;q=0.9","gbaa77knbnpxf2d","38","[""Black or African-American""]","No","Non-binary","1298402.299999997","null","","<p></p>","null","choice","ctd","repulsion_2","1","televisions","null","null","null","null","null","null","1","","","","","","","","","",""
"","","","","","choice_trial","survey-html-form","121","1160753","0.0-5.0-1.18","192","1","2025-04-14 14:43:43","bb671e3ae32f654b8954ea4c4635f915","","Mozilla/5.0 (Windows NT 11.0; Win64; x64) AppleWebKit/537.36 (KHTML, like Gecko) Chrome/130.0.0.0 Safari/537.36","WebKit","Chrome","130.0.0.0","Windows","11.0","https://hz8g1ckzuq.cognition.run/","en,en-US;q=0.9","gbaa77knbnpxf2d","38","[""Black or African-American""]","No","Non-binary","1298402.299999997","4792","","","{""product_choice"":""A""}","choice","ctd","repulsion_2","1","televisions","null","null","null","null","null","null","1","100","90","100","30","40","20","Screen size","Average lifespan","",""
"","","","","","choice_trial_setup","html-keyboard-response","122","1161081","0.0-5.0-0.19","192","1","2025-04-14 14:43:43","bb671e3ae32f654b8954ea4c4635f915","","Mozilla/5.0 (Windows NT 11.0; Win64; x64) AppleWebKit/537.36 (KHTML, like Gecko) Chrome/130.0.0.0 Safari/537.36","WebKit","Chrome","130.0.0.0","Windows","11.0","https://hz8g1ckzuq.cognition.run/","en,en-US;q=0.9","gbaa77knbnpxf2d","38","[""Black or African-American""]","No","Non-binary","1298402.299999997","null","","<p></p>","null","choice","cdt","attraction_2","1","microwave ovens","null","null","null","null","null","null","1","","","","","","","","","",""
"","","","","","choice_trial","survey-html-form","123","1166681","0.0-5.0-1.19","192","1","2025-04-14 14:43:43","bb671e3ae32f654b8954ea4c4635f915","","Mozilla/5.0 (Windows NT 11.0; Win64; x64) AppleWebKit/537.36 (KHTML, like Gecko) Chrome/130.0.0.0 Safari/537.36","WebKit","Chrome","130.0.0.0","Windows","11.0","https://hz8g1ckzuq.cognition.run/","en,en-US;q=0.9","gbaa77knbnpxf2d","38","[""Black or African-American""]","No","Non-binary","1298402.299999997","5587","","","{""product_choice"":""A""}","choice","cdt","attraction_2","1","microwave ovens","null","null","null","null","null","null","1","60","50","60","50","60","40","Warranty","Cooking power","",""
"","","","","","choice_trial_setup","html-keyboard-response","124","1166996","0.0-5.0-0.20","192","1","2025-04-14 14:43:43","bb671e3ae32f654b8954ea4c4635f915","","Mozilla/5.0 (Windows NT 11.0; Win64; x64) AppleWebKit/537.36 (KHTML, like Gecko) Chrome/130.0.0.0 Safari/537.36","WebKit","Chrome","130.0.0.0","Windows","11.0","https://hz8g1ckzuq.cognition.run/","en,en-US;q=0.9","gbaa77knbnpxf2d","38","[""Black or African-American""]","No","Non-binary","1298402.299999997","null","","<p></p>","null","choice","dtc","repulsion_1","1","washing machines","null","null","null","null","null","null","2","","","","","","","","","",""
"","","","","","choice_trial","survey-html-form","125","1171057","0.0-5.0-1.20","192","1","2025-04-14 14:43:43","bb671e3ae32f654b8954ea4c4635f915","","Mozilla/5.0 (Windows NT 11.0; Win64; x64) AppleWebKit/537.36 (KHTML, like Gecko) Chrome/130.0.0.0 Safari/537.36","WebKit","Chrome","130.0.0.0","Windows","11.0","https://hz8g1ckzuq.cognition.run/","en,en-US;q=0.9","gbaa77knbnpxf2d","38","[""Black or African-American""]","No","Non-binary","1298402.299999997","4046","","","{""product_choice"":""C""}","choice","dtc","repulsion_1","1","washing machines","null","null","null","null","null","null","2","100","90","100","30","40","25","Average lifespan","Energy savings","",""
"","","","","","choice_trial_setup","html-keyboard-response","126","1171369","0.0-5.0-0.21","192","1","2025-04-14 14:43:43","bb671e3ae32f654b8954ea4c4635f915","","Mozilla/5.0 (Windows NT 11.0; Win64; x64) AppleWebKit/537.36 (KHTML, like Gecko) Chrome/130.0.0.0 Safari/537.36","WebKit","Chrome","130.0.0.0","Windows","11.0","https://hz8g1ckzuq.cognition.run/","en,en-US;q=0.9","gbaa77knbnpxf2d","38","[""Black or African-American""]","No","Non-binary","1298402.299999997","null","","<p></p>","null","choice","tcd","repulsion_1","2","televisions","null","null","null","null","null","null","1","","","","","","","","","",""
"","","","","","choice_trial","survey-html-form","127","1174769","0.0-5.0-1.21","192","1","2025-04-14 14:43:43","bb671e3ae32f654b8954ea4c4635f915","","Mozilla/5.0 (Windows NT 11.0; Win64; x64) AppleWebKit/537.36 (KHTML, like Gecko) Chrome/130.0.0.0 Safari/537.36","WebKit","Chrome","130.0.0.0","Windows","11.0","https://hz8g1ckzuq.cognition.run/","en,en-US;q=0.9","gbaa77knbnpxf2d","38","[""Black or African-American""]","No","Non-binary","1298402.299999997","3387","","","{""product_choice"":""B""}","choice","tcd","repulsion_1","2","televisions","null","null","null","null","null","null","1","30","40","25","100","90","100","Screen size","Average lifespan","",""
"","","","","","choice_trial_setup","html-keyboard-response","128","1175083","0.0-5.0-0.22","192","1","2025-04-14 14:43:43","bb671e3ae32f654b8954ea4c4635f915","","Mozilla/5.0 (Windows NT 11.0; Win64; x64) AppleWebKit/537.36 (KHTML, like Gecko) Chrome/130.0.0.0 Safari/537.36","WebKit","Chrome","130.0.0.0","Windows","11.0","https://hz8g1ckzuq.cognition.run/","en,en-US;q=0.9","gbaa77knbnpxf2d","38","[""Black or African-American""]","No","Non-binary","1298402.299999997","null","","<p></p>","null","choice","cdt","attraction_2","1","washing machines","null","null","null","null","null","null","2","","","","","","","","","",""
"","","","","","choice_trial","survey-html-form","129","1182250","0.0-5.0-1.22","192","1","2025-04-14 14:43:43","bb671e3ae32f654b8954ea4c4635f915","","Mozilla/5.0 (Windows NT 11.0; Win64; x64) AppleWebKit/537.36 (KHTML, like Gecko) Chrome/130.0.0.0 Safari/537.36","WebKit","Chrome","130.0.0.0","Windows","11.0","https://hz8g1ckzuq.cognition.run/","en,en-US;q=0.9","gbaa77knbnpxf2d","38","[""Black or African-American""]","No","Non-binary","1298402.299999997","7154","","","{""product_choice"":""C""}","choice","cdt","attraction_2","1","washing machines","null","null","null","null","null","null","2","60","50","60","50","60","40","Average lifespan","Energy savings","",""
"","","","","","choice_trial_setup","html-keyboard-response","130","1182565","0.0-5.0-0.23","192","1","2025-04-14 14:43:43","bb671e3ae32f654b8954ea4c4635f915","","Mozilla/5.0 (Windows NT 11.0; Win64; x64) AppleWebKit/537.36 (KHTML, like Gecko) Chrome/130.0.0.0 Safari/537.36","WebKit","Chrome","130.0.0.0","Windows","11.0","https://hz8g1ckzuq.cognition.run/","en,en-US;q=0.9","gbaa77knbnpxf2d","38","[""Black or African-American""]","No","Non-binary","1298402.299999997","null","","<p></p>","null","choice","dtc","repulsion_2","1","microwave ovens","null","null","null","null","null","null","2","","","","","","","","","",""
"","","","","","choice_trial","survey-html-form","131","1184497","0.0-5.0-1.23","192","1","2025-04-14 14:43:43","bb671e3ae32f654b8954ea4c4635f915","","Mozilla/5.0 (Windows NT 11.0; Win64; x64) AppleWebKit/537.36 (KHTML, like Gecko) Chrome/130.0.0.0 Safari/537.36","WebKit","Chrome","130.0.0.0","Windows","11.0","https://hz8g1ckzuq.cognition.run/","en,en-US;q=0.9","gbaa77knbnpxf2d","38","[""Black or African-American""]","No","Non-binary","1298402.299999997","1920","","","{""product_choice"":""C""}","choice","dtc","repulsion_2","1","microwave ovens","null","null","null","null","null","null","2","100","90","100","30","40","20","Warranty","Cooking power","",""
"","","","","","choice_trial_setup","html-keyboard-response","132","1184810","0.0-5.0-0.24","192","1","2025-04-14 14:43:43","bb671e3ae32f654b8954ea4c4635f915","","Mozilla/5.0 (Windows NT 11.0; Win64; x64) AppleWebKit/537.36 (KHTML, like Gecko) Chrome/130.0.0.0 Safari/537.36","WebKit","Chrome","130.0.0.0","Windows","11.0","https://hz8g1ckzuq.cognition.run/","en,en-US;q=0.9","gbaa77knbnpxf2d","38","[""Black or African-American""]","No","Non-binary","1298402.299999997","null","","<p></p>","null","choice","ctd","repulsion_2","1","laptops","null","null","null","null","null","null","1","","","","","","","","","",""
"","","","","","choice_trial","survey-html-form","133","1187265","0.0-5.0-1.24","192","1","2025-04-14 14:43:43","bb671e3ae32f654b8954ea4c4635f915","","Mozilla/5.0 (Windows NT 11.0; Win64; x64) AppleWebKit/537.36 (KHTML, like Gecko) Chrome/130.0.0.0 Safari/537.36","WebKit","Chrome","130.0.0.0","Windows","11.0","https://hz8g1ckzuq.cognition.run/","en,en-US;q=0.9","gbaa77knbnpxf2d","38","[""Black or African-American""]","No","Non-binary","1298402.299999997","2441","","","{""product_choice"":""A""}","choice","ctd","repulsion_2","1","laptops","null","null","null","null","null","null","1","100","90","100","30","40","20","Processing speed","Memory (RAM)","",""
"","","","","","choice_trial_setup","html-keyboard-response","134","1187581","0.0-5.0-0.25","192","1","2025-04-14 14:43:43","bb671e3ae32f654b8954ea4c4635f915","","Mozilla/5.0 (Windows NT 11.0; Win64; x64) AppleWebKit/537.36 (KHTML, like Gecko) Chrome/130.0.0.0 Safari/537.36","WebKit","Chrome","130.0.0.0","Windows","11.0","https://hz8g1ckzuq.cognition.run/","en,en-US;q=0.9","gbaa77knbnpxf2d","38","[""Black or African-American""]","No","Non-binary","1298402.299999997","null","","<p></p>","null","choice","tdc","repulsion_1","2","laptops","null","null","null","null","null","null","1","","","","","","","","","",""
"","","","","","choice_trial","survey-html-form","135","1190505","0.0-5.0-1.25","192","1","2025-04-14 14:43:43","bb671e3ae32f654b8954ea4c4635f915","","Mozilla/5.0 (Windows NT 11.0; Win64; x64) AppleWebKit/537.36 (KHTML, like Gecko) Chrome/130.0.0.0 Safari/537.36","WebKit","Chrome","130.0.0.0","Windows","11.0","https://hz8g1ckzuq.cognition.run/","en,en-US;q=0.9","gbaa77knbnpxf2d","38","[""Black or African-American""]","No","Non-binary","1298402.299999997","2912","","","{""product_choice"":""C""}","choice","tdc","repulsion_1","2","laptops","null","null","null","null","null","null","1","30","40","25","100","90","100","Processing speed","Memory (RAM)","",""
"","","","","","choice_trial_setup","html-keyboard-response","136","1190819","0.0-5.0-0.26","192","1","2025-04-14 14:43:43","bb671e3ae32f654b8954ea4c4635f915","","Mozilla/5.0 (Windows NT 11.0; Win64; x64) AppleWebKit/537.36 (KHTML, like Gecko) Chrome/130.0.0.0 Safari/537.36","WebKit","Chrome","130.0.0.0","Windows","11.0","https://hz8g1ckzuq.cognition.run/","en,en-US;q=0.9","gbaa77knbnpxf2d","38","[""Black or African-American""]","No","Non-binary","1298402.299999997","null","","<p></p>","null","choice","bww","catch","null","microwave ovens","70","60","50","20","25","40","2","","","","","","","","","",""
"","","","","","choice_trial","survey-html-form","137","1193385","0.0-5.0-1.26","192","1","2025-04-14 14:43:43","bb671e3ae32f654b8954ea4c4635f915","","Mozilla/5.0 (Windows NT 11.0; Win64; x64) AppleWebKit/537.36 (KHTML, like Gecko) Chrome/130.0.0.0 Safari/537.36","WebKit","Chrome","130.0.0.0","Windows","11.0","https://hz8g1ckzuq.cognition.run/","en,en-US;q=0.9","gbaa77knbnpxf2d","38","[""Black or African-American""]","No","Non-binary","1298402.299999997","2553","","","{""product_choice"":""A""}","choice","bww","catch","null","microwave ovens","70","60","50","20","25","40","2","null","null","null","null","null","null","Warranty","Cooking power","",""
"","","","","","choice_trial_setup","html-keyboard-response","138","1193700","0.0-5.0-0.27","192","1","2025-04-14 14:43:43","bb671e3ae32f654b8954ea4c4635f915","","Mozilla/5.0 (Windows NT 11.0; Win64; x64) AppleWebKit/537.36 (KHTML, like Gecko) Chrome/130.0.0.0 Safari/537.36","WebKit","Chrome","130.0.0.0","Windows","11.0","https://hz8g1ckzuq.cognition.run/","en,en-US;q=0.9","gbaa77knbnpxf2d","38","[""Black or African-American""]","No","Non-binary","1298402.299999997","null","","<p></p>","null","choice","dct","attraction_1","2","microwave ovens","null","null","null","null","null","null","2","","","","","","","","","",""
"","","","","","choice_trial","survey-html-form","139","1197425","0.0-5.0-1.27","192","1","2025-04-14 14:43:43","bb671e3ae32f654b8954ea4c4635f915","","Mozilla/5.0 (Windows NT 11.0; Win64; x64) AppleWebKit/537.36 (KHTML, like Gecko) Chrome/130.0.0.0 Safari/537.36","WebKit","Chrome","130.0.0.0","Windows","11.0","https://hz8g1ckzuq.cognition.run/","en,en-US;q=0.9","gbaa77knbnpxf2d","38","[""Black or African-American""]","No","Non-binary","1298402.299999997","3709","","","{""product_choice"":""C""}","choice","dct","attraction_1","2","microwave ovens","null","null","null","null","null","null","2","50","60","45","60","50","60","Warranty","Cooking power","",""
"","","","","","choice_trial_setup","html-keyboard-response","140","1197740","0.0-5.0-0.28","192","1","2025-04-14 14:43:43","bb671e3ae32f654b8954ea4c4635f915","","Mozilla/5.0 (Windows NT 11.0; Win64; x64) AppleWebKit/537.36 (KHTML, like Gecko) Chrome/130.0.0.0 Safari/537.36","WebKit","Chrome","130.0.0.0","Windows","11.0","https://hz8g1ckzuq.cognition.run/","en,en-US;q=0.9","gbaa77knbnpxf2d","38","[""Black or African-American""]","No","Non-binary","1298402.299999997","null","","<p></p>","null","choice","ctd","attraction_1","2","laptops","null","null","null","null","null","null","2","","","","","","","","","",""
"","","","","","choice_trial","survey-html-form","141","1204273","0.0-5.0-1.28","192","1","2025-04-14 14:43:43","bb671e3ae32f654b8954ea4c4635f915","","Mozilla/5.0 (Windows NT 11.0; Win64; x64) AppleWebKit/537.36 (KHTML, like Gecko) Chrome/130.0.0.0 Safari/537.36","WebKit","Chrome","130.0.0.0","Windows","11.0","https://hz8g1ckzuq.cognition.run/","en,en-US;q=0.9","gbaa77knbnpxf2d","38","[""Black or African-American""]","No","Non-binary","1298402.299999997","6519","","","{""product_choice"":""B""}","choice","ctd","attraction_1","2","laptops","null","null","null","null","null","null","2","50","60","45","60","50","60","Processing speed","Memory (RAM)","",""
"","","","","","choice_trial_setup","html-keyboard-response","142","1204589","0.0-5.0-0.29","192","1","2025-04-14 14:43:43","bb671e3ae32f654b8954ea4c4635f915","","Mozilla/5.0 (Windows NT 11.0; Win64; x64) AppleWebKit/537.36 (KHTML, like Gecko) Chrome/130.0.0.0 Safari/537.36","WebKit","Chrome","130.0.0.0","Windows","11.0","https://hz8g1ckzuq.cognition.run/","en,en-US;q=0.9","gbaa77knbnpxf2d","38","[""Black or African-American""]","No","Non-binary","1298402.299999997","null","","<p></p>","null","choice","tdc","attraction_1","1","televisions","null","null","null","null","null","null","1","","","","","","","","","",""
"","","","","","choice_trial","survey-html-form","143","1211825","0.0-5.0-1.29","192","1","2025-04-14 14:43:43","bb671e3ae32f654b8954ea4c4635f915","","Mozilla/5.0 (Windows NT 11.0; Win64; x64) AppleWebKit/537.36 (KHTML, like Gecko) Chrome/130.0.0.0 Safari/537.36","WebKit","Chrome","130.0.0.0","Windows","11.0","https://hz8g1ckzuq.cognition.run/","en,en-US;q=0.9","gbaa77knbnpxf2d","38","[""Black or African-American""]","No","Non-binary","1298402.299999997","7212","","","{""product_choice"":""C""}","choice","tdc","attraction_1","1","televisions","null","null","null","null","null","null","1","60","50","60","50","60","45","Screen size","Average lifespan","",""
"","","","","","choice_trial_setup","html-keyboard-response","144","1212154","0.0-5.0-0.30","192","1","2025-04-14 14:43:43","bb671e3ae32f654b8954ea4c4635f915","","Mozilla/5.0 (Windows NT 11.0; Win64; x64) AppleWebKit/537.36 (KHTML, like Gecko) Chrome/130.0.0.0 Safari/537.36","WebKit","Chrome","130.0.0.0","Windows","11.0","https://hz8g1ckzuq.cognition.run/","en,en-US;q=0.9","gbaa77knbnpxf2d","38","[""Black or African-American""]","No","Non-binary","1298402.299999997","null","","<p></p>","null","choice","cdt","attraction_1","1","laptops","null","null","null","null","null","null","2","","","","","","","","","",""
"","","","","","choice_trial","survey-html-form","145","1218241","0.0-5.0-1.30","192","1","2025-04-14 14:43:43","bb671e3ae32f654b8954ea4c4635f915","","Mozilla/5.0 (Windows NT 11.0; Win64; x64) AppleWebKit/537.36 (KHTML, like Gecko) Chrome/130.0.0.0 Safari/537.36","WebKit","Chrome","130.0.0.0","Windows","11.0","https://hz8g1ckzuq.cognition.run/","en,en-US;q=0.9","gbaa77knbnpxf2d","38","[""Black or African-American""]","No","Non-binary","1298402.299999997","6073","","","{""product_choice"":""A""}","choice","cdt","attraction_1","1","laptops","null","null","null","null","null","null","2","60","50","60","50","60","45","Processing speed","Memory (RAM)","",""
"","","","","","choice_trial_setup","html-keyboard-response","146","1218559","0.0-5.0-0.31","192","1","2025-04-14 14:43:43","bb671e3ae32f654b8954ea4c4635f915","","Mozilla/5.0 (Windows NT 11.0; Win64; x64) AppleWebKit/537.36 (KHTML, like Gecko) Chrome/130.0.0.0 Safari/537.36","WebKit","Chrome","130.0.0.0","Windows","11.0","https://hz8g1ckzuq.cognition.run/","en,en-US;q=0.9","gbaa77knbnpxf2d","38","[""Black or African-American""]","No","Non-binary","1298402.299999997","null","","<p></p>","null","choice","dct","attraction_2","1","laptops","null","null","null","null","null","null","2","","","","","","","","","",""
"","","","","","choice_trial","survey-html-form","147","1222714","0.0-5.0-1.31","192","1","2025-04-14 14:43:43","bb671e3ae32f654b8954ea4c4635f915","","Mozilla/5.0 (Windows NT 11.0; Win64; x64) AppleWebKit/537.36 (KHTML, like Gecko) Chrome/130.0.0.0 Safari/537.36","WebKit","Chrome","130.0.0.0","Windows","11.0","https://hz8g1ckzuq.cognition.run/","en,en-US;q=0.9","gbaa77knbnpxf2d","38","[""Black or African-American""]","No","Non-binary","1298402.299999997","4134","","","{""product_choice"":""B""}","choice","dct","attraction_2","1","laptops","null","null","null","null","null","null","2","60","50","60","50","60","40","Processing speed","Memory (RAM)","",""
"","","","","","choice_trial_setup","html-keyboard-response","148","1223033","0.0-5.0-0.32","192","1","2025-04-14 14:43:43","bb671e3ae32f654b8954ea4c4635f915","","Mozilla/5.0 (Windows NT 11.0; Win64; x64) AppleWebKit/537.36 (KHTML, like Gecko) Chrome/130.0.0.0 Safari/537.36","WebKit","Chrome","130.0.0.0","Windows","11.0","https://hz8g1ckzuq.cognition.run/","en,en-US;q=0.9","gbaa77knbnpxf2d","38","[""Black or African-American""]","No","Non-binary","1298402.299999997","null","","<p></p>","null","choice","bww","catch","null","laptops","50","75","25","15","20","20","2","","","","","","","","","",""
"","","","","","choice_trial","survey-html-form","149","1224961","0.0-5.0-1.32","192","1","2025-04-14 14:43:43","bb671e3ae32f654b8954ea4c4635f915","","Mozilla/5.0 (Windows NT 11.0; Win64; x64) AppleWebKit/537.36 (KHTML, like Gecko) Chrome/130.0.0.0 Safari/537.36","WebKit","Chrome","130.0.0.0","Windows","11.0","https://hz8g1ckzuq.cognition.run/","en,en-US;q=0.9","gbaa77knbnpxf2d","38","[""Black or African-American""]","No","Non-binary","1298402.299999997","1911","","","{""product_choice"":""A""}","choice","bww","catch","null","laptops","50","75","25","15","20","20","2","null","null","null","null","null","null","Processing speed","Memory (RAM)","",""
"","","","","","choice_trial_setup","html-keyboard-response","150","1225276","0.0-5.0-0.33","192","1","2025-04-14 14:43:43","bb671e3ae32f654b8954ea4c4635f915","","Mozilla/5.0 (Windows NT 11.0; Win64; x64) AppleWebKit/537.36 (KHTML, like Gecko) Chrome/130.0.0.0 Safari/537.36","WebKit","Chrome","130.0.0.0","Windows","11.0","https://hz8g1ckzuq.cognition.run/","en,en-US;q=0.9","gbaa77knbnpxf2d","38","[""Black or African-American""]","No","Non-binary","1298402.299999997","null","","<p></p>","null","choice","wwb","catch","null","microwave ovens","75","60","40","35","45","35","2","","","","","","","","","",""
"","","","","","choice_trial","survey-html-form","151","1227489","0.0-5.0-1.33","192","1","2025-04-14 14:43:43","bb671e3ae32f654b8954ea4c4635f915","","Mozilla/5.0 (Windows NT 11.0; Win64; x64) AppleWebKit/537.36 (KHTML, like Gecko) Chrome/130.0.0.0 Safari/537.36","WebKit","Chrome","130.0.0.0","Windows","11.0","https://hz8g1ckzuq.cognition.run/","en,en-US;q=0.9","gbaa77knbnpxf2d","38","[""Black or African-American""]","No","Non-binary","1298402.299999997","2199","","","{""product_choice"":""C""}","choice","wwb","catch","null","microwave ovens","75","60","40","35","45","35","2","null","null","null","null","null","null","Warranty","Cooking power","",""
