"success","timeout","failed_images","failed_audio","failed_video","screen_id","trial_type","trial_index","time_elapsed","internal_node_id","run_id","condition","recorded_at","source_code_version","ip","user_agent","device","browser","browser_version","platform","platform_version","referer","accept_language","ppt_id","age","race","ethnicity","gender","exp_duration","rt","view_history","stimulus","response","phase","order","effect","t_high","category","d1_best","d2_best","d1_worst1","d2_worst1","d1_worst2","d2_worst2","first_dim","d1_t","d1_c","d1_d","d2_t","d2_c","d2_d","d1_name","d2_name","strategy_response","question_order"
"true","false","[]","[]","[]","img preload","preload","0","4788","0.0-0.0","193","1","2025-04-14 14:45:19","bb671e3ae32f654b8954ea4c4635f915","","Mozilla/5.0 (Windows NT 10.0; Win64; x64) AppleWebKit/537.36 (KHTML, like Gecko) Chrome/130.0.0.0 Safari/537.36","WebKit","Chrome","130.0.0.0","Windows","10.0","https://hz8g1ckzuq.cognition.run/","en,en-US;q=0.9","88797l9kga2z594","22","[""Black or African-American""]","No","Female","652318.2000000179","","","","","","","","","","","","","","","","","","","","","","","","","",""
"true","","","","","","fullscreen","1","9897","0.0-1.0","193","1","2025-04-14 14:45:19","bb671e3ae32f654b8954ea4c4635f915","","Mozilla/5.0 (Windows NT 10.0; Win64; x64) AppleWebKit/537.36 (KHTML, like Gecko) Chrome/130.0.0.0 Safari/537.36","WebKit","Chrome","130.0.0.0","Windows","10.0","https://hz8g1ckzuq.cognition.run/","en,en-US;q=0.9","88797l9kga2z594","22","[""Black or African-American""]","No","Female","652318.2000000179","4097","","","","","","","","","","","","","","","","","","","","","","","","",""
"","","","","","","instructions","2","60066","0.0-2.0","193","1","2025-04-14 14:45:19","bb671e3ae32f654b8954ea4c4635f915","","Mozilla/5.0 (Windows NT 10.0; Win64; x64) AppleWebKit/537.36 (KHTML, like Gecko) Chrome/130.0.0.0 Safari/537.36","WebKit","Chrome","130.0.0.0","Windows","10.0","https://hz8g1ckzuq.cognition.run/","en,en-US;q=0.9","88797l9kga2z594","22","[""Black or African-American""]","No","Female","652318.2000000179","50168","[{""page_index"":0,""viewing_time"":2699},{""page_index"":1,""viewing_time"":1300},{""page_index"":2,""viewing_time"":2296},{""page_index"":3,""viewing_time"":1833},{""page_index"":4,""viewing_time"":23512},{""page_index"":5,""viewing_time"":4144},{""page_index"":6,""viewing_time"":3681},{""page_index"":7,""viewing_time"":5479},{""page_index"":8,""viewing_time"":4145},{""page_index"":9,""viewing_time"":1079}]","","","","","","","","","","","","","","","","","","","","","","","",""
"","","","","","rating_trial_setup","html-keyboard-response","3","60372","0.0-3.0-0.0","193","1","2025-04-14 14:45:19","bb671e3ae32f654b8954ea4c4635f915","","Mozilla/5.0 (Windows NT 10.0; Win64; x64) AppleWebKit/537.36 (KHTML, like Gecko) Chrome/130.0.0.0 Safari/537.36","WebKit","Chrome","130.0.0.0","Windows","10.0","https://hz8g1ckzuq.cognition.run/","en,en-US;q=0.9","88797l9kga2z594","22","[""Black or African-American""]","No","Female","652318.2000000179","null","","<p></p>","null","rating","tcd","attraction_1","1","microwave ovens","null","null","null","null","null","null","2","","","","","","","","","",""
"","","","","","rating_trial","survey-html-form","4","74650","0.0-3.0-1.0","193","1","2025-04-14 14:45:19","bb671e3ae32f654b8954ea4c4635f915","","Mozilla/5.0 (Windows NT 10.0; Win64; x64) AppleWebKit/537.36 (KHTML, like Gecko) Chrome/130.0.0.0 Safari/537.36","WebKit","Chrome","130.0.0.0","Windows","10.0","https://hz8g1ckzuq.cognition.run/","en,en-US;q=0.9","88797l9kga2z594","22","[""Black or African-American""]","No","Female","652318.2000000179","14272","","","{""price_1"":""200"",""price_2"":""300"",""price_3"":""250""}","rating","tcd","attraction_1","1","microwave ovens","null","null","null","null","null","null","2","60","50","60","50","60","45","Warranty","Cooking power","",""
"","","","","","rating_trial_setup","html-keyboard-response","5","74951","0.0-3.0-0.1","193","1","2025-04-14 14:45:19","bb671e3ae32f654b8954ea4c4635f915","","Mozilla/5.0 (Windows NT 10.0; Win64; x64) AppleWebKit/537.36 (KHTML, like Gecko) Chrome/130.0.0.0 Safari/537.36","WebKit","Chrome","130.0.0.0","Windows","10.0","https://hz8g1ckzuq.cognition.run/","en,en-US;q=0.9","88797l9kga2z594","22","[""Black or African-American""]","No","Female","652318.2000000179","null","","<p></p>","null","rating","tcd","attraction_1","2","microwave ovens","null","null","null","null","null","null","1","","","","","","","","","",""
"","","","","","rating_trial","survey-html-form","6","83794","0.0-3.0-1.1","193","1","2025-04-14 14:45:19","bb671e3ae32f654b8954ea4c4635f915","","Mozilla/5.0 (Windows NT 10.0; Win64; x64) AppleWebKit/537.36 (KHTML, like Gecko) Chrome/130.0.0.0 Safari/537.36","WebKit","Chrome","130.0.0.0","Windows","10.0","https://hz8g1ckzuq.cognition.run/","en,en-US;q=0.9","88797l9kga2z594","22","[""Black or African-American""]","No","Female","652318.2000000179","8840","","","{""price_1"":""300"",""price_2"":""280"",""price_3"":""320""}","rating","tcd","attraction_1","2","microwave ovens","null","null","null","null","null","null","1","50","60","45","60","50","60","Warranty","Cooking power","",""
"","","","","","rating_trial_setup","html-keyboard-response","7","84095","0.0-3.0-0.2","193","1","2025-04-14 14:45:19","bb671e3ae32f654b8954ea4c4635f915","","Mozilla/5.0 (Windows NT 10.0; Win64; x64) AppleWebKit/537.36 (KHTML, like Gecko) Chrome/130.0.0.0 Safari/537.36","WebKit","Chrome","130.0.0.0","Windows","10.0","https://hz8g1ckzuq.cognition.run/","en,en-US;q=0.9","88797l9kga2z594","22","[""Black or African-American""]","No","Female","652318.2000000179","null","","<p></p>","null","rating","dtc","attraction_2","1","washing machines","null","null","null","null","null","null","2","","","","","","","","","",""
"","","","","","rating_trial","survey-html-form","8","94667","0.0-3.0-1.2","193","1","2025-04-14 14:45:19","bb671e3ae32f654b8954ea4c4635f915","","Mozilla/5.0 (Windows NT 10.0; Win64; x64) AppleWebKit/537.36 (KHTML, like Gecko) Chrome/130.0.0.0 Safari/537.36","WebKit","Chrome","130.0.0.0","Windows","10.0","https://hz8g1ckzuq.cognition.run/","en,en-US;q=0.9","88797l9kga2z594","22","[""Black or African-American""]","No","Female","652318.2000000179","10570","","","{""price_1"":""340"",""price_2"":""250"",""price_3"":""340""}","rating","dtc","attraction_2","1","washing machines","null","null","null","null","null","null","2","60","50","60","50","60","40","Average lifespan","Energy savings","",""
"","","","","","rating_trial_setup","html-keyboard-response","9","94968","0.0-3.0-0.3","193","1","2025-04-14 14:45:19","bb671e3ae32f654b8954ea4c4635f915","","Mozilla/5.0 (Windows NT 10.0; Win64; x64) AppleWebKit/537.36 (KHTML, like Gecko) Chrome/130.0.0.0 Safari/537.36","WebKit","Chrome","130.0.0.0","Windows","10.0","https://hz8g1ckzuq.cognition.run/","en,en-US;q=0.9","88797l9kga2z594","22","[""Black or African-American""]","No","Female","652318.2000000179","null","","<p></p>","null","rating","cdt","repulsion_2","2","microwave ovens","null","null","null","null","null","null","1","","","","","","","","","",""
"","","","","","rating_trial","survey-html-form","10","105259","0.0-3.0-1.3","193","1","2025-04-14 14:45:19","bb671e3ae32f654b8954ea4c4635f915","","Mozilla/5.0 (Windows NT 10.0; Win64; x64) AppleWebKit/537.36 (KHTML, like Gecko) Chrome/130.0.0.0 Safari/537.36","WebKit","Chrome","130.0.0.0","Windows","10.0","https://hz8g1ckzuq.cognition.run/","en,en-US;q=0.9","88797l9kga2z594","22","[""Black or African-American""]","No","Female","652318.2000000179","10287","","","{""price_1"":""200"",""price_2"":""340"",""price_3"":""200""}","rating","cdt","repulsion_2","2","microwave ovens","null","null","null","null","null","null","1","30","40","20","100","90","100","Warranty","Cooking power","",""
"","","","","","rating_trial_setup","html-keyboard-response","11","105561","0.0-3.0-0.4","193","1","2025-04-14 14:45:19","bb671e3ae32f654b8954ea4c4635f915","","Mozilla/5.0 (Windows NT 10.0; Win64; x64) AppleWebKit/537.36 (KHTML, like Gecko) Chrome/130.0.0.0 Safari/537.36","WebKit","Chrome","130.0.0.0","Windows","10.0","https://hz8g1ckzuq.cognition.run/","en,en-US;q=0.9","88797l9kga2z594","22","[""Black or African-American""]","No","Female","652318.2000000179","null","","<p></p>","null","rating","dtc","repulsion_2","2","laptops","null","null","null","null","null","null","1","","","","","","","","","",""
"","","","","","rating_trial","survey-html-form","12","115578","0.0-3.0-1.4","193","1","2025-04-14 14:45:19","bb671e3ae32f654b8954ea4c4635f915","","Mozilla/5.0 (Windows NT 10.0; Win64; x64) AppleWebKit/537.36 (KHTML, like Gecko) Chrome/130.0.0.0 Safari/537.36","WebKit","Chrome","130.0.0.0","Windows","10.0","https://hz8g1ckzuq.cognition.run/","en,en-US;q=0.9","88797l9kga2z594","22","[""Black or African-American""]","No","Female","652318.2000000179","10016","","","{""price_1"":""200"",""price_2"":""300"",""price_3"":""250""}","rating","dtc","repulsion_2","2","laptops","null","null","null","null","null","null","1","30","40","20","100","90","100","Processing speed","Memory (RAM)","",""
"","","","","","rating_trial_setup","html-keyboard-response","13","115880","0.0-3.0-0.5","193","1","2025-04-14 14:45:19","bb671e3ae32f654b8954ea4c4635f915","","Mozilla/5.0 (Windows NT 10.0; Win64; x64) AppleWebKit/537.36 (KHTML, like Gecko) Chrome/130.0.0.0 Safari/537.36","WebKit","Chrome","130.0.0.0","Windows","10.0","https://hz8g1ckzuq.cognition.run/","en,en-US;q=0.9","88797l9kga2z594","22","[""Black or African-American""]","No","Female","652318.2000000179","null","","<p></p>","null","rating","dtc","attraction_2","2","washing machines","null","null","null","null","null","null","1","","","","","","","","","",""
"","","","","","rating_trial","survey-html-form","14","138266","0.0-3.0-1.5","193","1","2025-04-14 14:45:19","bb671e3ae32f654b8954ea4c4635f915","","Mozilla/5.0 (Windows NT 10.0; Win64; x64) AppleWebKit/537.36 (KHTML, like Gecko) Chrome/130.0.0.0 Safari/537.36","WebKit","Chrome","130.0.0.0","Windows","10.0","https://hz8g1ckzuq.cognition.run/","en,en-US;q=0.9","88797l9kga2z594","22","[""Black or African-American""]","No","Female","652318.2000000179","22382","","","{""price_1"":""340"",""price_2"":""340"",""price_3"":""200""}","rating","dtc","attraction_2","2","washing machines","null","null","null","null","null","null","1","50","60","40","60","50","60","Average lifespan","Energy savings","",""
"","","","","","rating_trial_setup","html-keyboard-response","15","138569","0.0-3.0-0.6","193","1","2025-04-14 14:45:19","bb671e3ae32f654b8954ea4c4635f915","","Mozilla/5.0 (Windows NT 10.0; Win64; x64) AppleWebKit/537.36 (KHTML, like Gecko) Chrome/130.0.0.0 Safari/537.36","WebKit","Chrome","130.0.0.0","Windows","10.0","https://hz8g1ckzuq.cognition.run/","en,en-US;q=0.9","88797l9kga2z594","22","[""Black or African-American""]","No","Female","652318.2000000179","null","","<p></p>","null","rating","wbw","catch","null","microwave ovens","95","95","15","25","10","25","1","","","","","","","","","",""
"","","","","","rating_trial","survey-html-form","16","160322","0.0-3.0-1.6","193","1","2025-04-14 14:45:19","bb671e3ae32f654b8954ea4c4635f915","","Mozilla/5.0 (Windows NT 10.0; Win64; x64) AppleWebKit/537.36 (KHTML, like Gecko) Chrome/130.0.0.0 Safari/537.36","WebKit","Chrome","130.0.0.0","Windows","10.0","https://hz8g1ckzuq.cognition.run/","en,en-US;q=0.9","88797l9kga2z594","22","[""Black or African-American""]","No","Female","652318.2000000179","21749","","","{""price_1"":""230"",""price_2"":""350"",""price_3"":""250""}","rating","wbw","catch","null","microwave ovens","95","95","15","25","10","25","1","null","null","null","null","null","null","Warranty","Cooking power","",""
"","","","","","rating_trial_setup","html-keyboard-response","17","160624","0.0-3.0-0.7","193","1","2025-04-14 14:45:19","bb671e3ae32f654b8954ea4c4635f915","","Mozilla/5.0 (Windows NT 10.0; Win64; x64) AppleWebKit/537.36 (KHTML, like Gecko) Chrome/130.0.0.0 Safari/537.36","WebKit","Chrome","130.0.0.0","Windows","10.0","https://hz8g1ckzuq.cognition.run/","en,en-US;q=0.9","88797l9kga2z594","22","[""Black or African-American""]","No","Female","652318.2000000179","null","","<p></p>","null","rating","dtc","attraction_2","2","laptops","null","null","null","null","null","null","2","","","","","","","","","",""
"","","","","","rating_trial","survey-html-form","18","175963","0.0-3.0-1.7","193","1","2025-04-14 14:45:19","bb671e3ae32f654b8954ea4c4635f915","","Mozilla/5.0 (Windows NT 10.0; Win64; x64) AppleWebKit/537.36 (KHTML, like Gecko) Chrome/130.0.0.0 Safari/537.36","WebKit","Chrome","130.0.0.0","Windows","10.0","https://hz8g1ckzuq.cognition.run/","en,en-US;q=0.9","88797l9kga2z594","22","[""Black or African-American""]","No","Female","652318.2000000179","15337","","","{""price_1"":""300"",""price_2"":""230"",""price_3"":""340""}","rating","dtc","attraction_2","2","laptops","null","null","null","null","null","null","2","50","60","40","60","50","60","Processing speed","Memory (RAM)","",""
"","","","","","rating_trial_setup","html-keyboard-response","19","176264","0.0-3.0-0.8","193","1","2025-04-14 14:45:19","bb671e3ae32f654b8954ea4c4635f915","","Mozilla/5.0 (Windows NT 10.0; Win64; x64) AppleWebKit/537.36 (KHTML, like Gecko) Chrome/130.0.0.0 Safari/537.36","WebKit","Chrome","130.0.0.0","Windows","10.0","https://hz8g1ckzuq.cognition.run/","en,en-US;q=0.9","88797l9kga2z594","22","[""Black or African-American""]","No","Female","652318.2000000179","null","","<p></p>","null","rating","ctd","attraction_2","1","televisions","null","null","null","null","null","null","1","","","","","","","","","",""
"","","","","","rating_trial","survey-html-form","20","189611","0.0-3.0-1.8","193","1","2025-04-14 14:45:19","bb671e3ae32f654b8954ea4c4635f915","","Mozilla/5.0 (Windows NT 10.0; Win64; x64) AppleWebKit/537.36 (KHTML, like Gecko) Chrome/130.0.0.0 Safari/537.36","WebKit","Chrome","130.0.0.0","Windows","10.0","https://hz8g1ckzuq.cognition.run/","en,en-US;q=0.9","88797l9kga2z594","22","[""Black or African-American""]","No","Female","652318.2000000179","13345","","","{""price_1"":""340"",""price_2"":""230"",""price_3"":""300""}","rating","ctd","attraction_2","1","televisions","null","null","null","null","null","null","1","60","50","60","50","60","40","Screen size","Average lifespan","",""
"","","","","","rating_trial_setup","html-keyboard-response","21","189912","0.0-3.0-0.9","193","1","2025-04-14 14:45:19","bb671e3ae32f654b8954ea4c4635f915","","Mozilla/5.0 (Windows NT 10.0; Win64; x64) AppleWebKit/537.36 (KHTML, like Gecko) Chrome/130.0.0.0 Safari/537.36","WebKit","Chrome","130.0.0.0","Windows","10.0","https://hz8g1ckzuq.cognition.run/","en,en-US;q=0.9","88797l9kga2z594","22","[""Black or African-American""]","No","Female","652318.2000000179","null","","<p></p>","null","rating","bww","catch","null","laptops","85","65","10","45","5","45","2","","","","","","","","","",""
"","","","","","rating_trial","survey-html-form","22","205027","0.0-3.0-1.9","193","1","2025-04-14 14:45:19","bb671e3ae32f654b8954ea4c4635f915","","Mozilla/5.0 (Windows NT 10.0; Win64; x64) AppleWebKit/537.36 (KHTML, like Gecko) Chrome/130.0.0.0 Safari/537.36","WebKit","Chrome","130.0.0.0","Windows","10.0","https://hz8g1ckzuq.cognition.run/","en,en-US;q=0.9","88797l9kga2z594","22","[""Black or African-American""]","No","Female","652318.2000000179","15112","","","{""price_1"":""300"",""price_2"":""280"",""price_3"":""250""}","rating","bww","catch","null","laptops","85","65","10","45","5","45","2","null","null","null","null","null","null","Processing speed","Memory (RAM)","",""
"","","","","","rating_trial_setup","html-keyboard-response","23","205329","0.0-3.0-0.10","193","1","2025-04-14 14:45:19","bb671e3ae32f654b8954ea4c4635f915","","Mozilla/5.0 (Windows NT 10.0; Win64; x64) AppleWebKit/537.36 (KHTML, like Gecko) Chrome/130.0.0.0 Safari/537.36","WebKit","Chrome","130.0.0.0","Windows","10.0","https://hz8g1ckzuq.cognition.run/","en,en-US;q=0.9","88797l9kga2z594","22","[""Black or African-American""]","No","Female","652318.2000000179","null","","<p></p>","null","rating","wbw","catch","null","televisions","85","55","10","5","5","10","1","","","","","","","","","",""
"","","","","","rating_trial","survey-html-form","24","216891","0.0-3.0-1.10","193","1","2025-04-14 14:45:19","bb671e3ae32f654b8954ea4c4635f915","","Mozilla/5.0 (Windows NT 10.0; Win64; x64) AppleWebKit/537.36 (KHTML, like Gecko) Chrome/130.0.0.0 Safari/537.36","WebKit","Chrome","130.0.0.0","Windows","10.0","https://hz8g1ckzuq.cognition.run/","en,en-US;q=0.9","88797l9kga2z594","22","[""Black or African-American""]","No","Female","652318.2000000179","11558","","","{""price_1"":""300"",""price_2"":""260"",""price_3"":""280""}","rating","wbw","catch","null","televisions","85","55","10","5","5","10","1","null","null","null","null","null","null","Screen size","Average lifespan","",""
"","","","","","rating_trial_setup","html-keyboard-response","25","217192","0.0-3.0-0.11","193","1","2025-04-14 14:45:19","bb671e3ae32f654b8954ea4c4635f915","","Mozilla/5.0 (Windows NT 10.0; Win64; x64) AppleWebKit/537.36 (KHTML, like Gecko) Chrome/130.0.0.0 Safari/537.36","WebKit","Chrome","130.0.0.0","Windows","10.0","https://hz8g1ckzuq.cognition.run/","en,en-US;q=0.9","88797l9kga2z594","22","[""Black or African-American""]","No","Female","652318.2000000179","null","","<p></p>","null","rating","dtc","repulsion_2","1","laptops","null","null","null","null","null","null","2","","","","","","","","","",""
"","","","","","rating_trial","survey-html-form","26","234147","0.0-3.0-1.11","193","1","2025-04-14 14:45:19","bb671e3ae32f654b8954ea4c4635f915","","Mozilla/5.0 (Windows NT 10.0; Win64; x64) AppleWebKit/537.36 (KHTML, like Gecko) Chrome/130.0.0.0 Safari/537.36","WebKit","Chrome","130.0.0.0","Windows","10.0","https://hz8g1ckzuq.cognition.run/","en,en-US;q=0.9","88797l9kga2z594","22","[""Black or African-American""]","No","Female","652318.2000000179","16953","","","{""price_1"":""290"",""price_2"":""340"",""price_3"":""230""}","rating","dtc","repulsion_2","1","laptops","null","null","null","null","null","null","2","100","90","100","30","40","20","Processing speed","Memory (RAM)","",""
"","","","","","rating_trial_setup","html-keyboard-response","27","234450","0.0-3.0-0.12","193","1","2025-04-14 14:45:19","bb671e3ae32f654b8954ea4c4635f915","","Mozilla/5.0 (Windows NT 10.0; Win64; x64) AppleWebKit/537.36 (KHTML, like Gecko) Chrome/130.0.0.0 Safari/537.36","WebKit","Chrome","130.0.0.0","Windows","10.0","https://hz8g1ckzuq.cognition.run/","en,en-US;q=0.9","88797l9kga2z594","22","[""Black or African-American""]","No","Female","652318.2000000179","null","","<p></p>","null","rating","tdc","repulsion_2","2","washing machines","null","null","null","null","null","null","2","","","","","","","","","",""
"","","","","","rating_trial","survey-html-form","28","246643","0.0-3.0-1.12","193","1","2025-04-14 14:45:19","bb671e3ae32f654b8954ea4c4635f915","","Mozilla/5.0 (Windows NT 10.0; Win64; x64) AppleWebKit/537.36 (KHTML, like Gecko) Chrome/130.0.0.0 Safari/537.36","WebKit","Chrome","130.0.0.0","Windows","10.0","https://hz8g1ckzuq.cognition.run/","en,en-US;q=0.9","88797l9kga2z594","22","[""Black or African-American""]","No","Female","652318.2000000179","12191","","","{""price_1"":""340"",""price_2"":""240"",""price_3"":""340""}","rating","tdc","repulsion_2","2","washing machines","null","null","null","null","null","null","2","30","40","20","100","90","100","Average lifespan","Energy savings","",""
"","","","","","rating_trial_setup","html-keyboard-response","29","246945","0.0-3.0-0.13","193","1","2025-04-14 14:45:19","bb671e3ae32f654b8954ea4c4635f915","","Mozilla/5.0 (Windows NT 10.0; Win64; x64) AppleWebKit/537.36 (KHTML, like Gecko) Chrome/130.0.0.0 Safari/537.36","WebKit","Chrome","130.0.0.0","Windows","10.0","https://hz8g1ckzuq.cognition.run/","en,en-US;q=0.9","88797l9kga2z594","22","[""Black or African-American""]","No","Female","652318.2000000179","null","","<p></p>","null","rating","ctd","repulsion_2","2","televisions","null","null","null","null","null","null","2","","","","","","","","","",""
"","","","","","rating_trial","survey-html-form","30","257378","0.0-3.0-1.13","193","1","2025-04-14 14:45:19","bb671e3ae32f654b8954ea4c4635f915","","Mozilla/5.0 (Windows NT 10.0; Win64; x64) AppleWebKit/537.36 (KHTML, like Gecko) Chrome/130.0.0.0 Safari/537.36","WebKit","Chrome","130.0.0.0","Windows","10.0","https://hz8g1ckzuq.cognition.run/","en,en-US;q=0.9","88797l9kga2z594","22","[""Black or African-American""]","No","Female","652318.2000000179","10428","","","{""price_1"":""120"",""price_2"":""240"",""price_3"":""300""}","rating","ctd","repulsion_2","2","televisions","null","null","null","null","null","null","2","30","40","20","100","90","100","Screen size","Average lifespan","",""
"","","","","","rating_trial_setup","html-keyboard-response","31","257681","0.0-3.0-0.14","193","1","2025-04-14 14:45:19","bb671e3ae32f654b8954ea4c4635f915","","Mozilla/5.0 (Windows NT 10.0; Win64; x64) AppleWebKit/537.36 (KHTML, like Gecko) Chrome/130.0.0.0 Safari/537.36","WebKit","Chrome","130.0.0.0","Windows","10.0","https://hz8g1ckzuq.cognition.run/","en,en-US;q=0.9","88797l9kga2z594","22","[""Black or African-American""]","No","Female","652318.2000000179","null","","<p></p>","null","rating","tcd","repulsion_1","1","televisions","null","null","null","null","null","null","1","","","","","","","","","",""
"","","","","","rating_trial","survey-html-form","32","269602","0.0-3.0-1.14","193","1","2025-04-14 14:45:19","bb671e3ae32f654b8954ea4c4635f915","","Mozilla/5.0 (Windows NT 10.0; Win64; x64) AppleWebKit/537.36 (KHTML, like Gecko) Chrome/130.0.0.0 Safari/537.36","WebKit","Chrome","130.0.0.0","Windows","10.0","https://hz8g1ckzuq.cognition.run/","en,en-US;q=0.9","88797l9kga2z594","22","[""Black or African-American""]","No","Female","652318.2000000179","11917","","","{""price_1"":""400"",""price_2"":""300"",""price_3"":""340""}","rating","tcd","repulsion_1","1","televisions","null","null","null","null","null","null","1","100","90","100","30","40","25","Screen size","Average lifespan","",""
"","","","","","rating_trial_setup","html-keyboard-response","33","269906","0.0-3.0-0.15","193","1","2025-04-14 14:45:19","bb671e3ae32f654b8954ea4c4635f915","","Mozilla/5.0 (Windows NT 10.0; Win64; x64) AppleWebKit/537.36 (KHTML, like Gecko) Chrome/130.0.0.0 Safari/537.36","WebKit","Chrome","130.0.0.0","Windows","10.0","https://hz8g1ckzuq.cognition.run/","en,en-US;q=0.9","88797l9kga2z594","22","[""Black or African-American""]","No","Female","652318.2000000179","null","","<p></p>","null","rating","wwb","catch","null","televisions","70","65","35","35","50","10","1","","","","","","","","","",""
"","","","","","rating_trial","survey-html-form","34","278682","0.0-3.0-1.15","193","1","2025-04-14 14:45:19","bb671e3ae32f654b8954ea4c4635f915","","Mozilla/5.0 (Windows NT 10.0; Win64; x64) AppleWebKit/537.36 (KHTML, like Gecko) Chrome/130.0.0.0 Safari/537.36","WebKit","Chrome","130.0.0.0","Windows","10.0","https://hz8g1ckzuq.cognition.run/","en,en-US;q=0.9","88797l9kga2z594","22","[""Black or African-American""]","No","Female","652318.2000000179","8775","","","{""price_1"":""300"",""price_2"":""450"",""price_3"":""200""}","rating","wwb","catch","null","televisions","70","65","35","35","50","10","1","null","null","null","null","null","null","Screen size","Average lifespan","",""
"","","","","","rating_trial_setup","html-keyboard-response","35","278984","0.0-3.0-0.16","193","1","2025-04-14 14:45:19","bb671e3ae32f654b8954ea4c4635f915","","Mozilla/5.0 (Windows NT 10.0; Win64; x64) AppleWebKit/537.36 (KHTML, like Gecko) Chrome/130.0.0.0 Safari/537.36","WebKit","Chrome","130.0.0.0","Windows","10.0","https://hz8g1ckzuq.cognition.run/","en,en-US;q=0.9","88797l9kga2z594","22","[""Black or African-American""]","No","Female","652318.2000000179","null","","<p></p>","null","rating","wbw","catch","null","microwave ovens","50","90","40","30","10","30","2","","","","","","","","","",""
"","","","","","rating_trial","survey-html-form","36","286986","0.0-3.0-1.16","193","1","2025-04-14 14:45:19","bb671e3ae32f654b8954ea4c4635f915","","Mozilla/5.0 (Windows NT 10.0; Win64; x64) AppleWebKit/537.36 (KHTML, like Gecko) Chrome/130.0.0.0 Safari/537.36","WebKit","Chrome","130.0.0.0","Windows","10.0","https://hz8g1ckzuq.cognition.run/","en,en-US;q=0.9","88797l9kga2z594","22","[""Black or African-American""]","No","Female","652318.2000000179","7998","","","{""price_1"":""200"",""price_2"":""450"",""price_3"":""230""}","rating","wbw","catch","null","microwave ovens","50","90","40","30","10","30","2","null","null","null","null","null","null","Warranty","Cooking power","",""
"","","","","","rating_trial_setup","html-keyboard-response","37","287290","0.0-3.0-0.17","193","1","2025-04-14 14:45:19","bb671e3ae32f654b8954ea4c4635f915","","Mozilla/5.0 (Windows NT 10.0; Win64; x64) AppleWebKit/537.36 (KHTML, like Gecko) Chrome/130.0.0.0 Safari/537.36","WebKit","Chrome","130.0.0.0","Windows","10.0","https://hz8g1ckzuq.cognition.run/","en,en-US;q=0.9","88797l9kga2z594","22","[""Black or African-American""]","No","Female","652318.2000000179","null","","<p></p>","null","rating","tcd","attraction_2","1","laptops","null","null","null","null","null","null","2","","","","","","","","","",""
"","","","","","rating_trial","survey-html-form","38","298026","0.0-3.0-1.17","193","1","2025-04-14 14:45:19","bb671e3ae32f654b8954ea4c4635f915","","Mozilla/5.0 (Windows NT 10.0; Win64; x64) AppleWebKit/537.36 (KHTML, like Gecko) Chrome/130.0.0.0 Safari/537.36","WebKit","Chrome","130.0.0.0","Windows","10.0","https://hz8g1ckzuq.cognition.run/","en,en-US;q=0.9","88797l9kga2z594","22","[""Black or African-American""]","No","Female","652318.2000000179","10734","","","{""price_1"":""500"",""price_2"":""450"",""price_3"":""400""}","rating","tcd","attraction_2","1","laptops","null","null","null","null","null","null","2","60","50","60","50","60","40","Processing speed","Memory (RAM)","",""
"","","","","","rating_trial_setup","html-keyboard-response","39","298329","0.0-3.0-0.18","193","1","2025-04-14 14:45:19","bb671e3ae32f654b8954ea4c4635f915","","Mozilla/5.0 (Windows NT 10.0; Win64; x64) AppleWebKit/537.36 (KHTML, like Gecko) Chrome/130.0.0.0 Safari/537.36","WebKit","Chrome","130.0.0.0","Windows","10.0","https://hz8g1ckzuq.cognition.run/","en,en-US;q=0.9","88797l9kga2z594","22","[""Black or African-American""]","No","Female","652318.2000000179","null","","<p></p>","null","rating","dtc","attraction_2","2","microwave ovens","null","null","null","null","null","null","2","","","","","","","","","",""
"","","","","","rating_trial","survey-html-form","40","306282","0.0-3.0-1.18","193","1","2025-04-14 14:45:19","bb671e3ae32f654b8954ea4c4635f915","","Mozilla/5.0 (Windows NT 10.0; Win64; x64) AppleWebKit/537.36 (KHTML, like Gecko) Chrome/130.0.0.0 Safari/537.36","WebKit","Chrome","130.0.0.0","Windows","10.0","https://hz8g1ckzuq.cognition.run/","en,en-US;q=0.9","88797l9kga2z594","22","[""Black or African-American""]","No","Female","652318.2000000179","7948","","","{""price_1"":""200"",""price_2"":""300"",""price_3"":""50""}","rating","dtc","attraction_2","2","microwave ovens","null","null","null","null","null","null","2","50","60","40","60","50","60","Warranty","Cooking power","",""
"","","","","","rating_trial_setup","html-keyboard-response","41","306585","0.0-3.0-0.19","193","1","2025-04-14 14:45:19","bb671e3ae32f654b8954ea4c4635f915","","Mozilla/5.0 (Windows NT 10.0; Win64; x64) AppleWebKit/537.36 (KHTML, like Gecko) Chrome/130.0.0.0 Safari/537.36","WebKit","Chrome","130.0.0.0","Windows","10.0","https://hz8g1ckzuq.cognition.run/","en,en-US;q=0.9","88797l9kga2z594","22","[""Black or African-American""]","No","Female","652318.2000000179","null","","<p></p>","null","rating","cdt","attraction_1","1","washing machines","null","null","null","null","null","null","1","","","","","","","","","",""
"","","","","","rating_trial","survey-html-form","42","315026","0.0-3.0-1.19","193","1","2025-04-14 14:45:19","bb671e3ae32f654b8954ea4c4635f915","","Mozilla/5.0 (Windows NT 10.0; Win64; x64) AppleWebKit/537.36 (KHTML, like Gecko) Chrome/130.0.0.0 Safari/537.36","WebKit","Chrome","130.0.0.0","Windows","10.0","https://hz8g1ckzuq.cognition.run/","en,en-US;q=0.9","88797l9kga2z594","22","[""Black or African-American""]","No","Female","652318.2000000179","8438","","","{""price_1"":""300"",""price_2"":""500"",""price_3"":""550""}","rating","cdt","attraction_1","1","washing machines","null","null","null","null","null","null","1","60","50","60","50","60","45","Average lifespan","Energy savings","",""
"","","","","","rating_trial_setup","html-keyboard-response","43","315329","0.0-3.0-0.20","193","1","2025-04-14 14:45:19","bb671e3ae32f654b8954ea4c4635f915","","Mozilla/5.0 (Windows NT 10.0; Win64; x64) AppleWebKit/537.36 (KHTML, like Gecko) Chrome/130.0.0.0 Safari/537.36","WebKit","Chrome","130.0.0.0","Windows","10.0","https://hz8g1ckzuq.cognition.run/","en,en-US;q=0.9","88797l9kga2z594","22","[""Black or African-American""]","No","Female","652318.2000000179","null","","<p></p>","null","rating","dtc","attraction_2","2","televisions","null","null","null","null","null","null","1","","","","","","","","","",""
"","","","","","rating_trial","survey-html-form","44","324340","0.0-3.0-1.20","193","1","2025-04-14 14:45:19","bb671e3ae32f654b8954ea4c4635f915","","Mozilla/5.0 (Windows NT 10.0; Win64; x64) AppleWebKit/537.36 (KHTML, like Gecko) Chrome/130.0.0.0 Safari/537.36","WebKit","Chrome","130.0.0.0","Windows","10.0","https://hz8g1ckzuq.cognition.run/","en,en-US;q=0.9","88797l9kga2z594","22","[""Black or African-American""]","No","Female","652318.2000000179","9005","","","{""price_1"":""400"",""price_2"":""350"",""price_3"":""450""}","rating","dtc","attraction_2","2","televisions","null","null","null","null","null","null","1","50","60","40","60","50","60","Screen size","Average lifespan","",""
"","","","","","rating_trial_setup","html-keyboard-response","45","324641","0.0-3.0-0.21","193","1","2025-04-14 14:45:19","bb671e3ae32f654b8954ea4c4635f915","","Mozilla/5.0 (Windows NT 10.0; Win64; x64) AppleWebKit/537.36 (KHTML, like Gecko) Chrome/130.0.0.0 Safari/537.36","WebKit","Chrome","130.0.0.0","Windows","10.0","https://hz8g1ckzuq.cognition.run/","en,en-US;q=0.9","88797l9kga2z594","22","[""Black or African-American""]","No","Female","652318.2000000179","null","","<p></p>","null","rating","dct","repulsion_1","1","laptops","null","null","null","null","null","null","1","","","","","","","","","",""
"","","","","","rating_trial","survey-html-form","46","332738","0.0-3.0-1.21","193","1","2025-04-14 14:45:19","bb671e3ae32f654b8954ea4c4635f915","","Mozilla/5.0 (Windows NT 10.0; Win64; x64) AppleWebKit/537.36 (KHTML, like Gecko) Chrome/130.0.0.0 Safari/537.36","WebKit","Chrome","130.0.0.0","Windows","10.0","https://hz8g1ckzuq.cognition.run/","en,en-US;q=0.9","88797l9kga2z594","22","[""Black or African-American""]","No","Female","652318.2000000179","8095","","","{""price_1"":""450"",""price_2"":""400"",""price_3"":""300""}","rating","dct","repulsion_1","1","laptops","null","null","null","null","null","null","1","100","90","100","30","40","25","Processing speed","Memory (RAM)","",""
"","","","","","rating_trial_setup","html-keyboard-response","47","333040","0.0-3.0-0.22","193","1","2025-04-14 14:45:19","bb671e3ae32f654b8954ea4c4635f915","","Mozilla/5.0 (Windows NT 10.0; Win64; x64) AppleWebKit/537.36 (KHTML, like Gecko) Chrome/130.0.0.0 Safari/537.36","WebKit","Chrome","130.0.0.0","Windows","10.0","https://hz8g1ckzuq.cognition.run/","en,en-US;q=0.9","88797l9kga2z594","22","[""Black or African-American""]","No","Female","652318.2000000179","null","","<p></p>","null","rating","dct","repulsion_2","1","microwave ovens","null","null","null","null","null","null","1","","","","","","","","","",""
"","","","","","rating_trial","survey-html-form","48","340426","0.0-3.0-1.22","193","1","2025-04-14 14:45:19","bb671e3ae32f654b8954ea4c4635f915","","Mozilla/5.0 (Windows NT 10.0; Win64; x64) AppleWebKit/537.36 (KHTML, like Gecko) Chrome/130.0.0.0 Safari/537.36","WebKit","Chrome","130.0.0.0","Windows","10.0","https://hz8g1ckzuq.cognition.run/","en,en-US;q=0.9","88797l9kga2z594","22","[""Black or African-American""]","No","Female","652318.2000000179","7383","","","{""price_1"":""300"",""price_2"":""450"",""price_3"":""400""}","rating","dct","repulsion_2","1","microwave ovens","null","null","null","null","null","null","1","100","90","100","30","40","20","Warranty","Cooking power","",""
"","","","","","rating_trial_setup","html-keyboard-response","49","340729","0.0-3.0-0.23","193","1","2025-04-14 14:45:19","bb671e3ae32f654b8954ea4c4635f915","","Mozilla/5.0 (Windows NT 10.0; Win64; x64) AppleWebKit/537.36 (KHTML, like Gecko) Chrome/130.0.0.0 Safari/537.36","WebKit","Chrome","130.0.0.0","Windows","10.0","https://hz8g1ckzuq.cognition.run/","en,en-US;q=0.9","88797l9kga2z594","22","[""Black or African-American""]","No","Female","652318.2000000179","null","","<p></p>","null","rating","tcd","repulsion_2","1","televisions","null","null","null","null","null","null","2","","","","","","","","","",""
"","","","","","rating_trial","survey-html-form","50","347858","0.0-3.0-1.23","193","1","2025-04-14 14:45:19","bb671e3ae32f654b8954ea4c4635f915","","Mozilla/5.0 (Windows NT 10.0; Win64; x64) AppleWebKit/537.36 (KHTML, like Gecko) Chrome/130.0.0.0 Safari/537.36","WebKit","Chrome","130.0.0.0","Windows","10.0","https://hz8g1ckzuq.cognition.run/","en,en-US;q=0.9","88797l9kga2z594","22","[""Black or African-American""]","No","Female","652318.2000000179","7126","","","{""price_1"":""350"",""price_2"":""500"",""price_3"":""600""}","rating","tcd","repulsion_2","1","televisions","null","null","null","null","null","null","2","100","90","100","30","40","20","Screen size","Average lifespan","",""
"","","","","","rating_trial_setup","html-keyboard-response","51","348161","0.0-3.0-0.24","193","1","2025-04-14 14:45:19","bb671e3ae32f654b8954ea4c4635f915","","Mozilla/5.0 (Windows NT 10.0; Win64; x64) AppleWebKit/537.36 (KHTML, like Gecko) Chrome/130.0.0.0 Safari/537.36","WebKit","Chrome","130.0.0.0","Windows","10.0","https://hz8g1ckzuq.cognition.run/","en,en-US;q=0.9","88797l9kga2z594","22","[""Black or African-American""]","No","Female","652318.2000000179","null","","<p></p>","null","rating","cdt","repulsion_1","2","microwave ovens","null","null","null","null","null","null","2","","","","","","","","","",""
"","","","","","rating_trial","survey-html-form","52","361122","0.0-3.0-1.24","193","1","2025-04-14 14:45:19","bb671e3ae32f654b8954ea4c4635f915","","Mozilla/5.0 (Windows NT 10.0; Win64; x64) AppleWebKit/537.36 (KHTML, like Gecko) Chrome/130.0.0.0 Safari/537.36","WebKit","Chrome","130.0.0.0","Windows","10.0","https://hz8g1ckzuq.cognition.run/","en,en-US;q=0.9","88797l9kga2z594","22","[""Black or African-American""]","No","Female","652318.2000000179","12958","","","{""price_1"":""400"",""price_2"":""300"",""price_3"":""400""}","rating","cdt","repulsion_1","2","microwave ovens","null","null","null","null","null","null","2","30","40","25","100","90","100","Warranty","Cooking power","",""
"","","","","","rating_trial_setup","html-keyboard-response","53","361424","0.0-3.0-0.25","193","1","2025-04-14 14:45:19","bb671e3ae32f654b8954ea4c4635f915","","Mozilla/5.0 (Windows NT 10.0; Win64; x64) AppleWebKit/537.36 (KHTML, like Gecko) Chrome/130.0.0.0 Safari/537.36","WebKit","Chrome","130.0.0.0","Windows","10.0","https://hz8g1ckzuq.cognition.run/","en,en-US;q=0.9","88797l9kga2z594","22","[""Black or African-American""]","No","Female","652318.2000000179","null","","<p></p>","null","rating","ctd","repulsion_1","2","washing machines","null","null","null","null","null","null","2","","","","","","","","","",""
"","","","","","rating_trial","survey-html-form","54","370842","0.0-3.0-1.25","193","1","2025-04-14 14:45:19","bb671e3ae32f654b8954ea4c4635f915","","Mozilla/5.0 (Windows NT 10.0; Win64; x64) AppleWebKit/537.36 (KHTML, like Gecko) Chrome/130.0.0.0 Safari/537.36","WebKit","Chrome","130.0.0.0","Windows","10.0","https://hz8g1ckzuq.cognition.run/","en,en-US;q=0.9","88797l9kga2z594","22","[""Black or African-American""]","No","Female","652318.2000000179","9416","","","{""price_1"":""200"",""price_2"":""500"",""price_3"":""400""}","rating","ctd","repulsion_1","2","washing machines","null","null","null","null","null","null","2","30","40","25","100","90","100","Average lifespan","Energy savings","",""
"","","","","","rating_trial_setup","html-keyboard-response","55","371145","0.0-3.0-0.26","193","1","2025-04-14 14:45:19","bb671e3ae32f654b8954ea4c4635f915","","Mozilla/5.0 (Windows NT 10.0; Win64; x64) AppleWebKit/537.36 (KHTML, like Gecko) Chrome/130.0.0.0 Safari/537.36","WebKit","Chrome","130.0.0.0","Windows","10.0","https://hz8g1ckzuq.cognition.run/","en,en-US;q=0.9","88797l9kga2z594","22","[""Black or African-American""]","No","Female","652318.2000000179","null","","<p></p>","null","rating","tdc","attraction_1","2","laptops","null","null","null","null","null","null","2","","","","","","","","","",""
"","","","","","rating_trial","survey-html-form","56","381770","0.0-3.0-1.26","193","1","2025-04-14 14:45:19","bb671e3ae32f654b8954ea4c4635f915","","Mozilla/5.0 (Windows NT 10.0; Win64; x64) AppleWebKit/537.36 (KHTML, like Gecko) Chrome/130.0.0.0 Safari/537.36","WebKit","Chrome","130.0.0.0","Windows","10.0","https://hz8g1ckzuq.cognition.run/","en,en-US;q=0.9","88797l9kga2z594","22","[""Black or African-American""]","No","Female","652318.2000000179","10622","","","{""price_1"":""300"",""price_2"":""400"",""price_3"":""400""}","rating","tdc","attraction_1","2","laptops","null","null","null","null","null","null","2","50","60","45","60","50","60","Processing speed","Memory (RAM)","",""
"","","","","","rating_trial_setup","html-keyboard-response","57","382073","0.0-3.0-0.27","193","1","2025-04-14 14:45:19","bb671e3ae32f654b8954ea4c4635f915","","Mozilla/5.0 (Windows NT 10.0; Win64; x64) AppleWebKit/537.36 (KHTML, like Gecko) Chrome/130.0.0.0 Safari/537.36","WebKit","Chrome","130.0.0.0","Windows","10.0","https://hz8g1ckzuq.cognition.run/","en,en-US;q=0.9","88797l9kga2z594","22","[""Black or African-American""]","No","Female","652318.2000000179","null","","<p></p>","null","rating","tcd","attraction_1","2","washing machines","null","null","null","null","null","null","1","","","","","","","","","",""
"","","","","","rating_trial","survey-html-form","58","390634","0.0-3.0-1.27","193","1","2025-04-14 14:45:19","bb671e3ae32f654b8954ea4c4635f915","","Mozilla/5.0 (Windows NT 10.0; Win64; x64) AppleWebKit/537.36 (KHTML, like Gecko) Chrome/130.0.0.0 Safari/537.36","WebKit","Chrome","130.0.0.0","Windows","10.0","https://hz8g1ckzuq.cognition.run/","en,en-US;q=0.9","88797l9kga2z594","22","[""Black or African-American""]","No","Female","652318.2000000179","8557","","","{""price_1"":""360"",""price_2"":""500"",""price_3"":""300""}","rating","tcd","attraction_1","2","washing machines","null","null","null","null","null","null","1","50","60","45","60","50","60","Average lifespan","Energy savings","",""
"","","","","","rating_trial_setup","html-keyboard-response","59","390936","0.0-3.0-0.28","193","1","2025-04-14 14:45:19","bb671e3ae32f654b8954ea4c4635f915","","Mozilla/5.0 (Windows NT 10.0; Win64; x64) AppleWebKit/537.36 (KHTML, like Gecko) Chrome/130.0.0.0 Safari/537.36","WebKit","Chrome","130.0.0.0","Windows","10.0","https://hz8g1ckzuq.cognition.run/","en,en-US;q=0.9","88797l9kga2z594","22","[""Black or African-American""]","No","Female","652318.2000000179","null","","<p></p>","null","rating","wbw","catch","null","washing machines","80","75","20","45","20","50","1","","","","","","","","","",""
"","","","","","rating_trial","survey-html-form","60","399306","0.0-3.0-1.28","193","1","2025-04-14 14:45:19","bb671e3ae32f654b8954ea4c4635f915","","Mozilla/5.0 (Windows NT 10.0; Win64; x64) AppleWebKit/537.36 (KHTML, like Gecko) Chrome/130.0.0.0 Safari/537.36","WebKit","Chrome","130.0.0.0","Windows","10.0","https://hz8g1ckzuq.cognition.run/","en,en-US;q=0.9","88797l9kga2z594","22","[""Black or African-American""]","No","Female","652318.2000000179","8367","","","{""price_1"":""500"",""price_2"":""300"",""price_3"":""400""}","rating","wbw","catch","null","washing machines","80","75","20","45","20","50","1","null","null","null","null","null","null","Average lifespan","Energy savings","",""
"","","","","","rating_trial_setup","html-keyboard-response","61","399608","0.0-3.0-0.29","193","1","2025-04-14 14:45:19","bb671e3ae32f654b8954ea4c4635f915","","Mozilla/5.0 (Windows NT 10.0; Win64; x64) AppleWebKit/537.36 (KHTML, like Gecko) Chrome/130.0.0.0 Safari/537.36","WebKit","Chrome","130.0.0.0","Windows","10.0","https://hz8g1ckzuq.cognition.run/","en,en-US;q=0.9","88797l9kga2z594","22","[""Black or African-American""]","No","Female","652318.2000000179","null","","<p></p>","null","rating","dtc","repulsion_1","1","microwave ovens","null","null","null","null","null","null","2","","","","","","","","","",""
"","","","","","rating_trial","survey-html-form","62","407826","0.0-3.0-1.29","193","1","2025-04-14 14:45:19","bb671e3ae32f654b8954ea4c4635f915","","Mozilla/5.0 (Windows NT 10.0; Win64; x64) AppleWebKit/537.36 (KHTML, like Gecko) Chrome/130.0.0.0 Safari/537.36","WebKit","Chrome","130.0.0.0","Windows","10.0","https://hz8g1ckzuq.cognition.run/","en,en-US;q=0.9","88797l9kga2z594","22","[""Black or African-American""]","No","Female","652318.2000000179","8213","","","{""price_1"":""400"",""price_2"":""400"",""price_3"":""350""}","rating","dtc","repulsion_1","1","microwave ovens","null","null","null","null","null","null","2","100","90","100","30","40","25","Warranty","Cooking power","",""
"","","","","","rating_trial_setup","html-keyboard-response","63","408129","0.0-3.0-0.30","193","1","2025-04-14 14:45:19","bb671e3ae32f654b8954ea4c4635f915","","Mozilla/5.0 (Windows NT 10.0; Win64; x64) AppleWebKit/537.36 (KHTML, like Gecko) Chrome/130.0.0.0 Safari/537.36","WebKit","Chrome","130.0.0.0","Windows","10.0","https://hz8g1ckzuq.cognition.run/","en,en-US;q=0.9","88797l9kga2z594","22","[""Black or African-American""]","No","Female","652318.2000000179","null","","<p></p>","null","rating","dtc","attraction_1","1","televisions","null","null","null","null","null","null","1","","","","","","","","","",""
"","","","","","rating_trial","survey-html-form","64","416602","0.0-3.0-1.30","193","1","2025-04-14 14:45:19","bb671e3ae32f654b8954ea4c4635f915","","Mozilla/5.0 (Windows NT 10.0; Win64; x64) AppleWebKit/537.36 (KHTML, like Gecko) Chrome/130.0.0.0 Safari/537.36","WebKit","Chrome","130.0.0.0","Windows","10.0","https://hz8g1ckzuq.cognition.run/","en,en-US;q=0.9","88797l9kga2z594","22","[""Black or African-American""]","No","Female","652318.2000000179","8466","","","{""price_1"":""300"",""price_2"":""450"",""price_3"":""230""}","rating","dtc","attraction_1","1","televisions","null","null","null","null","null","null","1","60","50","60","50","60","45","Screen size","Average lifespan","",""
"","","","","","rating_trial_setup","html-keyboard-response","65","416906","0.0-3.0-0.31","193","1","2025-04-14 14:45:19","bb671e3ae32f654b8954ea4c4635f915","","Mozilla/5.0 (Windows NT 10.0; Win64; x64) AppleWebKit/537.36 (KHTML, like Gecko) Chrome/130.0.0.0 Safari/537.36","WebKit","Chrome","130.0.0.0","Windows","10.0","https://hz8g1ckzuq.cognition.run/","en,en-US;q=0.9","88797l9kga2z594","22","[""Black or African-American""]","No","Female","652318.2000000179","null","","<p></p>","null","rating","ctd","repulsion_1","2","televisions","null","null","null","null","null","null","1","","","","","","","","","",""
"","","","","","rating_trial","survey-html-form","66","427402","0.0-3.0-1.31","193","1","2025-04-14 14:45:19","bb671e3ae32f654b8954ea4c4635f915","","Mozilla/5.0 (Windows NT 10.0; Win64; x64) AppleWebKit/537.36 (KHTML, like Gecko) Chrome/130.0.0.0 Safari/537.36","WebKit","Chrome","130.0.0.0","Windows","10.0","https://hz8g1ckzuq.cognition.run/","en,en-US;q=0.9","88797l9kga2z594","22","[""Black or African-American""]","No","Female","652318.2000000179","10490","","","{""price_1"":""300"",""price_2"":""600"",""price_3"":""700""}","rating","ctd","repulsion_1","2","televisions","null","null","null","null","null","null","1","30","40","25","100","90","100","Screen size","Average lifespan","",""
"","","","","","rating_trial_setup","html-keyboard-response","67","427705","0.0-3.0-0.32","193","1","2025-04-14 14:45:19","bb671e3ae32f654b8954ea4c4635f915","","Mozilla/5.0 (Windows NT 10.0; Win64; x64) AppleWebKit/537.36 (KHTML, like Gecko) Chrome/130.0.0.0 Safari/537.36","WebKit","Chrome","130.0.0.0","Windows","10.0","https://hz8g1ckzuq.cognition.run/","en,en-US;q=0.9","88797l9kga2z594","22","[""Black or African-American""]","No","Female","652318.2000000179","null","","<p></p>","null","rating","tcd","repulsion_1","1","washing machines","null","null","null","null","null","null","2","","","","","","","","","",""
"","","","","","rating_trial","survey-html-form","68","436515","0.0-3.0-1.32","193","1","2025-04-14 14:45:19","bb671e3ae32f654b8954ea4c4635f915","","Mozilla/5.0 (Windows NT 10.0; Win64; x64) AppleWebKit/537.36 (KHTML, like Gecko) Chrome/130.0.0.0 Safari/537.36","WebKit","Chrome","130.0.0.0","Windows","10.0","https://hz8g1ckzuq.cognition.run/","en,en-US;q=0.9","88797l9kga2z594","22","[""Black or African-American""]","No","Female","652318.2000000179","8807","","","{""price_1"":""500"",""price_2"":""450"",""price_3"":""600""}","rating","tcd","repulsion_1","1","washing machines","null","null","null","null","null","null","2","100","90","100","30","40","25","Average lifespan","Energy savings","",""
"","","","","","rating_trial_setup","html-keyboard-response","69","436818","0.0-3.0-0.33","193","1","2025-04-14 14:45:19","bb671e3ae32f654b8954ea4c4635f915","","Mozilla/5.0 (Windows NT 10.0; Win64; x64) AppleWebKit/537.36 (KHTML, like Gecko) Chrome/130.0.0.0 Safari/537.36","WebKit","Chrome","130.0.0.0","Windows","10.0","https://hz8g1ckzuq.cognition.run/","en,en-US;q=0.9","88797l9kga2z594","22","[""Black or African-American""]","No","Female","652318.2000000179","null","","<p></p>","null","rating","wwb","catch","null","laptops","85","90","35","35","5","20","2","","","","","","","","","",""
"","","","","","rating_trial","survey-html-form","70","444530","0.0-3.0-1.33","193","1","2025-04-14 14:45:19","bb671e3ae32f654b8954ea4c4635f915","","Mozilla/5.0 (Windows NT 10.0; Win64; x64) AppleWebKit/537.36 (KHTML, like Gecko) Chrome/130.0.0.0 Safari/537.36","WebKit","Chrome","130.0.0.0","Windows","10.0","https://hz8g1ckzuq.cognition.run/","en,en-US;q=0.9","88797l9kga2z594","22","[""Black or African-American""]","No","Female","652318.2000000179","7709","","","{""price_1"":""345"",""price_2"":""678"",""price_3"":""345""}","rating","wwb","catch","null","laptops","85","90","35","35","5","20","2","null","null","null","null","null","null","Processing speed","Memory (RAM)","",""
"","","","","","rating_trial_setup","html-keyboard-response","71","444832","0.0-3.0-0.34","193","1","2025-04-14 14:45:19","bb671e3ae32f654b8954ea4c4635f915","","Mozilla/5.0 (Windows NT 10.0; Win64; x64) AppleWebKit/537.36 (KHTML, like Gecko) Chrome/130.0.0.0 Safari/537.36","WebKit","Chrome","130.0.0.0","Windows","10.0","https://hz8g1ckzuq.cognition.run/","en,en-US;q=0.9","88797l9kga2z594","22","[""Black or African-American""]","No","Female","652318.2000000179","null","","<p></p>","null","rating","tcd","attraction_2","1","microwave ovens","null","null","null","null","null","null","2","","","","","","","","","",""
"","","","","","rating_trial","survey-html-form","72","453402","0.0-3.0-1.34","193","1","2025-04-14 14:45:19","bb671e3ae32f654b8954ea4c4635f915","","Mozilla/5.0 (Windows NT 10.0; Win64; x64) AppleWebKit/537.36 (KHTML, like Gecko) Chrome/130.0.0.0 Safari/537.36","WebKit","Chrome","130.0.0.0","Windows","10.0","https://hz8g1ckzuq.cognition.run/","en,en-US;q=0.9","88797l9kga2z594","22","[""Black or African-American""]","No","Female","652318.2000000179","8567","","","{""price_1"":""567"",""price_2"":""589"",""price_3"":""234""}","rating","tcd","attraction_2","1","microwave ovens","null","null","null","null","null","null","2","60","50","60","50","60","40","Warranty","Cooking power","",""
"","","","","","rating_trial_setup","html-keyboard-response","73","453706","0.0-3.0-0.35","193","1","2025-04-14 14:45:19","bb671e3ae32f654b8954ea4c4635f915","","Mozilla/5.0 (Windows NT 10.0; Win64; x64) AppleWebKit/537.36 (KHTML, like Gecko) Chrome/130.0.0.0 Safari/537.36","WebKit","Chrome","130.0.0.0","Windows","10.0","https://hz8g1ckzuq.cognition.run/","en,en-US;q=0.9","88797l9kga2z594","22","[""Black or African-American""]","No","Female","652318.2000000179","null","","<p></p>","null","rating","dct","repulsion_2","1","washing machines","null","null","null","null","null","null","2","","","","","","","","","",""
"","","","","","rating_trial","survey-html-form","74","460690","0.0-3.0-1.35","193","1","2025-04-14 14:45:19","bb671e3ae32f654b8954ea4c4635f915","","Mozilla/5.0 (Windows NT 10.0; Win64; x64) AppleWebKit/537.36 (KHTML, like Gecko) Chrome/130.0.0.0 Safari/537.36","WebKit","Chrome","130.0.0.0","Windows","10.0","https://hz8g1ckzuq.cognition.run/","en,en-US;q=0.9","88797l9kga2z594","22","[""Black or African-American""]","No","Female","652318.2000000179","6977","","","{""price_1"":""456"",""price_2"":""678"",""price_3"":""432""}","rating","dct","repulsion_2","1","washing machines","null","null","null","null","null","null","2","100","90","100","30","40","20","Average lifespan","Energy savings","",""
"","","","","","rating_trial_setup","html-keyboard-response","75","460992","0.0-3.0-0.36","193","1","2025-04-14 14:45:19","bb671e3ae32f654b8954ea4c4635f915","","Mozilla/5.0 (Windows NT 10.0; Win64; x64) AppleWebKit/537.36 (KHTML, like Gecko) Chrome/130.0.0.0 Safari/537.36","WebKit","Chrome","130.0.0.0","Windows","10.0","https://hz8g1ckzuq.cognition.run/","en,en-US;q=0.9","88797l9kga2z594","22","[""Black or African-American""]","No","Female","652318.2000000179","null","","<p></p>","null","rating","dct","repulsion_1","2","laptops","null","null","null","null","null","null","2","","","","","","","","","",""
"","","","","","rating_trial","survey-html-form","76","471234","0.0-3.0-1.36","193","1","2025-04-14 14:45:19","bb671e3ae32f654b8954ea4c4635f915","","Mozilla/5.0 (Windows NT 10.0; Win64; x64) AppleWebKit/537.36 (KHTML, like Gecko) Chrome/130.0.0.0 Safari/537.36","WebKit","Chrome","130.0.0.0","Windows","10.0","https://hz8g1ckzuq.cognition.run/","en,en-US;q=0.9","88797l9kga2z594","22","[""Black or African-American""]","No","Female","652318.2000000179","10237","","","{""price_1"":""543"",""price_2"":""567"",""price_3"":""589""}","rating","dct","repulsion_1","2","laptops","null","null","null","null","null","null","2","30","40","25","100","90","100","Processing speed","Memory (RAM)","",""
"","","","","","rating_trial_setup","html-keyboard-response","77","471537","0.0-3.0-0.37","193","1","2025-04-14 14:45:19","bb671e3ae32f654b8954ea4c4635f915","","Mozilla/5.0 (Windows NT 10.0; Win64; x64) AppleWebKit/537.36 (KHTML, like Gecko) Chrome/130.0.0.0 Safari/537.36","WebKit","Chrome","130.0.0.0","Windows","10.0","https://hz8g1ckzuq.cognition.run/","en,en-US;q=0.9","88797l9kga2z594","22","[""Black or African-American""]","No","Female","652318.2000000179","null","","<p></p>","null","rating","cdt","attraction_1","2","televisions","null","null","null","null","null","null","2","","","","","","","","","",""
"","","","","","rating_trial","survey-html-form","78","479562","0.0-3.0-1.37","193","1","2025-04-14 14:45:19","bb671e3ae32f654b8954ea4c4635f915","","Mozilla/5.0 (Windows NT 10.0; Win64; x64) AppleWebKit/537.36 (KHTML, like Gecko) Chrome/130.0.0.0 Safari/537.36","WebKit","Chrome","130.0.0.0","Windows","10.0","https://hz8g1ckzuq.cognition.run/","en,en-US;q=0.9","88797l9kga2z594","22","[""Black or African-American""]","No","Female","652318.2000000179","8016","","","{""price_1"":""345"",""price_2"":""678"",""price_3"":""789""}","rating","cdt","attraction_1","2","televisions","null","null","null","null","null","null","2","50","60","45","60","50","60","Screen size","Average lifespan","",""
"","","","","","rating_trial_setup","html-keyboard-response","79","479865","0.0-3.0-0.38","193","1","2025-04-14 14:45:19","bb671e3ae32f654b8954ea4c4635f915","","Mozilla/5.0 (Windows NT 10.0; Win64; x64) AppleWebKit/537.36 (KHTML, like Gecko) Chrome/130.0.0.0 Safari/537.36","WebKit","Chrome","130.0.0.0","Windows","10.0","https://hz8g1ckzuq.cognition.run/","en,en-US;q=0.9","88797l9kga2z594","22","[""Black or African-American""]","No","Female","652318.2000000179","null","","<p></p>","null","rating","wwb","catch","null","washing machines","95","60","20","10","30","35","1","","","","","","","","","",""
"","","","","","rating_trial","survey-html-form","80","490738","0.0-3.0-1.38","193","1","2025-04-14 14:45:19","bb671e3ae32f654b8954ea4c4635f915","","Mozilla/5.0 (Windows NT 10.0; Win64; x64) AppleWebKit/537.36 (KHTML, like Gecko) Chrome/130.0.0.0 Safari/537.36","WebKit","Chrome","130.0.0.0","Windows","10.0","https://hz8g1ckzuq.cognition.run/","en,en-US;q=0.9","88797l9kga2z594","22","[""Black or African-American""]","No","Female","652318.2000000179","10870","","","{""price_1"":""567"",""price_2"":""678"",""price_3"":""765""}","rating","wwb","catch","null","washing machines","95","60","20","10","30","35","1","null","null","null","null","null","null","Average lifespan","Energy savings","",""
"","","","","","rating_trial_setup","html-keyboard-response","81","491040","0.0-3.0-0.39","193","1","2025-04-14 14:45:19","bb671e3ae32f654b8954ea4c4635f915","","Mozilla/5.0 (Windows NT 10.0; Win64; x64) AppleWebKit/537.36 (KHTML, like Gecko) Chrome/130.0.0.0 Safari/537.36","WebKit","Chrome","130.0.0.0","Windows","10.0","https://hz8g1ckzuq.cognition.run/","en,en-US;q=0.9","88797l9kga2z594","22","[""Black or African-American""]","No","Female","652318.2000000179","null","","<p></p>","null","rating","tcd","attraction_1","1","laptops","null","null","null","null","null","null","1","","","","","","","","","",""
"","","","","","rating_trial","survey-html-form","82","498867","0.0-3.0-1.39","193","1","2025-04-14 14:45:19","bb671e3ae32f654b8954ea4c4635f915","","Mozilla/5.0 (Windows NT 10.0; Win64; x64) AppleWebKit/537.36 (KHTML, like Gecko) Chrome/130.0.0.0 Safari/537.36","WebKit","Chrome","130.0.0.0","Windows","10.0","https://hz8g1ckzuq.cognition.run/","en,en-US;q=0.9","88797l9kga2z594","22","[""Black or African-American""]","No","Female","652318.2000000179","7823","","","{""price_1"":""345"",""price_2"":""567"",""price_3"":""678""}","rating","tcd","attraction_1","1","laptops","null","null","null","null","null","null","1","60","50","60","50","60","45","Processing speed","Memory (RAM)","",""
"","","","","","","instructions","83","508634","0.0-4.0","193","1","2025-04-14 14:45:19","bb671e3ae32f654b8954ea4c4635f915","","Mozilla/5.0 (Windows NT 10.0; Win64; x64) AppleWebKit/537.36 (KHTML, like Gecko) Chrome/130.0.0.0 Safari/537.36","WebKit","Chrome","130.0.0.0","Windows","10.0","https://hz8g1ckzuq.cognition.run/","en,en-US;q=0.9","88797l9kga2z594","22","[""Black or African-American""]","No","Female","652318.2000000179","9555","[{""page_index"":0,""viewing_time"":1107},{""page_index"":1,""viewing_time"":632},{""page_index"":2,""viewing_time"":520},{""page_index"":3,""viewing_time"":1056},{""page_index"":4,""viewing_time"":1577},{""page_index"":5,""viewing_time"":1263},{""page_index"":6,""viewing_time"":2344},{""page_index"":7,""viewing_time"":1056}]","","","","","","","","","","","","","","","","","","","","","","","",""
"","","","","","choice_trial_setup","html-keyboard-response","84","508940","0.0-5.0-0.0","193","1","2025-04-14 14:45:19","bb671e3ae32f654b8954ea4c4635f915","","Mozilla/5.0 (Windows NT 10.0; Win64; x64) AppleWebKit/537.36 (KHTML, like Gecko) Chrome/130.0.0.0 Safari/537.36","WebKit","Chrome","130.0.0.0","Windows","10.0","https://hz8g1ckzuq.cognition.run/","en,en-US;q=0.9","88797l9kga2z594","22","[""Black or African-American""]","No","Female","652318.2000000179","null","","<p></p>","null","choice","tcd","attraction_2","2","laptops","null","null","null","null","null","null","1","","","","","","","","","",""
"","","","","","choice_trial","survey-html-form","85","510978","0.0-5.0-1.0","193","1","2025-04-14 14:45:19","bb671e3ae32f654b8954ea4c4635f915","","Mozilla/5.0 (Windows NT 10.0; Win64; x64) AppleWebKit/537.36 (KHTML, like Gecko) Chrome/130.0.0.0 Safari/537.36","WebKit","Chrome","130.0.0.0","Windows","10.0","https://hz8g1ckzuq.cognition.run/","en,en-US;q=0.9","88797l9kga2z594","22","[""Black or African-American""]","No","Female","652318.2000000179","2033","","","{""product_choice"":""A""}","choice","tcd","attraction_2","2","laptops","null","null","null","null","null","null","1","50","60","40","60","50","60","Processing speed","Memory (RAM)","",""
"","","","","","choice_trial_setup","html-keyboard-response","86","511280","0.0-5.0-0.1","193","1","2025-04-14 14:45:19","bb671e3ae32f654b8954ea4c4635f915","","Mozilla/5.0 (Windows NT 10.0; Win64; x64) AppleWebKit/537.36 (KHTML, like Gecko) Chrome/130.0.0.0 Safari/537.36","WebKit","Chrome","130.0.0.0","Windows","10.0","https://hz8g1ckzuq.cognition.run/","en,en-US;q=0.9","88797l9kga2z594","22","[""Black or African-American""]","No","Female","652318.2000000179","null","","<p></p>","null","choice","wwb","catch","null","washing machines","50","55","20","50","50","45","1","","","","","","","","","",""
"","","","","","choice_trial","survey-html-form","87","512706","0.0-5.0-1.1","193","1","2025-04-14 14:45:19","bb671e3ae32f654b8954ea4c4635f915","","Mozilla/5.0 (Windows NT 10.0; Win64; x64) AppleWebKit/537.36 (KHTML, like Gecko) Chrome/130.0.0.0 Safari/537.36","WebKit","Chrome","130.0.0.0","Windows","10.0","https://hz8g1ckzuq.cognition.run/","en,en-US;q=0.9","88797l9kga2z594","22","[""Black or African-American""]","No","Female","652318.2000000179","1415","","","{""product_choice"":""B""}","choice","wwb","catch","null","washing machines","50","55","20","50","50","45","1","null","null","null","null","null","null","Average lifespan","Energy savings","",""
"","","","","","choice_trial_setup","html-keyboard-response","88","513009","0.0-5.0-0.2","193","1","2025-04-14 14:45:19","bb671e3ae32f654b8954ea4c4635f915","","Mozilla/5.0 (Windows NT 10.0; Win64; x64) AppleWebKit/537.36 (KHTML, like Gecko) Chrome/130.0.0.0 Safari/537.36","WebKit","Chrome","130.0.0.0","Windows","10.0","https://hz8g1ckzuq.cognition.run/","en,en-US;q=0.9","88797l9kga2z594","22","[""Black or African-American""]","No","Female","652318.2000000179","null","","<p></p>","null","choice","cdt","attraction_2","1","washing machines","null","null","null","null","null","null","1","","","","","","","","","",""
"","","","","","choice_trial","survey-html-form","89","514418","0.0-5.0-1.2","193","1","2025-04-14 14:45:19","bb671e3ae32f654b8954ea4c4635f915","","Mozilla/5.0 (Windows NT 10.0; Win64; x64) AppleWebKit/537.36 (KHTML, like Gecko) Chrome/130.0.0.0 Safari/537.36","WebKit","Chrome","130.0.0.0","Windows","10.0","https://hz8g1ckzuq.cognition.run/","en,en-US;q=0.9","88797l9kga2z594","22","[""Black or African-American""]","No","Female","652318.2000000179","1406","","","{""product_choice"":""A""}","choice","cdt","attraction_2","1","washing machines","null","null","null","null","null","null","1","60","50","60","50","60","40","Average lifespan","Energy savings","",""
"","","","","","choice_trial_setup","html-keyboard-response","90","514721","0.0-5.0-0.3","193","1","2025-04-14 14:45:19","bb671e3ae32f654b8954ea4c4635f915","","Mozilla/5.0 (Windows NT 10.0; Win64; x64) AppleWebKit/537.36 (KHTML, like Gecko) Chrome/130.0.0.0 Safari/537.36","WebKit","Chrome","130.0.0.0","Windows","10.0","https://hz8g1ckzuq.cognition.run/","en,en-US;q=0.9","88797l9kga2z594","22","[""Black or African-American""]","No","Female","652318.2000000179","null","","<p></p>","null","choice","tdc","repulsion_2","1","washing machines","null","null","null","null","null","null","2","","","","","","","","","",""
"","","","","","choice_trial","survey-html-form","91","516930","0.0-5.0-1.3","193","1","2025-04-14 14:45:19","bb671e3ae32f654b8954ea4c4635f915","","Mozilla/5.0 (Windows NT 10.0; Win64; x64) AppleWebKit/537.36 (KHTML, like Gecko) Chrome/130.0.0.0 Safari/537.36","WebKit","Chrome","130.0.0.0","Windows","10.0","https://hz8g1ckzuq.cognition.run/","en,en-US;q=0.9","88797l9kga2z594","22","[""Black or African-American""]","No","Female","652318.2000000179","2206","","","{""product_choice"":""B""}","choice","tdc","repulsion_2","1","washing machines","null","null","null","null","null","null","2","100","90","100","30","40","20","Average lifespan","Energy savings","",""
"","","","","","choice_trial_setup","html-keyboard-response","92","517232","0.0-5.0-0.4","193","1","2025-04-14 14:45:19","bb671e3ae32f654b8954ea4c4635f915","","Mozilla/5.0 (Windows NT 10.0; Win64; x64) AppleWebKit/537.36 (KHTML, like Gecko) Chrome/130.0.0.0 Safari/537.36","WebKit","Chrome","130.0.0.0","Windows","10.0","https://hz8g1ckzuq.cognition.run/","en,en-US;q=0.9","88797l9kga2z594","22","[""Black or African-American""]","No","Female","652318.2000000179","null","","<p></p>","null","choice","dtc","repulsion_1","2","televisions","null","null","null","null","null","null","1","","","","","","","","","",""
"","","","","","choice_trial","survey-html-form","93","518570","0.0-5.0-1.4","193","1","2025-04-14 14:45:19","bb671e3ae32f654b8954ea4c4635f915","","Mozilla/5.0 (Windows NT 10.0; Win64; x64) AppleWebKit/537.36 (KHTML, like Gecko) Chrome/130.0.0.0 Safari/537.36","WebKit","Chrome","130.0.0.0","Windows","10.0","https://hz8g1ckzuq.cognition.run/","en,en-US;q=0.9","88797l9kga2z594","22","[""Black or African-American""]","No","Female","652318.2000000179","1334","","","{""product_choice"":""A""}","choice","dtc","repulsion_1","2","televisions","null","null","null","null","null","null","1","30","40","25","100","90","100","Screen size","Average lifespan","",""
"","","","","","choice_trial_setup","html-keyboard-response","94","518874","0.0-5.0-0.5","193","1","2025-04-14 14:45:19","bb671e3ae32f654b8954ea4c4635f915","","Mozilla/5.0 (Windows NT 10.0; Win64; x64) AppleWebKit/537.36 (KHTML, like Gecko) Chrome/130.0.0.0 Safari/537.36","WebKit","Chrome","130.0.0.0","Windows","10.0","https://hz8g1ckzuq.cognition.run/","en,en-US;q=0.9","88797l9kga2z594","22","[""Black or African-American""]","No","Female","652318.2000000179","null","","<p></p>","null","choice","dtc","attraction_2","1","laptops","null","null","null","null","null","null","1","","","","","","","","","",""
"","","","","","choice_trial","survey-html-form","95","520386","0.0-5.0-1.5","193","1","2025-04-14 14:45:19","bb671e3ae32f654b8954ea4c4635f915","","Mozilla/5.0 (Windows NT 10.0; Win64; x64) AppleWebKit/537.36 (KHTML, like Gecko) Chrome/130.0.0.0 Safari/537.36","WebKit","Chrome","130.0.0.0","Windows","10.0","https://hz8g1ckzuq.cognition.run/","en,en-US;q=0.9","88797l9kga2z594","22","[""Black or African-American""]","No","Female","652318.2000000179","1509","","","{""product_choice"":""B""}","choice","dtc","attraction_2","1","laptops","null","null","null","null","null","null","1","60","50","60","50","60","40","Processing speed","Memory (RAM)","",""
"","","","","","choice_trial_setup","html-keyboard-response","96","520689","0.0-5.0-0.6","193","1","2025-04-14 14:45:19","bb671e3ae32f654b8954ea4c4635f915","","Mozilla/5.0 (Windows NT 10.0; Win64; x64) AppleWebKit/537.36 (KHTML, like Gecko) Chrome/130.0.0.0 Safari/537.36","WebKit","Chrome","130.0.0.0","Windows","10.0","https://hz8g1ckzuq.cognition.run/","en,en-US;q=0.9","88797l9kga2z594","22","[""Black or African-American""]","No","Female","652318.2000000179","null","","<p></p>","null","choice","tcd","repulsion_2","1","laptops","null","null","null","null","null","null","2","","","","","","","","","",""
"","","","","","choice_trial","survey-html-form","97","522362","0.0-5.0-1.6","193","1","2025-04-14 14:45:19","bb671e3ae32f654b8954ea4c4635f915","","Mozilla/5.0 (Windows NT 10.0; Win64; x64) AppleWebKit/537.36 (KHTML, like Gecko) Chrome/130.0.0.0 Safari/537.36","WebKit","Chrome","130.0.0.0","Windows","10.0","https://hz8g1ckzuq.cognition.run/","en,en-US;q=0.9","88797l9kga2z594","22","[""Black or African-American""]","No","Female","652318.2000000179","1670","","","{""product_choice"":""C""}","choice","tcd","repulsion_2","1","laptops","null","null","null","null","null","null","2","100","90","100","30","40","20","Processing speed","Memory (RAM)","",""
"","","","","","choice_trial_setup","html-keyboard-response","98","522665","0.0-5.0-0.7","193","1","2025-04-14 14:45:19","bb671e3ae32f654b8954ea4c4635f915","","Mozilla/5.0 (Windows NT 10.0; Win64; x64) AppleWebKit/537.36 (KHTML, like Gecko) Chrome/130.0.0.0 Safari/537.36","WebKit","Chrome","130.0.0.0","Windows","10.0","https://hz8g1ckzuq.cognition.run/","en,en-US;q=0.9","88797l9kga2z594","22","[""Black or African-American""]","No","Female","652318.2000000179","null","","<p></p>","null","choice","dct","attraction_2","2","televisions","null","null","null","null","null","null","2","","","","","","","","","",""
"","","","","","choice_trial","survey-html-form","99","527002","0.0-5.0-1.7","193","1","2025-04-14 14:45:19","bb671e3ae32f654b8954ea4c4635f915","","Mozilla/5.0 (Windows NT 10.0; Win64; x64) AppleWebKit/537.36 (KHTML, like Gecko) Chrome/130.0.0.0 Safari/537.36","WebKit","Chrome","130.0.0.0","Windows","10.0","https://hz8g1ckzuq.cognition.run/","en,en-US;q=0.9","88797l9kga2z594","22","[""Black or African-American""]","No","Female","652318.2000000179","4328","","","{""product_choice"":""B""}","choice","dct","attraction_2","2","televisions","null","null","null","null","null","null","2","50","60","40","60","50","60","Screen size","Average lifespan","",""
"","","","","","choice_trial_setup","html-keyboard-response","100","527305","0.0-5.0-0.8","193","1","2025-04-14 14:45:19","bb671e3ae32f654b8954ea4c4635f915","","Mozilla/5.0 (Windows NT 10.0; Win64; x64) AppleWebKit/537.36 (KHTML, like Gecko) Chrome/130.0.0.0 Safari/537.36","WebKit","Chrome","130.0.0.0","Windows","10.0","https://hz8g1ckzuq.cognition.run/","en,en-US;q=0.9","88797l9kga2z594","22","[""Black or African-American""]","No","Female","652318.2000000179","null","","<p></p>","null","choice","cdt","attraction_1","2","microwave ovens","null","null","null","null","null","null","1","","","","","","","","","",""
"","","","","","choice_trial","survey-html-form","101","529675","0.0-5.0-1.8","193","1","2025-04-14 14:45:19","bb671e3ae32f654b8954ea4c4635f915","","Mozilla/5.0 (Windows NT 10.0; Win64; x64) AppleWebKit/537.36 (KHTML, like Gecko) Chrome/130.0.0.0 Safari/537.36","WebKit","Chrome","130.0.0.0","Windows","10.0","https://hz8g1ckzuq.cognition.run/","en,en-US;q=0.9","88797l9kga2z594","22","[""Black or African-American""]","No","Female","652318.2000000179","2367","","","{""product_choice"":""B""}","choice","cdt","attraction_1","2","microwave ovens","null","null","null","null","null","null","1","50","60","45","60","50","60","Warranty","Cooking power","",""
"","","","","","choice_trial_setup","html-keyboard-response","102","529978","0.0-5.0-0.9","193","1","2025-04-14 14:45:19","bb671e3ae32f654b8954ea4c4635f915","","Mozilla/5.0 (Windows NT 10.0; Win64; x64) AppleWebKit/537.36 (KHTML, like Gecko) Chrome/130.0.0.0 Safari/537.36","WebKit","Chrome","130.0.0.0","Windows","10.0","https://hz8g1ckzuq.cognition.run/","en,en-US;q=0.9","88797l9kga2z594","22","[""Black or African-American""]","No","Female","652318.2000000179","null","","<p></p>","null","choice","dtc","repulsion_1","2","microwave ovens","null","null","null","null","null","null","2","","","","","","","","","",""
"","","","","","choice_trial","survey-html-form","103","532227","0.0-5.0-1.9","193","1","2025-04-14 14:45:19","bb671e3ae32f654b8954ea4c4635f915","","Mozilla/5.0 (Windows NT 10.0; Win64; x64) AppleWebKit/537.36 (KHTML, like Gecko) Chrome/130.0.0.0 Safari/537.36","WebKit","Chrome","130.0.0.0","Windows","10.0","https://hz8g1ckzuq.cognition.run/","en,en-US;q=0.9","88797l9kga2z594","22","[""Black or African-American""]","No","Female","652318.2000000179","2245","","","{""product_choice"":""C""}","choice","dtc","repulsion_1","2","microwave ovens","null","null","null","null","null","null","2","30","40","25","100","90","100","Warranty","Cooking power","",""
"","","","","","choice_trial_setup","html-keyboard-response","104","532530","0.0-5.0-0.10","193","1","2025-04-14 14:45:19","bb671e3ae32f654b8954ea4c4635f915","","Mozilla/5.0 (Windows NT 10.0; Win64; x64) AppleWebKit/537.36 (KHTML, like Gecko) Chrome/130.0.0.0 Safari/537.36","WebKit","Chrome","130.0.0.0","Windows","10.0","https://hz8g1ckzuq.cognition.run/","en,en-US;q=0.9","88797l9kga2z594","22","[""Black or African-American""]","No","Female","652318.2000000179","null","","<p></p>","null","choice","dtc","repulsion_1","2","washing machines","null","null","null","null","null","null","2","","","","","","","","","",""
"","","","","","choice_trial","survey-html-form","105","534234","0.0-5.0-1.10","193","1","2025-04-14 14:45:19","bb671e3ae32f654b8954ea4c4635f915","","Mozilla/5.0 (Windows NT 10.0; Win64; x64) AppleWebKit/537.36 (KHTML, like Gecko) Chrome/130.0.0.0 Safari/537.36","WebKit","Chrome","130.0.0.0","Windows","10.0","https://hz8g1ckzuq.cognition.run/","en,en-US;q=0.9","88797l9kga2z594","22","[""Black or African-American""]","No","Female","652318.2000000179","1700","","","{""product_choice"":""C""}","choice","dtc","repulsion_1","2","washing machines","null","null","null","null","null","null","2","30","40","25","100","90","100","Average lifespan","Energy savings","",""
"","","","","","choice_trial_setup","html-keyboard-response","106","534537","0.0-5.0-0.11","193","1","2025-04-14 14:45:19","bb671e3ae32f654b8954ea4c4635f915","","Mozilla/5.0 (Windows NT 10.0; Win64; x64) AppleWebKit/537.36 (KHTML, like Gecko) Chrome/130.0.0.0 Safari/537.36","WebKit","Chrome","130.0.0.0","Windows","10.0","https://hz8g1ckzuq.cognition.run/","en,en-US;q=0.9","88797l9kga2z594","22","[""Black or African-American""]","No","Female","652318.2000000179","null","","<p></p>","null","choice","tdc","attraction_1","1","washing machines","null","null","null","null","null","null","1","","","","","","","","","",""
"","","","","","choice_trial","survey-html-form","107","536578","0.0-5.0-1.11","193","1","2025-04-14 14:45:19","bb671e3ae32f654b8954ea4c4635f915","","Mozilla/5.0 (Windows NT 10.0; Win64; x64) AppleWebKit/537.36 (KHTML, like Gecko) Chrome/130.0.0.0 Safari/537.36","WebKit","Chrome","130.0.0.0","Windows","10.0","https://hz8g1ckzuq.cognition.run/","en,en-US;q=0.9","88797l9kga2z594","22","[""Black or African-American""]","No","Female","652318.2000000179","2032","","","{""product_choice"":""C""}","choice","tdc","attraction_1","1","washing machines","null","null","null","null","null","null","1","60","50","60","50","60","45","Average lifespan","Energy savings","",""
"","","","","","choice_trial_setup","html-keyboard-response","108","536882","0.0-5.0-0.12","193","1","2025-04-14 14:45:19","bb671e3ae32f654b8954ea4c4635f915","","Mozilla/5.0 (Windows NT 10.0; Win64; x64) AppleWebKit/537.36 (KHTML, like Gecko) Chrome/130.0.0.0 Safari/537.36","WebKit","Chrome","130.0.0.0","Windows","10.0","https://hz8g1ckzuq.cognition.run/","en,en-US;q=0.9","88797l9kga2z594","22","[""Black or African-American""]","No","Female","652318.2000000179","null","","<p></p>","null","choice","tdc","repulsion_1","1","microwave ovens","null","null","null","null","null","null","2","","","","","","","","","",""
"","","","","","choice_trial","survey-html-form","109","540322","0.0-5.0-1.12","193","1","2025-04-14 14:45:19","bb671e3ae32f654b8954ea4c4635f915","","Mozilla/5.0 (Windows NT 10.0; Win64; x64) AppleWebKit/537.36 (KHTML, like Gecko) Chrome/130.0.0.0 Safari/537.36","WebKit","Chrome","130.0.0.0","Windows","10.0","https://hz8g1ckzuq.cognition.run/","en,en-US;q=0.9","88797l9kga2z594","22","[""Black or African-American""]","No","Female","652318.2000000179","3437","","","{""product_choice"":""C""}","choice","tdc","repulsion_1","1","microwave ovens","null","null","null","null","null","null","2","100","90","100","30","40","25","Warranty","Cooking power","",""
"","","","","","choice_trial_setup","html-keyboard-response","110","540625","0.0-5.0-0.13","193","1","2025-04-14 14:45:19","bb671e3ae32f654b8954ea4c4635f915","","Mozilla/5.0 (Windows NT 10.0; Win64; x64) AppleWebKit/537.36 (KHTML, like Gecko) Chrome/130.0.0.0 Safari/537.36","WebKit","Chrome","130.0.0.0","Windows","10.0","https://hz8g1ckzuq.cognition.run/","en,en-US;q=0.9","88797l9kga2z594","22","[""Black or African-American""]","No","Female","652318.2000000179","null","","<p></p>","null","choice","tdc","repulsion_1","1","laptops","null","null","null","null","null","null","2","","","","","","","","","",""
"","","","","","choice_trial","survey-html-form","111","542522","0.0-5.0-1.13","193","1","2025-04-14 14:45:19","bb671e3ae32f654b8954ea4c4635f915","","Mozilla/5.0 (Windows NT 10.0; Win64; x64) AppleWebKit/537.36 (KHTML, like Gecko) Chrome/130.0.0.0 Safari/537.36","WebKit","Chrome","130.0.0.0","Windows","10.0","https://hz8g1ckzuq.cognition.run/","en,en-US;q=0.9","88797l9kga2z594","22","[""Black or African-American""]","No","Female","652318.2000000179","1894","","","{""product_choice"":""B""}","choice","tdc","repulsion_1","1","laptops","null","null","null","null","null","null","2","100","90","100","30","40","25","Processing speed","Memory (RAM)","",""
"","","","","","choice_trial_setup","html-keyboard-response","112","542825","0.0-5.0-0.14","193","1","2025-04-14 14:45:19","bb671e3ae32f654b8954ea4c4635f915","","Mozilla/5.0 (Windows NT 10.0; Win64; x64) AppleWebKit/537.36 (KHTML, like Gecko) Chrome/130.0.0.0 Safari/537.36","WebKit","Chrome","130.0.0.0","Windows","10.0","https://hz8g1ckzuq.cognition.run/","en,en-US;q=0.9","88797l9kga2z594","22","[""Black or African-American""]","No","Female","652318.2000000179","null","","<p></p>","null","choice","tdc","repulsion_1","2","laptops","null","null","null","null","null","null","1","","","","","","","","","",""
"","","","","","choice_trial","survey-html-form","113","544762","0.0-5.0-1.14","193","1","2025-04-14 14:45:19","bb671e3ae32f654b8954ea4c4635f915","","Mozilla/5.0 (Windows NT 10.0; Win64; x64) AppleWebKit/537.36 (KHTML, like Gecko) Chrome/130.0.0.0 Safari/537.36","WebKit","Chrome","130.0.0.0","Windows","10.0","https://hz8g1ckzuq.cognition.run/","en,en-US;q=0.9","88797l9kga2z594","22","[""Black or African-American""]","No","Female","652318.2000000179","1934","","","{""product_choice"":""A""}","choice","tdc","repulsion_1","2","laptops","null","null","null","null","null","null","1","30","40","25","100","90","100","Processing speed","Memory (RAM)","",""
"","","","","","choice_trial_setup","html-keyboard-response","114","545065","0.0-5.0-0.15","193","1","2025-04-14 14:45:19","bb671e3ae32f654b8954ea4c4635f915","","Mozilla/5.0 (Windows NT 10.0; Win64; x64) AppleWebKit/537.36 (KHTML, like Gecko) Chrome/130.0.0.0 Safari/537.36","WebKit","Chrome","130.0.0.0","Windows","10.0","https://hz8g1ckzuq.cognition.run/","en,en-US;q=0.9","88797l9kga2z594","22","[""Black or African-American""]","No","Female","652318.2000000179","null","","<p></p>","null","choice","wbw","catch","null","microwave ovens","80","60","45","20","45","20","2","","","","","","","","","",""
"","","","","","choice_trial","survey-html-form","115","547074","0.0-5.0-1.15","193","1","2025-04-14 14:45:19","bb671e3ae32f654b8954ea4c4635f915","","Mozilla/5.0 (Windows NT 10.0; Win64; x64) AppleWebKit/537.36 (KHTML, like Gecko) Chrome/130.0.0.0 Safari/537.36","WebKit","Chrome","130.0.0.0","Windows","10.0","https://hz8g1ckzuq.cognition.run/","en,en-US;q=0.9","88797l9kga2z594","22","[""Black or African-American""]","No","Female","652318.2000000179","2005","","","{""product_choice"":""B""}","choice","wbw","catch","null","microwave ovens","80","60","45","20","45","20","2","null","null","null","null","null","null","Warranty","Cooking power","",""
"","","","","","choice_trial_setup","html-keyboard-response","116","547377","0.0-5.0-0.16","193","1","2025-04-14 14:45:19","bb671e3ae32f654b8954ea4c4635f915","","Mozilla/5.0 (Windows NT 10.0; Win64; x64) AppleWebKit/537.36 (KHTML, like Gecko) Chrome/130.0.0.0 Safari/537.36","WebKit","Chrome","130.0.0.0","Windows","10.0","https://hz8g1ckzuq.cognition.run/","en,en-US;q=0.9","88797l9kga2z594","22","[""Black or African-American""]","No","Female","652318.2000000179","null","","<p></p>","null","choice","cdt","attraction_2","2","microwave ovens","null","null","null","null","null","null","2","","","","","","","","","",""
"","","","","","choice_trial","survey-html-form","117","549770","0.0-5.0-1.16","193","1","2025-04-14 14:45:19","bb671e3ae32f654b8954ea4c4635f915","","Mozilla/5.0 (Windows NT 10.0; Win64; x64) AppleWebKit/537.36 (KHTML, like Gecko) Chrome/130.0.0.0 Safari/537.36","WebKit","Chrome","130.0.0.0","Windows","10.0","https://hz8g1ckzuq.cognition.run/","en,en-US;q=0.9","88797l9kga2z594","22","[""Black or African-American""]","No","Female","652318.2000000179","2383","","","{""product_choice"":""A""}","choice","cdt","attraction_2","2","microwave ovens","null","null","null","null","null","null","2","50","60","40","60","50","60","Warranty","Cooking power","",""
"","","","","","choice_trial_setup","html-keyboard-response","118","550075","0.0-5.0-0.17","193","1","2025-04-14 14:45:19","bb671e3ae32f654b8954ea4c4635f915","","Mozilla/5.0 (Windows NT 10.0; Win64; x64) AppleWebKit/537.36 (KHTML, like Gecko) Chrome/130.0.0.0 Safari/537.36","WebKit","Chrome","130.0.0.0","Windows","10.0","https://hz8g1ckzuq.cognition.run/","en,en-US;q=0.9","88797l9kga2z594","22","[""Black or African-American""]","No","Female","652318.2000000179","null","","<p></p>","null","choice","bww","catch","null","washing machines","60","55","50","35","30","25","1","","","","","","","","","",""
"","","","","","choice_trial","survey-html-form","119","551858","0.0-5.0-1.17","193","1","2025-04-14 14:45:19","bb671e3ae32f654b8954ea4c4635f915","","Mozilla/5.0 (Windows NT 10.0; Win64; x64) AppleWebKit/537.36 (KHTML, like Gecko) Chrome/130.0.0.0 Safari/537.36","WebKit","Chrome","130.0.0.0","Windows","10.0","https://hz8g1ckzuq.cognition.run/","en,en-US;q=0.9","88797l9kga2z594","22","[""Black or African-American""]","No","Female","652318.2000000179","1779","","","{""product_choice"":""A""}","choice","bww","catch","null","washing machines","60","55","50","35","30","25","1","null","null","null","null","null","null","Average lifespan","Energy savings","",""
"","","","","","choice_trial_setup","html-keyboard-response","120","552164","0.0-5.0-0.18","193","1","2025-04-14 14:45:19","bb671e3ae32f654b8954ea4c4635f915","","Mozilla/5.0 (Windows NT 10.0; Win64; x64) AppleWebKit/537.36 (KHTML, like Gecko) Chrome/130.0.0.0 Safari/537.36","WebKit","Chrome","130.0.0.0","Windows","10.0","https://hz8g1ckzuq.cognition.run/","en,en-US;q=0.9","88797l9kga2z594","22","[""Black or African-American""]","No","Female","652318.2000000179","null","","<p></p>","null","choice","bww","catch","null","laptops","70","50","10","5","20","30","1","","","","","","","","","",""
"","","","","","choice_trial","survey-html-form","121","553546","0.0-5.0-1.18","193","1","2025-04-14 14:45:19","bb671e3ae32f654b8954ea4c4635f915","","Mozilla/5.0 (Windows NT 10.0; Win64; x64) AppleWebKit/537.36 (KHTML, like Gecko) Chrome/130.0.0.0 Safari/537.36","WebKit","Chrome","130.0.0.0","Windows","10.0","https://hz8g1ckzuq.cognition.run/","en,en-US;q=0.9","88797l9kga2z594","22","[""Black or African-American""]","No","Female","652318.2000000179","1371","","","{""product_choice"":""A""}","choice","bww","catch","null","laptops","70","50","10","5","20","30","1","null","null","null","null","null","null","Processing speed","Memory (RAM)","",""
"","","","","","choice_trial_setup","html-keyboard-response","122","553850","0.0-5.0-0.19","193","1","2025-04-14 14:45:19","bb671e3ae32f654b8954ea4c4635f915","","Mozilla/5.0 (Windows NT 10.0; Win64; x64) AppleWebKit/537.36 (KHTML, like Gecko) Chrome/130.0.0.0 Safari/537.36","WebKit","Chrome","130.0.0.0","Windows","10.0","https://hz8g1ckzuq.cognition.run/","en,en-US;q=0.9","88797l9kga2z594","22","[""Black or African-American""]","No","Female","652318.2000000179","null","","<p></p>","null","choice","ctd","repulsion_2","2","washing machines","null","null","null","null","null","null","2","","","","","","","","","",""
"","","","","","choice_trial","survey-html-form","123","555842","0.0-5.0-1.19","193","1","2025-04-14 14:45:19","bb671e3ae32f654b8954ea4c4635f915","","Mozilla/5.0 (Windows NT 10.0; Win64; x64) AppleWebKit/537.36 (KHTML, like Gecko) Chrome/130.0.0.0 Safari/537.36","WebKit","Chrome","130.0.0.0","Windows","10.0","https://hz8g1ckzuq.cognition.run/","en,en-US;q=0.9","88797l9kga2z594","22","[""Black or African-American""]","No","Female","652318.2000000179","1988","","","{""product_choice"":""A""}","choice","ctd","repulsion_2","2","washing machines","null","null","null","null","null","null","2","30","40","20","100","90","100","Average lifespan","Energy savings","",""
"","","","","","choice_trial_setup","html-keyboard-response","124","556145","0.0-5.0-0.20","193","1","2025-04-14 14:45:19","bb671e3ae32f654b8954ea4c4635f915","","Mozilla/5.0 (Windows NT 10.0; Win64; x64) AppleWebKit/537.36 (KHTML, like Gecko) Chrome/130.0.0.0 Safari/537.36","WebKit","Chrome","130.0.0.0","Windows","10.0","https://hz8g1ckzuq.cognition.run/","en,en-US;q=0.9","88797l9kga2z594","22","[""Black or African-American""]","No","Female","652318.2000000179","null","","<p></p>","null","choice","tcd","repulsion_1","1","televisions","null","null","null","null","null","null","1","","","","","","","","","",""
"","","","","","choice_trial","survey-html-form","125","558530","0.0-5.0-1.20","193","1","2025-04-14 14:45:19","bb671e3ae32f654b8954ea4c4635f915","","Mozilla/5.0 (Windows NT 10.0; Win64; x64) AppleWebKit/537.36 (KHTML, like Gecko) Chrome/130.0.0.0 Safari/537.36","WebKit","Chrome","130.0.0.0","Windows","10.0","https://hz8g1ckzuq.cognition.run/","en,en-US;q=0.9","88797l9kga2z594","22","[""Black or African-American""]","No","Female","652318.2000000179","2374","","","{""product_choice"":""B""}","choice","tcd","repulsion_1","1","televisions","null","null","null","null","null","null","1","100","90","100","30","40","25","Screen size","Average lifespan","",""
"","","","","","choice_trial_setup","html-keyboard-response","126","558835","0.0-5.0-0.21","193","1","2025-04-14 14:45:19","bb671e3ae32f654b8954ea4c4635f915","","Mozilla/5.0 (Windows NT 10.0; Win64; x64) AppleWebKit/537.36 (KHTML, like Gecko) Chrome/130.0.0.0 Safari/537.36","WebKit","Chrome","130.0.0.0","Windows","10.0","https://hz8g1ckzuq.cognition.run/","en,en-US;q=0.9","88797l9kga2z594","22","[""Black or African-American""]","No","Female","652318.2000000179","null","","<p></p>","null","choice","ctd","repulsion_2","2","laptops","null","null","null","null","null","null","2","","","","","","","","","",""
"","","","","","choice_trial","survey-html-form","127","561074","0.0-5.0-1.21","193","1","2025-04-14 14:45:19","bb671e3ae32f654b8954ea4c4635f915","","Mozilla/5.0 (Windows NT 10.0; Win64; x64) AppleWebKit/537.36 (KHTML, like Gecko) Chrome/130.0.0.0 Safari/537.36","WebKit","Chrome","130.0.0.0","Windows","10.0","https://hz8g1ckzuq.cognition.run/","en,en-US;q=0.9","88797l9kga2z594","22","[""Black or African-American""]","No","Female","652318.2000000179","2235","","","{""product_choice"":""A""}","choice","ctd","repulsion_2","2","laptops","null","null","null","null","null","null","2","30","40","20","100","90","100","Processing speed","Memory (RAM)","",""
"","","","","","choice_trial_setup","html-keyboard-response","128","561377","0.0-5.0-0.22","193","1","2025-04-14 14:45:19","bb671e3ae32f654b8954ea4c4635f915","","Mozilla/5.0 (Windows NT 10.0; Win64; x64) AppleWebKit/537.36 (KHTML, like Gecko) Chrome/130.0.0.0 Safari/537.36","WebKit","Chrome","130.0.0.0","Windows","10.0","https://hz8g1ckzuq.cognition.run/","en,en-US;q=0.9","88797l9kga2z594","22","[""Black or African-American""]","No","Female","652318.2000000179","null","","<p></p>","null","choice","dct","attraction_1","1","microwave ovens","null","null","null","null","null","null","2","","","","","","","","","",""
"","","","","","choice_trial","survey-html-form","129","563250","0.0-5.0-1.22","193","1","2025-04-14 14:45:19","bb671e3ae32f654b8954ea4c4635f915","","Mozilla/5.0 (Windows NT 10.0; Win64; x64) AppleWebKit/537.36 (KHTML, like Gecko) Chrome/130.0.0.0 Safari/537.36","WebKit","Chrome","130.0.0.0","Windows","10.0","https://hz8g1ckzuq.cognition.run/","en,en-US;q=0.9","88797l9kga2z594","22","[""Black or African-American""]","No","Female","652318.2000000179","1863","","","{""product_choice"":""A""}","choice","dct","attraction_1","1","microwave ovens","null","null","null","null","null","null","2","60","50","60","50","60","45","Warranty","Cooking power","",""
"","","","","","choice_trial_setup","html-keyboard-response","130","563553","0.0-5.0-0.23","193","1","2025-04-14 14:45:19","bb671e3ae32f654b8954ea4c4635f915","","Mozilla/5.0 (Windows NT 10.0; Win64; x64) AppleWebKit/537.36 (KHTML, like Gecko) Chrome/130.0.0.0 Safari/537.36","WebKit","Chrome","130.0.0.0","Windows","10.0","https://hz8g1ckzuq.cognition.run/","en,en-US;q=0.9","88797l9kga2z594","22","[""Black or African-American""]","No","Female","652318.2000000179","null","","<p></p>","null","choice","tdc","repulsion_1","1","washing machines","null","null","null","null","null","null","2","","","","","","","","","",""
"","","","","","choice_trial","survey-html-form","131","565242","0.0-5.0-1.23","193","1","2025-04-14 14:45:19","bb671e3ae32f654b8954ea4c4635f915","","Mozilla/5.0 (Windows NT 10.0; Win64; x64) AppleWebKit/537.36 (KHTML, like Gecko) Chrome/130.0.0.0 Safari/537.36","WebKit","Chrome","130.0.0.0","Windows","10.0","https://hz8g1ckzuq.cognition.run/","en,en-US;q=0.9","88797l9kga2z594","22","[""Black or African-American""]","No","Female","652318.2000000179","1678","","","{""product_choice"":""A""}","choice","tdc","repulsion_1","1","washing machines","null","null","null","null","null","null","2","100","90","100","30","40","25","Average lifespan","Energy savings","",""
"","","","","","choice_trial_setup","html-keyboard-response","132","565546","0.0-5.0-0.24","193","1","2025-04-14 14:45:19","bb671e3ae32f654b8954ea4c4635f915","","Mozilla/5.0 (Windows NT 10.0; Win64; x64) AppleWebKit/537.36 (KHTML, like Gecko) Chrome/130.0.0.0 Safari/537.36","WebKit","Chrome","130.0.0.0","Windows","10.0","https://hz8g1ckzuq.cognition.run/","en,en-US;q=0.9","88797l9kga2z594","22","[""Black or African-American""]","No","Female","652318.2000000179","null","","<p></p>","null","choice","wbw","catch","null","laptops","80","90","15","5","45","35","2","","","","","","","","","",""
"","","","","","choice_trial","survey-html-form","133","567338","0.0-5.0-1.24","193","1","2025-04-14 14:45:19","bb671e3ae32f654b8954ea4c4635f915","","Mozilla/5.0 (Windows NT 10.0; Win64; x64) AppleWebKit/537.36 (KHTML, like Gecko) Chrome/130.0.0.0 Safari/537.36","WebKit","Chrome","130.0.0.0","Windows","10.0","https://hz8g1ckzuq.cognition.run/","en,en-US;q=0.9","88797l9kga2z594","22","[""Black or African-American""]","No","Female","652318.2000000179","1789","","","{""product_choice"":""B""}","choice","wbw","catch","null","laptops","80","90","15","5","45","35","2","null","null","null","null","null","null","Processing speed","Memory (RAM)","",""
"","","","","","choice_trial_setup","html-keyboard-response","134","567642","0.0-5.0-0.25","193","1","2025-04-14 14:45:19","bb671e3ae32f654b8954ea4c4635f915","","Mozilla/5.0 (Windows NT 10.0; Win64; x64) AppleWebKit/537.36 (KHTML, like Gecko) Chrome/130.0.0.0 Safari/537.36","WebKit","Chrome","130.0.0.0","Windows","10.0","https://hz8g1ckzuq.cognition.run/","en,en-US;q=0.9","88797l9kga2z594","22","[""Black or African-American""]","No","Female","652318.2000000179","null","","<p></p>","null","choice","dtc","repulsion_2","2","televisions","null","null","null","null","null","null","2","","","","","","","","","",""
"","","","","","choice_trial","survey-html-form","135","569370","0.0-5.0-1.25","193","1","2025-04-14 14:45:19","bb671e3ae32f654b8954ea4c4635f915","","Mozilla/5.0 (Windows NT 10.0; Win64; x64) AppleWebKit/537.36 (KHTML, like Gecko) Chrome/130.0.0.0 Safari/537.36","WebKit","Chrome","130.0.0.0","Windows","10.0","https://hz8g1ckzuq.cognition.run/","en,en-US;q=0.9","88797l9kga2z594","22","[""Black or African-American""]","No","Female","652318.2000000179","1724","","","{""product_choice"":""C""}","choice","dtc","repulsion_2","2","televisions","null","null","null","null","null","null","2","30","40","20","100","90","100","Screen size","Average lifespan","",""
"","","","","","choice_trial_setup","html-keyboard-response","136","569675","0.0-5.0-0.26","193","1","2025-04-14 14:45:19","bb671e3ae32f654b8954ea4c4635f915","","Mozilla/5.0 (Windows NT 10.0; Win64; x64) AppleWebKit/537.36 (KHTML, like Gecko) Chrome/130.0.0.0 Safari/537.36","WebKit","Chrome","130.0.0.0","Windows","10.0","https://hz8g1ckzuq.cognition.run/","en,en-US;q=0.9","88797l9kga2z594","22","[""Black or African-American""]","No","Female","652318.2000000179","null","","<p></p>","null","choice","dct","attraction_1","1","televisions","null","null","null","null","null","null","1","","","","","","","","","",""
"","","","","","choice_trial","survey-html-form","137","571610","0.0-5.0-1.26","193","1","2025-04-14 14:45:19","bb671e3ae32f654b8954ea4c4635f915","","Mozilla/5.0 (Windows NT 10.0; Win64; x64) AppleWebKit/537.36 (KHTML, like Gecko) Chrome/130.0.0.0 Safari/537.36","WebKit","Chrome","130.0.0.0","Windows","10.0","https://hz8g1ckzuq.cognition.run/","en,en-US;q=0.9","88797l9kga2z594","22","[""Black or African-American""]","No","Female","652318.2000000179","1924","","","{""product_choice"":""B""}","choice","dct","attraction_1","1","televisions","null","null","null","null","null","null","1","60","50","60","50","60","45","Screen size","Average lifespan","",""
"","","","","","choice_trial_setup","html-keyboard-response","138","571915","0.0-5.0-0.27","193","1","2025-04-14 14:45:19","bb671e3ae32f654b8954ea4c4635f915","","Mozilla/5.0 (Windows NT 10.0; Win64; x64) AppleWebKit/537.36 (KHTML, like Gecko) Chrome/130.0.0.0 Safari/537.36","WebKit","Chrome","130.0.0.0","Windows","10.0","https://hz8g1ckzuq.cognition.run/","en,en-US;q=0.9","88797l9kga2z594","22","[""Black or African-American""]","No","Female","652318.2000000179","null","","<p></p>","null","choice","wbw","catch","null","televisions","70","65","50","40","10","25","2","","","","","","","","","",""
"","","","","","choice_trial","survey-html-form","139","573866","0.0-5.0-1.27","193","1","2025-04-14 14:45:19","bb671e3ae32f654b8954ea4c4635f915","","Mozilla/5.0 (Windows NT 10.0; Win64; x64) AppleWebKit/537.36 (KHTML, like Gecko) Chrome/130.0.0.0 Safari/537.36","WebKit","Chrome","130.0.0.0","Windows","10.0","https://hz8g1ckzuq.cognition.run/","en,en-US;q=0.9","88797l9kga2z594","22","[""Black or African-American""]","No","Female","652318.2000000179","1948","","","{""product_choice"":""B""}","choice","wbw","catch","null","televisions","70","65","50","40","10","25","2","null","null","null","null","null","null","Screen size","Average lifespan","",""
"","","","","","choice_trial_setup","html-keyboard-response","140","574170","0.0-5.0-0.28","193","1","2025-04-14 14:45:19","bb671e3ae32f654b8954ea4c4635f915","","Mozilla/5.0 (Windows NT 10.0; Win64; x64) AppleWebKit/537.36 (KHTML, like Gecko) Chrome/130.0.0.0 Safari/537.36","WebKit","Chrome","130.0.0.0","Windows","10.0","https://hz8g1ckzuq.cognition.run/","en,en-US;q=0.9","88797l9kga2z594","22","[""Black or African-American""]","No","Female","652318.2000000179","null","","<p></p>","null","choice","bww","catch","null","microwave ovens","65","50","50","25","20","50","2","","","","","","","","","",""
"","","","","","choice_trial","survey-html-form","141","576186","0.0-5.0-1.28","193","1","2025-04-14 14:45:19","bb671e3ae32f654b8954ea4c4635f915","","Mozilla/5.0 (Windows NT 10.0; Win64; x64) AppleWebKit/537.36 (KHTML, like Gecko) Chrome/130.0.0.0 Safari/537.36","WebKit","Chrome","130.0.0.0","Windows","10.0","https://hz8g1ckzuq.cognition.run/","en,en-US;q=0.9","88797l9kga2z594","22","[""Black or African-American""]","No","Female","652318.2000000179","2013","","","{""product_choice"":""A""}","choice","bww","catch","null","microwave ovens","65","50","50","25","20","50","2","null","null","null","null","null","null","Warranty","Cooking power","",""
"","","","","","choice_trial_setup","html-keyboard-response","142","576490","0.0-5.0-0.29","193","1","2025-04-14 14:45:19","bb671e3ae32f654b8954ea4c4635f915","","Mozilla/5.0 (Windows NT 10.0; Win64; x64) AppleWebKit/537.36 (KHTML, like Gecko) Chrome/130.0.0.0 Safari/537.36","WebKit","Chrome","130.0.0.0","Windows","10.0","https://hz8g1ckzuq.cognition.run/","en,en-US;q=0.9","88797l9kga2z594","22","[""Black or African-American""]","No","Female","652318.2000000179","null","","<p></p>","null","choice","tdc","attraction_1","2","laptops","null","null","null","null","null","null","2","","","","","","","","","",""
"","","","","","choice_trial","survey-html-form","143","579098","0.0-5.0-1.29","193","1","2025-04-14 14:45:19","bb671e3ae32f654b8954ea4c4635f915","","Mozilla/5.0 (Windows NT 10.0; Win64; x64) AppleWebKit/537.36 (KHTML, like Gecko) Chrome/130.0.0.0 Safari/537.36","WebKit","Chrome","130.0.0.0","Windows","10.0","https://hz8g1ckzuq.cognition.run/","en,en-US;q=0.9","88797l9kga2z594","22","[""Black or African-American""]","No","Female","652318.2000000179","2604","","","{""product_choice"":""C""}","choice","tdc","attraction_1","2","laptops","null","null","null","null","null","null","2","50","60","45","60","50","60","Processing speed","Memory (RAM)","",""
"","","","","","choice_trial_setup","html-keyboard-response","144","579403","0.0-5.0-0.30","193","1","2025-04-14 14:45:19","bb671e3ae32f654b8954ea4c4635f915","","Mozilla/5.0 (Windows NT 10.0; Win64; x64) AppleWebKit/537.36 (KHTML, like Gecko) Chrome/130.0.0.0 Safari/537.36","WebKit","Chrome","130.0.0.0","Windows","10.0","https://hz8g1ckzuq.cognition.run/","en,en-US;q=0.9","88797l9kga2z594","22","[""Black or African-American""]","No","Female","652318.2000000179","null","","<p></p>","null","choice","dct","attraction_1","2","televisions","null","null","null","null","null","null","1","","","","","","","","","",""
"","","","","","choice_trial","survey-html-form","145","581427","0.0-5.0-1.30","193","1","2025-04-14 14:45:19","bb671e3ae32f654b8954ea4c4635f915","","Mozilla/5.0 (Windows NT 10.0; Win64; x64) AppleWebKit/537.36 (KHTML, like Gecko) Chrome/130.0.0.0 Safari/537.36","WebKit","Chrome","130.0.0.0","Windows","10.0","https://hz8g1ckzuq.cognition.run/","en,en-US;q=0.9","88797l9kga2z594","22","[""Black or African-American""]","No","Female","652318.2000000179","2020","","","{""product_choice"":""C""}","choice","dct","attraction_1","2","televisions","null","null","null","null","null","null","1","50","60","45","60","50","60","Screen size","Average lifespan","",""
"","","","","","choice_trial_setup","html-keyboard-response","146","581734","0.0-5.0-0.31","193","1","2025-04-14 14:45:19","bb671e3ae32f654b8954ea4c4635f915","","Mozilla/5.0 (Windows NT 10.0; Win64; x64) AppleWebKit/537.36 (KHTML, like Gecko) Chrome/130.0.0.0 Safari/537.36","WebKit","Chrome","130.0.0.0","Windows","10.0","https://hz8g1ckzuq.cognition.run/","en,en-US;q=0.9","88797l9kga2z594","22","[""Black or African-American""]","No","Female","652318.2000000179","null","","<p></p>","null","choice","cdt","attraction_2","1","microwave ovens","null","null","null","null","null","null","2","","","","","","","","","",""
"","","","","","choice_trial","survey-html-form","147","583626","0.0-5.0-1.31","193","1","2025-04-14 14:45:19","bb671e3ae32f654b8954ea4c4635f915","","Mozilla/5.0 (Windows NT 10.0; Win64; x64) AppleWebKit/537.36 (KHTML, like Gecko) Chrome/130.0.0.0 Safari/537.36","WebKit","Chrome","130.0.0.0","Windows","10.0","https://hz8g1ckzuq.cognition.run/","en,en-US;q=0.9","88797l9kga2z594","22","[""Black or African-American""]","No","Female","652318.2000000179","1888","","","{""product_choice"":""C""}","choice","cdt","attraction_2","1","microwave ovens","null","null","null","null","null","null","2","60","50","60","50","60","40","Warranty","Cooking power","",""
"","","","","","choice_trial_setup","html-keyboard-response","148","583931","0.0-5.0-0.32","193","1","2025-04-14 14:45:19","bb671e3ae32f654b8954ea4c4635f915","","Mozilla/5.0 (Windows NT 10.0; Win64; x64) AppleWebKit/537.36 (KHTML, like Gecko) Chrome/130.0.0.0 Safari/537.36","WebKit","Chrome","130.0.0.0","Windows","10.0","https://hz8g1ckzuq.cognition.run/","en,en-US;q=0.9","88797l9kga2z594","22","[""Black or African-American""]","No","Female","652318.2000000179","null","","<p></p>","null","choice","ctd","attraction_2","2","washing machines","null","null","null","null","null","null","1","","","","","","","","","",""
"","","","","","choice_trial","survey-html-form","149","586618","0.0-5.0-1.32","193","1","2025-04-14 14:45:19","bb671e3ae32f654b8954ea4c4635f915","","Mozilla/5.0 (Windows NT 10.0; Win64; x64) AppleWebKit/537.36 (KHTML, like Gecko) Chrome/130.0.0.0 Safari/537.36","WebKit","Chrome","130.0.0.0","Windows","10.0","https://hz8g1ckzuq.cognition.run/","en,en-US;q=0.9","88797l9kga2z594","22","[""Black or African-American""]","No","Female","652318.2000000179","2684","","","{""product_choice"":""A""}","choice","ctd","attraction_2","2","washing machines","null","null","null","null","null","null","1","50","60","40","60","50","60","Average lifespan","Energy savings","",""
"","","","","","choice_trial_setup","html-keyboard-response","150","586923","0.0-5.0-0.33","193","1","2025-04-14 14:45:19","bb671e3ae32f654b8954ea4c4635f915","","Mozilla/5.0 (Windows NT 10.0; Win64; x64) AppleWebKit/537.36 (KHTML, like Gecko) Chrome/130.0.0.0 Safari/537.36","WebKit","Chrome","130.0.0.0","Windows","10.0","https://hz8g1ckzuq.cognition.run/","en,en-US;q=0.9","88797l9kga2z594","22","[""Black or African-American""]","No","Female","652318.2000000179","null","","<p></p>","null","choice","cdt","attraction_2","1","televisions","null","null","null","null","null","null","1","","","","","","","","","",""
"","","","","","choice_trial","survey-html-form","151","589026","0.0-5.0-1.33","193","1","2025-04-14 14:45:19","bb671e3ae32f654b8954ea4c4635f915","","Mozilla/5.0 (Windows NT 10.0; Win64; x64) AppleWebKit/537.36 (KHTML, like Gecko) Chrome/130.0.0.0 Safari/537.36","WebKit","Chrome","130.0.0.0","Windows","10.0","https://hz8g1ckzuq.cognition.run/","en,en-US;q=0.9","88797l9kga2z594","22","[""Black or African-American""]","No","Female","652318.2000000179","2100","","","{""product_choice"":""A""}","choice","cdt","attraction_2","1","televisions","null","null","null","null","null","null","1","60","50","60","50","60","40","Screen size","Average lifespan","",""
"","","","","","choice_trial_setup","html-keyboard-response","152","589330","0.0-5.0-0.34","193","1","2025-04-14 14:45:19","bb671e3ae32f654b8954ea4c4635f915","","Mozilla/5.0 (Windows NT 10.0; Win64; x64) AppleWebKit/537.36 (KHTML, like Gecko) Chrome/130.0.0.0 Safari/537.36","WebKit","Chrome","130.0.0.0","Windows","10.0","https://hz8g1ckzuq.cognition.run/","en,en-US;q=0.9","88797l9kga2z594","22","[""Black or African-American""]","No","Female","652318.2000000179","null","","<p></p>","null","choice","tdc","attraction_1","2","washing machines","null","null","null","null","null","null","1","","","","","","","","","",""
