"success","timeout","failed_images","failed_audio","failed_video","screen_id","trial_type","trial_index","time_elapsed","internal_node_id","run_id","condition","recorded_at","source_code_version","ip","user_agent","device","browser","browser_version","platform","platform_version","referer","accept_language","ppt_id","age","race","ethnicity","gender","exp_duration","rt","view_history","stimulus","response","phase","order","effect","t_high","category","d1_best","d2_best","d1_worst1","d2_worst1","d1_worst2","d2_worst2","first_dim","d1_t","d1_c","d1_d","d2_t","d2_c","d2_d","d1_name","d2_name","strategy_response","question_order"
"true","false","[]","[]","[]","img preload","preload","0","324","0.0-0.0","194","1","2025-04-14 14:45:23","bb671e3ae32f654b8954ea4c4635f915","","Mozilla/5.0 (Macintosh; Intel Mac OS X 10_15_7) AppleWebKit/537.36 (KHTML, like Gecko) Chrome/135.0.0.0 Safari/537.36","Macintosh","Chrome","135.0.0.0","OS X","10_15_7","https://hz8g1ckzuq.cognition.run/","en-US,en;q=0.9","1jugcgcvorm6qrk","41","[""White""]","No","Male","2726625.400000006","","","","","","","","","","","","","","","","","","","","","","","","","",""
"true","","","","","","fullscreen","1","2388","0.0-1.0","194","1","2025-04-14 14:45:23","bb671e3ae32f654b8954ea4c4635f915","","Mozilla/5.0 (Macintosh; Intel Mac OS X 10_15_7) AppleWebKit/537.36 (KHTML, like Gecko) Chrome/135.0.0.0 Safari/537.36","Macintosh","Chrome","135.0.0.0","OS X","10_15_7","https://hz8g1ckzuq.cognition.run/","en-US,en;q=0.9","1jugcgcvorm6qrk","41","[""White""]","No","Male","2726625.400000006","1058","","","","","","","","","","","","","","","","","","","","","","","","",""
"","","","","","","instructions","2","184446","0.0-2.0","194","1","2025-04-14 14:45:23","bb671e3ae32f654b8954ea4c4635f915","","Mozilla/5.0 (Macintosh; Intel Mac OS X 10_15_7) AppleWebKit/537.36 (KHTML, like Gecko) Chrome/135.0.0.0 Safari/537.36","Macintosh","Chrome","135.0.0.0","OS X","10_15_7","https://hz8g1ckzuq.cognition.run/","en-US,en;q=0.9","1jugcgcvorm6qrk","41","[""White""]","No","Male","2726625.400000006","182061","[{""page_index"":0,""viewing_time"":1688},{""page_index"":1,""viewing_time"":3846},{""page_index"":2,""viewing_time"":2542},{""page_index"":3,""viewing_time"":4171},{""page_index"":4,""viewing_time"":42385},{""page_index"":5,""viewing_time"":2764},{""page_index"":6,""viewing_time"":106022},{""page_index"":7,""viewing_time"":12123},{""page_index"":8,""viewing_time"":4877},{""page_index"":9,""viewing_time"":1643}]","","","","","","","","","","","","","","","","","","","","","","","",""
"","","","","","rating_trial_setup","html-keyboard-response","3","184752","0.0-3.0-0.0","194","1","2025-04-14 14:45:23","bb671e3ae32f654b8954ea4c4635f915","","Mozilla/5.0 (Macintosh; Intel Mac OS X 10_15_7) AppleWebKit/537.36 (KHTML, like Gecko) Chrome/135.0.0.0 Safari/537.36","Macintosh","Chrome","135.0.0.0","OS X","10_15_7","https://hz8g1ckzuq.cognition.run/","en-US,en;q=0.9","1jugcgcvorm6qrk","41","[""White""]","No","Male","2726625.400000006","null","","<p></p>","null","rating","ctd","repulsion_2","2","microwave ovens","null","null","null","null","null","null","2","","","","","","","","","",""
"","","","","","rating_trial","survey-html-form","4","208496","0.0-3.0-1.0","194","1","2025-04-14 14:45:23","bb671e3ae32f654b8954ea4c4635f915","","Mozilla/5.0 (Macintosh; Intel Mac OS X 10_15_7) AppleWebKit/537.36 (KHTML, like Gecko) Chrome/135.0.0.0 Safari/537.36","Macintosh","Chrome","135.0.0.0","OS X","10_15_7","https://hz8g1ckzuq.cognition.run/","en-US,en;q=0.9","1jugcgcvorm6qrk","41","[""White""]","No","Male","2726625.400000006","23740","","","{""price_1"":""245"",""price_2"":""265"",""price_3"":""260""}","rating","ctd","repulsion_2","2","microwave ovens","null","null","null","null","null","null","2","30","40","20","100","90","100","Warranty","Cooking power","",""
"","","","","","rating_trial_setup","html-keyboard-response","5","208800","0.0-3.0-0.1","194","1","2025-04-14 14:45:23","bb671e3ae32f654b8954ea4c4635f915","","Mozilla/5.0 (Macintosh; Intel Mac OS X 10_15_7) AppleWebKit/537.36 (KHTML, like Gecko) Chrome/135.0.0.0 Safari/537.36","Macintosh","Chrome","135.0.0.0","OS X","10_15_7","https://hz8g1ckzuq.cognition.run/","en-US,en;q=0.9","1jugcgcvorm6qrk","41","[""White""]","No","Male","2726625.400000006","null","","<p></p>","null","rating","ctd","attraction_1","2","laptops","null","null","null","null","null","null","1","","","","","","","","","",""
"","","","","","rating_trial","survey-html-form","6","231723","0.0-3.0-1.1","194","1","2025-04-14 14:45:23","bb671e3ae32f654b8954ea4c4635f915","","Mozilla/5.0 (Macintosh; Intel Mac OS X 10_15_7) AppleWebKit/537.36 (KHTML, like Gecko) Chrome/135.0.0.0 Safari/537.36","Macintosh","Chrome","135.0.0.0","OS X","10_15_7","https://hz8g1ckzuq.cognition.run/","en-US,en;q=0.9","1jugcgcvorm6qrk","41","[""White""]","No","Male","2726625.400000006","22923","","","{""price_1"":""1100"",""price_2"":""1150"",""price_3"":""899""}","rating","ctd","attraction_1","2","laptops","null","null","null","null","null","null","1","50","60","45","60","50","60","Processing speed","Memory (RAM)","",""
"","","","","","rating_trial_setup","html-keyboard-response","7","232025","0.0-3.0-0.2","194","1","2025-04-14 14:45:23","bb671e3ae32f654b8954ea4c4635f915","","Mozilla/5.0 (Macintosh; Intel Mac OS X 10_15_7) AppleWebKit/537.36 (KHTML, like Gecko) Chrome/135.0.0.0 Safari/537.36","Macintosh","Chrome","135.0.0.0","OS X","10_15_7","https://hz8g1ckzuq.cognition.run/","en-US,en;q=0.9","1jugcgcvorm6qrk","41","[""White""]","No","Male","2726625.400000006","null","","<p></p>","null","rating","dct","attraction_1","2","washing machines","null","null","null","null","null","null","1","","","","","","","","","",""
"","","","","","rating_trial","survey-html-form","8","245845","0.0-3.0-1.2","194","1","2025-04-14 14:45:23","bb671e3ae32f654b8954ea4c4635f915","","Mozilla/5.0 (Macintosh; Intel Mac OS X 10_15_7) AppleWebKit/537.36 (KHTML, like Gecko) Chrome/135.0.0.0 Safari/537.36","Macintosh","Chrome","135.0.0.0","OS X","10_15_7","https://hz8g1ckzuq.cognition.run/","en-US,en;q=0.9","1jugcgcvorm6qrk","41","[""White""]","No","Male","2726625.400000006","13819","","","{""price_1"":""645"",""price_2"":""600"",""price_3"":""625""}","rating","dct","attraction_1","2","washing machines","null","null","null","null","null","null","1","50","60","45","60","50","60","Average lifespan","Energy savings","",""
"","","","","","rating_trial_setup","html-keyboard-response","9","246148","0.0-3.0-0.3","194","1","2025-04-14 14:45:23","bb671e3ae32f654b8954ea4c4635f915","","Mozilla/5.0 (Macintosh; Intel Mac OS X 10_15_7) AppleWebKit/537.36 (KHTML, like Gecko) Chrome/135.0.0.0 Safari/537.36","Macintosh","Chrome","135.0.0.0","OS X","10_15_7","https://hz8g1ckzuq.cognition.run/","en-US,en;q=0.9","1jugcgcvorm6qrk","41","[""White""]","No","Male","2726625.400000006","null","","<p></p>","null","rating","bww","catch","null","laptops","80","85","30","40","15","20","2","","","","","","","","","",""
"","","","","","rating_trial","survey-html-form","10","262654","0.0-3.0-1.3","194","1","2025-04-14 14:45:23","bb671e3ae32f654b8954ea4c4635f915","","Mozilla/5.0 (Macintosh; Intel Mac OS X 10_15_7) AppleWebKit/537.36 (KHTML, like Gecko) Chrome/135.0.0.0 Safari/537.36","Macintosh","Chrome","135.0.0.0","OS X","10_15_7","https://hz8g1ckzuq.cognition.run/","en-US,en;q=0.9","1jugcgcvorm6qrk","41","[""White""]","No","Male","2726625.400000006","16505","","","{""price_1"":""1350"",""price_2"":""850"",""price_3"":""699""}","rating","bww","catch","null","laptops","80","85","30","40","15","20","2","null","null","null","null","null","null","Processing speed","Memory (RAM)","",""
"","","","","","rating_trial_setup","html-keyboard-response","11","262956","0.0-3.0-0.4","194","1","2025-04-14 14:45:23","bb671e3ae32f654b8954ea4c4635f915","","Mozilla/5.0 (Macintosh; Intel Mac OS X 10_15_7) AppleWebKit/537.36 (KHTML, like Gecko) Chrome/135.0.0.0 Safari/537.36","Macintosh","Chrome","135.0.0.0","OS X","10_15_7","https://hz8g1ckzuq.cognition.run/","en-US,en;q=0.9","1jugcgcvorm6qrk","41","[""White""]","No","Male","2726625.400000006","null","","<p></p>","null","rating","cdt","attraction_1","2","microwave ovens","null","null","null","null","null","null","2","","","","","","","","","",""
"","","","","","rating_trial","survey-html-form","12","286622","0.0-3.0-1.4","194","1","2025-04-14 14:45:23","bb671e3ae32f654b8954ea4c4635f915","","Mozilla/5.0 (Macintosh; Intel Mac OS X 10_15_7) AppleWebKit/537.36 (KHTML, like Gecko) Chrome/135.0.0.0 Safari/537.36","Macintosh","Chrome","135.0.0.0","OS X","10_15_7","https://hz8g1ckzuq.cognition.run/","en-US,en;q=0.9","1jugcgcvorm6qrk","41","[""White""]","No","Male","2726625.400000006","23665","","","{""price_1"":""235"",""price_2"":""250"",""price_3"":""279""}","rating","cdt","attraction_1","2","microwave ovens","null","null","null","null","null","null","2","50","60","45","60","50","60","Warranty","Cooking power","",""
"","","","","","rating_trial_setup","html-keyboard-response","13","286924","0.0-3.0-0.5","194","1","2025-04-14 14:45:23","bb671e3ae32f654b8954ea4c4635f915","","Mozilla/5.0 (Macintosh; Intel Mac OS X 10_15_7) AppleWebKit/537.36 (KHTML, like Gecko) Chrome/135.0.0.0 Safari/537.36","Macintosh","Chrome","135.0.0.0","OS X","10_15_7","https://hz8g1ckzuq.cognition.run/","en-US,en;q=0.9","1jugcgcvorm6qrk","41","[""White""]","No","Male","2726625.400000006","null","","<p></p>","null","rating","dtc","attraction_1","2","televisions","null","null","null","null","null","null","1","","","","","","","","","",""
"","","","","","rating_trial","survey-html-form","14","306428","0.0-3.0-1.5","194","1","2025-04-14 14:45:23","bb671e3ae32f654b8954ea4c4635f915","","Mozilla/5.0 (Macintosh; Intel Mac OS X 10_15_7) AppleWebKit/537.36 (KHTML, like Gecko) Chrome/135.0.0.0 Safari/537.36","Macintosh","Chrome","135.0.0.0","OS X","10_15_7","https://hz8g1ckzuq.cognition.run/","en-US,en;q=0.9","1jugcgcvorm6qrk","41","[""White""]","No","Male","2726625.400000006","19503","","","{""price_1"":""425"",""price_2"":""525"",""price_3"":""675""}","rating","dtc","attraction_1","2","televisions","null","null","null","null","null","null","1","50","60","45","60","50","60","Screen size","Average lifespan","",""
"","","","","","rating_trial_setup","html-keyboard-response","15","306731","0.0-3.0-0.6","194","1","2025-04-14 14:45:23","bb671e3ae32f654b8954ea4c4635f915","","Mozilla/5.0 (Macintosh; Intel Mac OS X 10_15_7) AppleWebKit/537.36 (KHTML, like Gecko) Chrome/135.0.0.0 Safari/537.36","Macintosh","Chrome","135.0.0.0","OS X","10_15_7","https://hz8g1ckzuq.cognition.run/","en-US,en;q=0.9","1jugcgcvorm6qrk","41","[""White""]","No","Male","2726625.400000006","null","","<p></p>","null","rating","cdt","repulsion_1","2","televisions","null","null","null","null","null","null","2","","","","","","","","","",""
"","","","","","rating_trial","survey-html-form","16","325681","0.0-3.0-1.6","194","1","2025-04-14 14:45:23","bb671e3ae32f654b8954ea4c4635f915","","Mozilla/5.0 (Macintosh; Intel Mac OS X 10_15_7) AppleWebKit/537.36 (KHTML, like Gecko) Chrome/135.0.0.0 Safari/537.36","Macintosh","Chrome","135.0.0.0","OS X","10_15_7","https://hz8g1ckzuq.cognition.run/","en-US,en;q=0.9","1jugcgcvorm6qrk","41","[""White""]","No","Male","2726625.400000006","18950","","","{""price_1"":""425"",""price_2"":""299"",""price_3"":""325""}","rating","cdt","repulsion_1","2","televisions","null","null","null","null","null","null","2","30","40","25","100","90","100","Screen size","Average lifespan","",""
"","","","","","rating_trial_setup","html-keyboard-response","17","325984","0.0-3.0-0.7","194","1","2025-04-14 14:45:23","bb671e3ae32f654b8954ea4c4635f915","","Mozilla/5.0 (Macintosh; Intel Mac OS X 10_15_7) AppleWebKit/537.36 (KHTML, like Gecko) Chrome/135.0.0.0 Safari/537.36","Macintosh","Chrome","135.0.0.0","OS X","10_15_7","https://hz8g1ckzuq.cognition.run/","en-US,en;q=0.9","1jugcgcvorm6qrk","41","[""White""]","No","Male","2726625.400000006","null","","<p></p>","null","rating","dct","attraction_2","2","microwave ovens","null","null","null","null","null","null","1","","","","","","","","","",""
"","","","","","rating_trial","survey-html-form","18","347903","0.0-3.0-1.7","194","1","2025-04-14 14:45:23","bb671e3ae32f654b8954ea4c4635f915","","Mozilla/5.0 (Macintosh; Intel Mac OS X 10_15_7) AppleWebKit/537.36 (KHTML, like Gecko) Chrome/135.0.0.0 Safari/537.36","Macintosh","Chrome","135.0.0.0","OS X","10_15_7","https://hz8g1ckzuq.cognition.run/","en-US,en;q=0.9","1jugcgcvorm6qrk","41","[""White""]","No","Male","2726625.400000006","21918","","","{""price_1"":""245"",""price_2"":""230"",""price_3"":""260""}","rating","dct","attraction_2","2","microwave ovens","null","null","null","null","null","null","1","50","60","40","60","50","60","Warranty","Cooking power","",""
"","","","","","rating_trial_setup","html-keyboard-response","19","348206","0.0-3.0-0.8","194","1","2025-04-14 14:45:23","bb671e3ae32f654b8954ea4c4635f915","","Mozilla/5.0 (Macintosh; Intel Mac OS X 10_15_7) AppleWebKit/537.36 (KHTML, like Gecko) Chrome/135.0.0.0 Safari/537.36","Macintosh","Chrome","135.0.0.0","OS X","10_15_7","https://hz8g1ckzuq.cognition.run/","en-US,en;q=0.9","1jugcgcvorm6qrk","41","[""White""]","No","Male","2726625.400000006","null","","<p></p>","null","rating","wwb","catch","null","washing machines","70","65","40","35","5","30","2","","","","","","","","","",""
"","","","","","rating_trial","survey-html-form","20","375135","0.0-3.0-1.8","194","1","2025-04-14 14:45:23","bb671e3ae32f654b8954ea4c4635f915","","Mozilla/5.0 (Macintosh; Intel Mac OS X 10_15_7) AppleWebKit/537.36 (KHTML, like Gecko) Chrome/135.0.0.0 Safari/537.36","Macintosh","Chrome","135.0.0.0","OS X","10_15_7","https://hz8g1ckzuq.cognition.run/","en-US,en;q=0.9","1jugcgcvorm6qrk","41","[""White""]","No","Male","2726625.400000006","26928","","","{""price_1"":""565"",""price_2"":""499"",""price_3"":""795""}","rating","wwb","catch","null","washing machines","70","65","40","35","5","30","2","null","null","null","null","null","null","Average lifespan","Energy savings","",""
"","","","","","rating_trial_setup","html-keyboard-response","21","375438","0.0-3.0-0.9","194","1","2025-04-14 14:45:23","bb671e3ae32f654b8954ea4c4635f915","","Mozilla/5.0 (Macintosh; Intel Mac OS X 10_15_7) AppleWebKit/537.36 (KHTML, like Gecko) Chrome/135.0.0.0 Safari/537.36","Macintosh","Chrome","135.0.0.0","OS X","10_15_7","https://hz8g1ckzuq.cognition.run/","en-US,en;q=0.9","1jugcgcvorm6qrk","41","[""White""]","No","Male","2726625.400000006","null","","<p></p>","null","rating","cdt","attraction_1","1","laptops","null","null","null","null","null","null","1","","","","","","","","","",""
"","","","","","rating_trial","survey-html-form","22","391881","0.0-3.0-1.9","194","1","2025-04-14 14:45:23","bb671e3ae32f654b8954ea4c4635f915","","Mozilla/5.0 (Macintosh; Intel Mac OS X 10_15_7) AppleWebKit/537.36 (KHTML, like Gecko) Chrome/135.0.0.0 Safari/537.36","Macintosh","Chrome","135.0.0.0","OS X","10_15_7","https://hz8g1ckzuq.cognition.run/","en-US,en;q=0.9","1jugcgcvorm6qrk","41","[""White""]","No","Male","2726625.400000006","16442","","","{""price_1"":""1100"",""price_2"":""1199"",""price_3"":""1150""}","rating","cdt","attraction_1","1","laptops","null","null","null","null","null","null","1","60","50","60","50","60","45","Processing speed","Memory (RAM)","",""
"","","","","","rating_trial_setup","html-keyboard-response","23","392183","0.0-3.0-0.10","194","1","2025-04-14 14:45:23","bb671e3ae32f654b8954ea4c4635f915","","Mozilla/5.0 (Macintosh; Intel Mac OS X 10_15_7) AppleWebKit/537.36 (KHTML, like Gecko) Chrome/135.0.0.0 Safari/537.36","Macintosh","Chrome","135.0.0.0","OS X","10_15_7","https://hz8g1ckzuq.cognition.run/","en-US,en;q=0.9","1jugcgcvorm6qrk","41","[""White""]","No","Male","2726625.400000006","null","","<p></p>","null","rating","wwb","catch","null","televisions","65","50","50","25","25","40","1","","","","","","","","","",""
"","","","","","rating_trial","survey-html-form","24","405508","0.0-3.0-1.10","194","1","2025-04-14 14:45:23","bb671e3ae32f654b8954ea4c4635f915","","Mozilla/5.0 (Macintosh; Intel Mac OS X 10_15_7) AppleWebKit/537.36 (KHTML, like Gecko) Chrome/135.0.0.0 Safari/537.36","Macintosh","Chrome","135.0.0.0","OS X","10_15_7","https://hz8g1ckzuq.cognition.run/","en-US,en;q=0.9","1jugcgcvorm6qrk","41","[""White""]","No","Male","2726625.400000006","13324","","","{""price_1"":""450"",""price_2"":""299"",""price_3"":""599""}","rating","wwb","catch","null","televisions","65","50","50","25","25","40","1","null","null","null","null","null","null","Screen size","Average lifespan","",""
"","","","","","rating_trial_setup","html-keyboard-response","25","405811","0.0-3.0-0.11","194","1","2025-04-14 14:45:23","bb671e3ae32f654b8954ea4c4635f915","","Mozilla/5.0 (Macintosh; Intel Mac OS X 10_15_7) AppleWebKit/537.36 (KHTML, like Gecko) Chrome/135.0.0.0 Safari/537.36","Macintosh","Chrome","135.0.0.0","OS X","10_15_7","https://hz8g1ckzuq.cognition.run/","en-US,en;q=0.9","1jugcgcvorm6qrk","41","[""White""]","No","Male","2726625.400000006","null","","<p></p>","null","rating","dtc","attraction_2","1","microwave ovens","null","null","null","null","null","null","1","","","","","","","","","",""
"","","","","","rating_trial","survey-html-form","26","430492","0.0-3.0-1.11","194","1","2025-04-14 14:45:23","bb671e3ae32f654b8954ea4c4635f915","","Mozilla/5.0 (Macintosh; Intel Mac OS X 10_15_7) AppleWebKit/537.36 (KHTML, like Gecko) Chrome/135.0.0.0 Safari/537.36","Macintosh","Chrome","135.0.0.0","OS X","10_15_7","https://hz8g1ckzuq.cognition.run/","en-US,en;q=0.9","1jugcgcvorm6qrk","41","[""White""]","No","Male","2726625.400000006","24680","","","{""price_1"":""255"",""price_2"":""265"",""price_3"":""299""}","rating","dtc","attraction_2","1","microwave ovens","null","null","null","null","null","null","1","60","50","60","50","60","40","Warranty","Cooking power","",""
"","","","","","rating_trial_setup","html-keyboard-response","27","430796","0.0-3.0-0.12","194","1","2025-04-14 14:45:23","bb671e3ae32f654b8954ea4c4635f915","","Mozilla/5.0 (Macintosh; Intel Mac OS X 10_15_7) AppleWebKit/537.36 (KHTML, like Gecko) Chrome/135.0.0.0 Safari/537.36","Macintosh","Chrome","135.0.0.0","OS X","10_15_7","https://hz8g1ckzuq.cognition.run/","en-US,en;q=0.9","1jugcgcvorm6qrk","41","[""White""]","No","Male","2726625.400000006","null","","<p></p>","null","rating","tcd","repulsion_1","1","washing machines","null","null","null","null","null","null","1","","","","","","","","","",""
"","","","","","rating_trial","survey-html-form","28","447841","0.0-3.0-1.12","194","1","2025-04-14 14:45:23","bb671e3ae32f654b8954ea4c4635f915","","Mozilla/5.0 (Macintosh; Intel Mac OS X 10_15_7) AppleWebKit/537.36 (KHTML, like Gecko) Chrome/135.0.0.0 Safari/537.36","Macintosh","Chrome","135.0.0.0","OS X","10_15_7","https://hz8g1ckzuq.cognition.run/","en-US,en;q=0.9","1jugcgcvorm6qrk","41","[""White""]","No","Male","2726625.400000006","17044","","","{""price_1"":""565"",""price_2"":""525"",""price_3"":""560""}","rating","tcd","repulsion_1","1","washing machines","null","null","null","null","null","null","1","100","90","100","30","40","25","Average lifespan","Energy savings","",""
"","","","","","rating_trial_setup","html-keyboard-response","29","448144","0.0-3.0-0.13","194","1","2025-04-14 14:45:23","bb671e3ae32f654b8954ea4c4635f915","","Mozilla/5.0 (Macintosh; Intel Mac OS X 10_15_7) AppleWebKit/537.36 (KHTML, like Gecko) Chrome/135.0.0.0 Safari/537.36","Macintosh","Chrome","135.0.0.0","OS X","10_15_7","https://hz8g1ckzuq.cognition.run/","en-US,en;q=0.9","1jugcgcvorm6qrk","41","[""White""]","No","Male","2726625.400000006","null","","<p></p>","null","rating","ctd","attraction_2","2","laptops","null","null","null","null","null","null","2","","","","","","","","","",""
"","","","","","rating_trial","survey-html-form","30","462164","0.0-3.0-1.13","194","1","2025-04-14 14:45:23","bb671e3ae32f654b8954ea4c4635f915","","Mozilla/5.0 (Macintosh; Intel Mac OS X 10_15_7) AppleWebKit/537.36 (KHTML, like Gecko) Chrome/135.0.0.0 Safari/537.36","Macintosh","Chrome","135.0.0.0","OS X","10_15_7","https://hz8g1ckzuq.cognition.run/","en-US,en;q=0.9","1jugcgcvorm6qrk","41","[""White""]","No","Male","2726625.400000006","14019","","","{""price_1"":""1050"",""price_2"":""1199"",""price_3"":""1125""}","rating","ctd","attraction_2","2","laptops","null","null","null","null","null","null","2","50","60","40","60","50","60","Processing speed","Memory (RAM)","",""
"","","","","","rating_trial_setup","html-keyboard-response","31","462467","0.0-3.0-0.14","194","1","2025-04-14 14:45:23","bb671e3ae32f654b8954ea4c4635f915","","Mozilla/5.0 (Macintosh; Intel Mac OS X 10_15_7) AppleWebKit/537.36 (KHTML, like Gecko) Chrome/135.0.0.0 Safari/537.36","Macintosh","Chrome","135.0.0.0","OS X","10_15_7","https://hz8g1ckzuq.cognition.run/","en-US,en;q=0.9","1jugcgcvorm6qrk","41","[""White""]","No","Male","2726625.400000006","null","","<p></p>","null","rating","wwb","catch","null","microwave ovens","95","50","35","45","35","30","1","","","","","","","","","",""
"","","","","","rating_trial","survey-html-form","32","626495","0.0-3.0-1.14","194","1","2025-04-14 14:45:23","bb671e3ae32f654b8954ea4c4635f915","","Mozilla/5.0 (Macintosh; Intel Mac OS X 10_15_7) AppleWebKit/537.36 (KHTML, like Gecko) Chrome/135.0.0.0 Safari/537.36","Macintosh","Chrome","135.0.0.0","OS X","10_15_7","https://hz8g1ckzuq.cognition.run/","en-US,en;q=0.9","1jugcgcvorm6qrk","41","[""White""]","No","Male","2726625.400000006","164029","","","{""price_1"":""245"",""price_2"":""229"",""price_3"":""310""}","rating","wwb","catch","null","microwave ovens","95","50","35","45","35","30","1","null","null","null","null","null","null","Warranty","Cooking power","",""
"","","","","","rating_trial_setup","html-keyboard-response","33","626800","0.0-3.0-0.15","194","1","2025-04-14 14:45:23","bb671e3ae32f654b8954ea4c4635f915","","Mozilla/5.0 (Macintosh; Intel Mac OS X 10_15_7) AppleWebKit/537.36 (KHTML, like Gecko) Chrome/135.0.0.0 Safari/537.36","Macintosh","Chrome","135.0.0.0","OS X","10_15_7","https://hz8g1ckzuq.cognition.run/","en-US,en;q=0.9","1jugcgcvorm6qrk","41","[""White""]","No","Male","2726625.400000006","null","","<p></p>","null","rating","tcd","attraction_1","1","televisions","null","null","null","null","null","null","2","","","","","","","","","",""
"","","","","","rating_trial","survey-html-form","34","643946","0.0-3.0-1.15","194","1","2025-04-14 14:45:23","bb671e3ae32f654b8954ea4c4635f915","","Mozilla/5.0 (Macintosh; Intel Mac OS X 10_15_7) AppleWebKit/537.36 (KHTML, like Gecko) Chrome/135.0.0.0 Safari/537.36","Macintosh","Chrome","135.0.0.0","OS X","10_15_7","https://hz8g1ckzuq.cognition.run/","en-US,en;q=0.9","1jugcgcvorm6qrk","41","[""White""]","No","Male","2726625.400000006","17145","","","{""price_1"":""565"",""price_2"":""500"",""price_3"":""550""}","rating","tcd","attraction_1","1","televisions","null","null","null","null","null","null","2","60","50","60","50","60","45","Screen size","Average lifespan","",""
"","","","","","rating_trial_setup","html-keyboard-response","35","644250","0.0-3.0-0.16","194","1","2025-04-14 14:45:23","bb671e3ae32f654b8954ea4c4635f915","","Mozilla/5.0 (Macintosh; Intel Mac OS X 10_15_7) AppleWebKit/537.36 (KHTML, like Gecko) Chrome/135.0.0.0 Safari/537.36","Macintosh","Chrome","135.0.0.0","OS X","10_15_7","https://hz8g1ckzuq.cognition.run/","en-US,en;q=0.9","1jugcgcvorm6qrk","41","[""White""]","No","Male","2726625.400000006","null","","<p></p>","null","rating","wwb","catch","null","washing machines","65","80","45","30","5","45","1","","","","","","","","","",""
"","","","","","rating_trial","survey-html-form","36","660849","0.0-3.0-1.16","194","1","2025-04-14 14:45:23","bb671e3ae32f654b8954ea4c4635f915","","Mozilla/5.0 (Macintosh; Intel Mac OS X 10_15_7) AppleWebKit/537.36 (KHTML, like Gecko) Chrome/135.0.0.0 Safari/537.36","Macintosh","Chrome","135.0.0.0","OS X","10_15_7","https://hz8g1ckzuq.cognition.run/","en-US,en;q=0.9","1jugcgcvorm6qrk","41","[""White""]","No","Male","2726625.400000006","16598","","","{""price_1"":""585"",""price_2"":""420"",""price_3"":""675""}","rating","wwb","catch","null","washing machines","65","80","45","30","5","45","1","null","null","null","null","null","null","Average lifespan","Energy savings","",""
"","","","","","rating_trial_setup","html-keyboard-response","37","661152","0.0-3.0-0.17","194","1","2025-04-14 14:45:23","bb671e3ae32f654b8954ea4c4635f915","","Mozilla/5.0 (Macintosh; Intel Mac OS X 10_15_7) AppleWebKit/537.36 (KHTML, like Gecko) Chrome/135.0.0.0 Safari/537.36","Macintosh","Chrome","135.0.0.0","OS X","10_15_7","https://hz8g1ckzuq.cognition.run/","en-US,en;q=0.9","1jugcgcvorm6qrk","41","[""White""]","No","Male","2726625.400000006","null","","<p></p>","null","rating","dtc","repulsion_2","1","washing machines","null","null","null","null","null","null","2","","","","","","","","","",""
"","","","","","rating_trial","survey-html-form","38","677338","0.0-3.0-1.17","194","1","2025-04-14 14:45:23","bb671e3ae32f654b8954ea4c4635f915","","Mozilla/5.0 (Macintosh; Intel Mac OS X 10_15_7) AppleWebKit/537.36 (KHTML, like Gecko) Chrome/135.0.0.0 Safari/537.36","Macintosh","Chrome","135.0.0.0","OS X","10_15_7","https://hz8g1ckzuq.cognition.run/","en-US,en;q=0.9","1jugcgcvorm6qrk","41","[""White""]","No","Male","2726625.400000006","16184","","","{""price_1"":""625"",""price_2"":""699"",""price_3"":""589""}","rating","dtc","repulsion_2","1","washing machines","null","null","null","null","null","null","2","100","90","100","30","40","20","Average lifespan","Energy savings","",""
"","","","","","rating_trial_setup","html-keyboard-response","39","677641","0.0-3.0-0.18","194","1","2025-04-14 14:45:23","bb671e3ae32f654b8954ea4c4635f915","","Mozilla/5.0 (Macintosh; Intel Mac OS X 10_15_7) AppleWebKit/537.36 (KHTML, like Gecko) Chrome/135.0.0.0 Safari/537.36","Macintosh","Chrome","135.0.0.0","OS X","10_15_7","https://hz8g1ckzuq.cognition.run/","en-US,en;q=0.9","1jugcgcvorm6qrk","41","[""White""]","No","Male","2726625.400000006","null","","<p></p>","null","rating","cdt","repulsion_1","1","microwave ovens","null","null","null","null","null","null","2","","","","","","","","","",""
"","","","","","rating_trial","survey-html-form","40","690690","0.0-3.0-1.18","194","1","2025-04-14 14:45:23","bb671e3ae32f654b8954ea4c4635f915","","Mozilla/5.0 (Macintosh; Intel Mac OS X 10_15_7) AppleWebKit/537.36 (KHTML, like Gecko) Chrome/135.0.0.0 Safari/537.36","Macintosh","Chrome","135.0.0.0","OS X","10_15_7","https://hz8g1ckzuq.cognition.run/","en-US,en;q=0.9","1jugcgcvorm6qrk","41","[""White""]","No","Male","2726625.400000006","13048","","","{""price_1"":""289"",""price_2"":""245"",""price_3"":""255""}","rating","cdt","repulsion_1","1","microwave ovens","null","null","null","null","null","null","2","100","90","100","30","40","25","Warranty","Cooking power","",""
"","","","","","rating_trial_setup","html-keyboard-response","41","690993","0.0-3.0-0.19","194","1","2025-04-14 14:45:23","bb671e3ae32f654b8954ea4c4635f915","","Mozilla/5.0 (Macintosh; Intel Mac OS X 10_15_7) AppleWebKit/537.36 (KHTML, like Gecko) Chrome/135.0.0.0 Safari/537.36","Macintosh","Chrome","135.0.0.0","OS X","10_15_7","https://hz8g1ckzuq.cognition.run/","en-US,en;q=0.9","1jugcgcvorm6qrk","41","[""White""]","No","Male","2726625.400000006","null","","<p></p>","null","rating","cdt","repulsion_2","2","laptops","null","null","null","null","null","null","2","","","","","","","","","",""
"","","","","","rating_trial","survey-html-form","42","722304","0.0-3.0-1.19","194","1","2025-04-14 14:45:23","bb671e3ae32f654b8954ea4c4635f915","","Mozilla/5.0 (Macintosh; Intel Mac OS X 10_15_7) AppleWebKit/537.36 (KHTML, like Gecko) Chrome/135.0.0.0 Safari/537.36","Macintosh","Chrome","135.0.0.0","OS X","10_15_7","https://hz8g1ckzuq.cognition.run/","en-US,en;q=0.9","1jugcgcvorm6qrk","41","[""White""]","No","Male","2726625.400000006","31310","","","{""price_1"":""1025"",""price_2"":""949"",""price_3"":""979""}","rating","cdt","repulsion_2","2","laptops","null","null","null","null","null","null","2","30","40","20","100","90","100","Processing speed","Memory (RAM)","",""
"","","","","","rating_trial_setup","html-keyboard-response","43","722607","0.0-3.0-0.20","194","1","2025-04-14 14:45:23","bb671e3ae32f654b8954ea4c4635f915","","Mozilla/5.0 (Macintosh; Intel Mac OS X 10_15_7) AppleWebKit/537.36 (KHTML, like Gecko) Chrome/135.0.0.0 Safari/537.36","Macintosh","Chrome","135.0.0.0","OS X","10_15_7","https://hz8g1ckzuq.cognition.run/","en-US,en;q=0.9","1jugcgcvorm6qrk","41","[""White""]","No","Male","2726625.400000006","null","","<p></p>","null","rating","cdt","repulsion_1","1","televisions","null","null","null","null","null","null","1","","","","","","","","","",""
"","","","","","rating_trial","survey-html-form","44","733961","0.0-3.0-1.20","194","1","2025-04-14 14:45:23","bb671e3ae32f654b8954ea4c4635f915","","Mozilla/5.0 (Macintosh; Intel Mac OS X 10_15_7) AppleWebKit/537.36 (KHTML, like Gecko) Chrome/135.0.0.0 Safari/537.36","Macintosh","Chrome","135.0.0.0","OS X","10_15_7","https://hz8g1ckzuq.cognition.run/","en-US,en;q=0.9","1jugcgcvorm6qrk","41","[""White""]","No","Male","2726625.400000006","11353","","","{""price_1"":""799"",""price_2"":""949"",""price_3"":""999""}","rating","cdt","repulsion_1","1","televisions","null","null","null","null","null","null","1","100","90","100","30","40","25","Screen size","Average lifespan","",""
"","","","","","rating_trial_setup","html-keyboard-response","45","734264","0.0-3.0-0.21","194","1","2025-04-14 14:45:23","bb671e3ae32f654b8954ea4c4635f915","","Mozilla/5.0 (Macintosh; Intel Mac OS X 10_15_7) AppleWebKit/537.36 (KHTML, like Gecko) Chrome/135.0.0.0 Safari/537.36","Macintosh","Chrome","135.0.0.0","OS X","10_15_7","https://hz8g1ckzuq.cognition.run/","en-US,en;q=0.9","1jugcgcvorm6qrk","41","[""White""]","No","Male","2726625.400000006","null","","<p></p>","null","rating","cdt","repulsion_2","2","washing machines","null","null","null","null","null","null","2","","","","","","","","","",""
"","","","","","rating_trial","survey-html-form","46","950561","0.0-3.0-1.21","194","1","2025-04-14 14:45:23","bb671e3ae32f654b8954ea4c4635f915","","Mozilla/5.0 (Macintosh; Intel Mac OS X 10_15_7) AppleWebKit/537.36 (KHTML, like Gecko) Chrome/135.0.0.0 Safari/537.36","Macintosh","Chrome","135.0.0.0","OS X","10_15_7","https://hz8g1ckzuq.cognition.run/","en-US,en;q=0.9","1jugcgcvorm6qrk","41","[""White""]","No","Male","2726625.400000006","216300","","","{""price_1"":""589"",""price_2"":""625"",""price_3"":""675""}","rating","cdt","repulsion_2","2","washing machines","null","null","null","null","null","null","2","30","40","20","100","90","100","Average lifespan","Energy savings","",""
"","","","","","rating_trial_setup","html-keyboard-response","47","950865","0.0-3.0-0.22","194","1","2025-04-14 14:45:23","bb671e3ae32f654b8954ea4c4635f915","","Mozilla/5.0 (Macintosh; Intel Mac OS X 10_15_7) AppleWebKit/537.36 (KHTML, like Gecko) Chrome/135.0.0.0 Safari/537.36","Macintosh","Chrome","135.0.0.0","OS X","10_15_7","https://hz8g1ckzuq.cognition.run/","en-US,en;q=0.9","1jugcgcvorm6qrk","41","[""White""]","No","Male","2726625.400000006","null","","<p></p>","null","rating","wbw","catch","null","microwave ovens","60","65","15","5","50","35","1","","","","","","","","","",""
"","","","","","rating_trial","survey-html-form","48","964176","0.0-3.0-1.22","194","1","2025-04-14 14:45:23","bb671e3ae32f654b8954ea4c4635f915","","Mozilla/5.0 (Macintosh; Intel Mac OS X 10_15_7) AppleWebKit/537.36 (KHTML, like Gecko) Chrome/135.0.0.0 Safari/537.36","Macintosh","Chrome","135.0.0.0","OS X","10_15_7","https://hz8g1ckzuq.cognition.run/","en-US,en;q=0.9","1jugcgcvorm6qrk","41","[""White""]","No","Male","2726625.400000006","13309","","","{""price_1"":""199"",""price_2"":""345"",""price_3"":""289""}","rating","wbw","catch","null","microwave ovens","60","65","15","5","50","35","1","null","null","null","null","null","null","Warranty","Cooking power","",""
"","","","","","rating_trial_setup","html-keyboard-response","49","964479","0.0-3.0-0.23","194","1","2025-04-14 14:45:23","bb671e3ae32f654b8954ea4c4635f915","","Mozilla/5.0 (Macintosh; Intel Mac OS X 10_15_7) AppleWebKit/537.36 (KHTML, like Gecko) Chrome/135.0.0.0 Safari/537.36","Macintosh","Chrome","135.0.0.0","OS X","10_15_7","https://hz8g1ckzuq.cognition.run/","en-US,en;q=0.9","1jugcgcvorm6qrk","41","[""White""]","No","Male","2726625.400000006","null","","<p></p>","null","rating","dtc","attraction_2","1","laptops","null","null","null","null","null","null","2","","","","","","","","","",""
"","","","","","rating_trial","survey-html-form","50","979247","0.0-3.0-1.23","194","1","2025-04-14 14:45:23","bb671e3ae32f654b8954ea4c4635f915","","Mozilla/5.0 (Macintosh; Intel Mac OS X 10_15_7) AppleWebKit/537.36 (KHTML, like Gecko) Chrome/135.0.0.0 Safari/537.36","Macintosh","Chrome","135.0.0.0","OS X","10_15_7","https://hz8g1ckzuq.cognition.run/","en-US,en;q=0.9","1jugcgcvorm6qrk","41","[""White""]","No","Male","2726625.400000006","14766","","","{""price_1"":""985"",""price_2"":""1025"",""price_3"":""1099""}","rating","dtc","attraction_2","1","laptops","null","null","null","null","null","null","2","60","50","60","50","60","40","Processing speed","Memory (RAM)","",""
"","","","","","rating_trial_setup","html-keyboard-response","51","979550","0.0-3.0-0.24","194","1","2025-04-14 14:45:23","bb671e3ae32f654b8954ea4c4635f915","","Mozilla/5.0 (Macintosh; Intel Mac OS X 10_15_7) AppleWebKit/537.36 (KHTML, like Gecko) Chrome/135.0.0.0 Safari/537.36","Macintosh","Chrome","135.0.0.0","OS X","10_15_7","https://hz8g1ckzuq.cognition.run/","en-US,en;q=0.9","1jugcgcvorm6qrk","41","[""White""]","No","Male","2726625.400000006","null","","<p></p>","null","rating","dct","repulsion_1","2","microwave ovens","null","null","null","null","null","null","1","","","","","","","","","",""
"","","","","","rating_trial","survey-html-form","52","992423","0.0-3.0-1.24","194","1","2025-04-14 14:45:23","bb671e3ae32f654b8954ea4c4635f915","","Mozilla/5.0 (Macintosh; Intel Mac OS X 10_15_7) AppleWebKit/537.36 (KHTML, like Gecko) Chrome/135.0.0.0 Safari/537.36","Macintosh","Chrome","135.0.0.0","OS X","10_15_7","https://hz8g1ckzuq.cognition.run/","en-US,en;q=0.9","1jugcgcvorm6qrk","41","[""White""]","No","Male","2726625.400000006","12872","","","{""price_1"":""389"",""price_2"":""325"",""price_3"":""399""}","rating","dct","repulsion_1","2","microwave ovens","null","null","null","null","null","null","1","30","40","25","100","90","100","Warranty","Cooking power","",""
"","","","","","rating_trial_setup","html-keyboard-response","53","992727","0.0-3.0-0.25","194","1","2025-04-14 14:45:23","bb671e3ae32f654b8954ea4c4635f915","","Mozilla/5.0 (Macintosh; Intel Mac OS X 10_15_7) AppleWebKit/537.36 (KHTML, like Gecko) Chrome/135.0.0.0 Safari/537.36","Macintosh","Chrome","135.0.0.0","OS X","10_15_7","https://hz8g1ckzuq.cognition.run/","en-US,en;q=0.9","1jugcgcvorm6qrk","41","[""White""]","No","Male","2726625.400000006","null","","<p></p>","null","rating","wwb","catch","null","televisions","50","65","10","25","50","20","1","","","","","","","","","",""
"","","","","","rating_trial","survey-html-form","54","1008741","0.0-3.0-1.25","194","1","2025-04-14 14:45:23","bb671e3ae32f654b8954ea4c4635f915","","Mozilla/5.0 (Macintosh; Intel Mac OS X 10_15_7) AppleWebKit/537.36 (KHTML, like Gecko) Chrome/135.0.0.0 Safari/537.36","Macintosh","Chrome","135.0.0.0","OS X","10_15_7","https://hz8g1ckzuq.cognition.run/","en-US,en;q=0.9","1jugcgcvorm6qrk","41","[""White""]","No","Male","2726625.400000006","16012","","","{""price_1"":""289"",""price_2"":""425"",""price_3"":""589""}","rating","wwb","catch","null","televisions","50","65","10","25","50","20","1","null","null","null","null","null","null","Screen size","Average lifespan","",""
"","","","","","rating_trial_setup","html-keyboard-response","55","1009044","0.0-3.0-0.26","194","1","2025-04-14 14:45:23","bb671e3ae32f654b8954ea4c4635f915","","Mozilla/5.0 (Macintosh; Intel Mac OS X 10_15_7) AppleWebKit/537.36 (KHTML, like Gecko) Chrome/135.0.0.0 Safari/537.36","Macintosh","Chrome","135.0.0.0","OS X","10_15_7","https://hz8g1ckzuq.cognition.run/","en-US,en;q=0.9","1jugcgcvorm6qrk","41","[""White""]","No","Male","2726625.400000006","null","","<p></p>","null","rating","ctd","attraction_2","2","televisions","null","null","null","null","null","null","2","","","","","","","","","",""
"","","","","","rating_trial","survey-html-form","56","1037795","0.0-3.0-1.26","194","1","2025-04-14 14:45:23","bb671e3ae32f654b8954ea4c4635f915","","Mozilla/5.0 (Macintosh; Intel Mac OS X 10_15_7) AppleWebKit/537.36 (KHTML, like Gecko) Chrome/135.0.0.0 Safari/537.36","Macintosh","Chrome","135.0.0.0","OS X","10_15_7","https://hz8g1ckzuq.cognition.run/","en-US,en;q=0.9","1jugcgcvorm6qrk","41","[""White""]","No","Male","2726625.400000006","28749","","","{""price_1"":""645"",""price_2"":""599"",""price_3"":""499""}","rating","ctd","attraction_2","2","televisions","null","null","null","null","null","null","2","50","60","40","60","50","60","Screen size","Average lifespan","",""
"","","","","","rating_trial_setup","html-keyboard-response","57","1038099","0.0-3.0-0.27","194","1","2025-04-14 14:45:23","bb671e3ae32f654b8954ea4c4635f915","","Mozilla/5.0 (Macintosh; Intel Mac OS X 10_15_7) AppleWebKit/537.36 (KHTML, like Gecko) Chrome/135.0.0.0 Safari/537.36","Macintosh","Chrome","135.0.0.0","OS X","10_15_7","https://hz8g1ckzuq.cognition.run/","en-US,en;q=0.9","1jugcgcvorm6qrk","41","[""White""]","No","Male","2726625.400000006","null","","<p></p>","null","rating","ctd","repulsion_2","2","televisions","null","null","null","null","null","null","1","","","","","","","","","",""
"","","","","","rating_trial","survey-html-form","58","1051350","0.0-3.0-1.27","194","1","2025-04-14 14:45:23","bb671e3ae32f654b8954ea4c4635f915","","Mozilla/5.0 (Macintosh; Intel Mac OS X 10_15_7) AppleWebKit/537.36 (KHTML, like Gecko) Chrome/135.0.0.0 Safari/537.36","Macintosh","Chrome","135.0.0.0","OS X","10_15_7","https://hz8g1ckzuq.cognition.run/","en-US,en;q=0.9","1jugcgcvorm6qrk","41","[""White""]","No","Male","2726625.400000006","13250","","","{""price_1"":""399"",""price_2"":""299"",""price_3"":""279""}","rating","ctd","repulsion_2","2","televisions","null","null","null","null","null","null","1","30","40","20","100","90","100","Screen size","Average lifespan","",""
"","","","","","rating_trial_setup","html-keyboard-response","59","1051653","0.0-3.0-0.28","194","1","2025-04-14 14:45:23","bb671e3ae32f654b8954ea4c4635f915","","Mozilla/5.0 (Macintosh; Intel Mac OS X 10_15_7) AppleWebKit/537.36 (KHTML, like Gecko) Chrome/135.0.0.0 Safari/537.36","Macintosh","Chrome","135.0.0.0","OS X","10_15_7","https://hz8g1ckzuq.cognition.run/","en-US,en;q=0.9","1jugcgcvorm6qrk","41","[""White""]","No","Male","2726625.400000006","null","","<p></p>","null","rating","cdt","repulsion_2","1","laptops","null","null","null","null","null","null","2","","","","","","","","","",""
"","","","","","rating_trial","survey-html-form","60","1073056","0.0-3.0-1.28","194","1","2025-04-14 14:45:23","bb671e3ae32f654b8954ea4c4635f915","","Mozilla/5.0 (Macintosh; Intel Mac OS X 10_15_7) AppleWebKit/537.36 (KHTML, like Gecko) Chrome/135.0.0.0 Safari/537.36","Macintosh","Chrome","135.0.0.0","OS X","10_15_7","https://hz8g1ckzuq.cognition.run/","en-US,en;q=0.9","1jugcgcvorm6qrk","41","[""White""]","No","Male","2726625.400000006","21401","","","{""price_1"":""1089"",""price_2"":""1049"",""price_3"":""1075""}","rating","cdt","repulsion_2","1","laptops","null","null","null","null","null","null","2","100","90","100","30","40","20","Processing speed","Memory (RAM)","",""
"","","","","","rating_trial_setup","html-keyboard-response","61","1073361","0.0-3.0-0.29","194","1","2025-04-14 14:45:23","bb671e3ae32f654b8954ea4c4635f915","","Mozilla/5.0 (Macintosh; Intel Mac OS X 10_15_7) AppleWebKit/537.36 (KHTML, like Gecko) Chrome/135.0.0.0 Safari/537.36","Macintosh","Chrome","135.0.0.0","OS X","10_15_7","https://hz8g1ckzuq.cognition.run/","en-US,en;q=0.9","1jugcgcvorm6qrk","41","[""White""]","No","Male","2726625.400000006","null","","<p></p>","null","rating","dtc","repulsion_2","1","microwave ovens","null","null","null","null","null","null","2","","","","","","","","","",""
"","","","","","rating_trial","survey-html-form","62","1083088","0.0-3.0-1.29","194","1","2025-04-14 14:45:23","bb671e3ae32f654b8954ea4c4635f915","","Mozilla/5.0 (Macintosh; Intel Mac OS X 10_15_7) AppleWebKit/537.36 (KHTML, like Gecko) Chrome/135.0.0.0 Safari/537.36","Macintosh","Chrome","135.0.0.0","OS X","10_15_7","https://hz8g1ckzuq.cognition.run/","en-US,en;q=0.9","1jugcgcvorm6qrk","41","[""White""]","No","Male","2726625.400000006","9725","","","{""price_1"":""199"",""price_2"":""249"",""price_3"":""279""}","rating","dtc","repulsion_2","1","microwave ovens","null","null","null","null","null","null","2","100","90","100","30","40","20","Warranty","Cooking power","",""
"","","","","","rating_trial_setup","html-keyboard-response","63","1083391","0.0-3.0-0.30","194","1","2025-04-14 14:45:23","bb671e3ae32f654b8954ea4c4635f915","","Mozilla/5.0 (Macintosh; Intel Mac OS X 10_15_7) AppleWebKit/537.36 (KHTML, like Gecko) Chrome/135.0.0.0 Safari/537.36","Macintosh","Chrome","135.0.0.0","OS X","10_15_7","https://hz8g1ckzuq.cognition.run/","en-US,en;q=0.9","1jugcgcvorm6qrk","41","[""White""]","No","Male","2726625.400000006","null","","<p></p>","null","rating","tdc","attraction_2","2","washing machines","null","null","null","null","null","null","1","","","","","","","","","",""
"","","","","","rating_trial","survey-html-form","64","1100268","0.0-3.0-1.30","194","1","2025-04-14 14:45:23","bb671e3ae32f654b8954ea4c4635f915","","Mozilla/5.0 (Macintosh; Intel Mac OS X 10_15_7) AppleWebKit/537.36 (KHTML, like Gecko) Chrome/135.0.0.0 Safari/537.36","Macintosh","Chrome","135.0.0.0","OS X","10_15_7","https://hz8g1ckzuq.cognition.run/","en-US,en;q=0.9","1jugcgcvorm6qrk","41","[""White""]","No","Male","2726625.400000006","16874","","","{""price_1"":""589"",""price_2"":""579"",""price_3"":""649""}","rating","tdc","attraction_2","2","washing machines","null","null","null","null","null","null","1","50","60","40","60","50","60","Average lifespan","Energy savings","",""
"","","","","","rating_trial_setup","html-keyboard-response","65","1100574","0.0-3.0-0.31","194","1","2025-04-14 14:45:23","bb671e3ae32f654b8954ea4c4635f915","","Mozilla/5.0 (Macintosh; Intel Mac OS X 10_15_7) AppleWebKit/537.36 (KHTML, like Gecko) Chrome/135.0.0.0 Safari/537.36","Macintosh","Chrome","135.0.0.0","OS X","10_15_7","https://hz8g1ckzuq.cognition.run/","en-US,en;q=0.9","1jugcgcvorm6qrk","41","[""White""]","No","Male","2726625.400000006","null","","<p></p>","null","rating","dtc","attraction_2","1","televisions","null","null","null","null","null","null","1","","","","","","","","","",""
"","","","","","rating_trial","survey-html-form","66","1120888","0.0-3.0-1.31","194","1","2025-04-14 14:45:23","bb671e3ae32f654b8954ea4c4635f915","","Mozilla/5.0 (Macintosh; Intel Mac OS X 10_15_7) AppleWebKit/537.36 (KHTML, like Gecko) Chrome/135.0.0.0 Safari/537.36","Macintosh","Chrome","135.0.0.0","OS X","10_15_7","https://hz8g1ckzuq.cognition.run/","en-US,en;q=0.9","1jugcgcvorm6qrk","41","[""White""]","No","Male","2726625.400000006","20312","","","{""price_1"":""589"",""price_2"":""635"",""price_3"":""499""}","rating","dtc","attraction_2","1","televisions","null","null","null","null","null","null","1","60","50","60","50","60","40","Screen size","Average lifespan","",""
"","","","","","rating_trial_setup","html-keyboard-response","67","1121191","0.0-3.0-0.32","194","1","2025-04-14 14:45:23","bb671e3ae32f654b8954ea4c4635f915","","Mozilla/5.0 (Macintosh; Intel Mac OS X 10_15_7) AppleWebKit/537.36 (KHTML, like Gecko) Chrome/135.0.0.0 Safari/537.36","Macintosh","Chrome","135.0.0.0","OS X","10_15_7","https://hz8g1ckzuq.cognition.run/","en-US,en;q=0.9","1jugcgcvorm6qrk","41","[""White""]","No","Male","2726625.400000006","null","","<p></p>","null","rating","tcd","attraction_1","1","microwave ovens","null","null","null","null","null","null","2","","","","","","","","","",""
"","","","","","rating_trial","survey-html-form","68","1134070","0.0-3.0-1.32","194","1","2025-04-14 14:45:23","bb671e3ae32f654b8954ea4c4635f915","","Mozilla/5.0 (Macintosh; Intel Mac OS X 10_15_7) AppleWebKit/537.36 (KHTML, like Gecko) Chrome/135.0.0.0 Safari/537.36","Macintosh","Chrome","135.0.0.0","OS X","10_15_7","https://hz8g1ckzuq.cognition.run/","en-US,en;q=0.9","1jugcgcvorm6qrk","41","[""White""]","No","Male","2726625.400000006","12876","","","{""price_1"":""329"",""price_2"":""389"",""price_3"":""299""}","rating","tcd","attraction_1","1","microwave ovens","null","null","null","null","null","null","2","60","50","60","50","60","45","Warranty","Cooking power","",""
"","","","","","rating_trial_setup","html-keyboard-response","69","1134374","0.0-3.0-0.33","194","1","2025-04-14 14:45:23","bb671e3ae32f654b8954ea4c4635f915","","Mozilla/5.0 (Macintosh; Intel Mac OS X 10_15_7) AppleWebKit/537.36 (KHTML, like Gecko) Chrome/135.0.0.0 Safari/537.36","Macintosh","Chrome","135.0.0.0","OS X","10_15_7","https://hz8g1ckzuq.cognition.run/","en-US,en;q=0.9","1jugcgcvorm6qrk","41","[""White""]","No","Male","2726625.400000006","null","","<p></p>","null","rating","wbw","catch","null","laptops","60","95","25","5","10","10","2","","","","","","","","","",""
"","","","","","rating_trial","survey-html-form","70","1147500","0.0-3.0-1.33","194","1","2025-04-14 14:45:23","bb671e3ae32f654b8954ea4c4635f915","","Mozilla/5.0 (Macintosh; Intel Mac OS X 10_15_7) AppleWebKit/537.36 (KHTML, like Gecko) Chrome/135.0.0.0 Safari/537.36","Macintosh","Chrome","135.0.0.0","OS X","10_15_7","https://hz8g1ckzuq.cognition.run/","en-US,en;q=0.9","1jugcgcvorm6qrk","41","[""White""]","No","Male","2726625.400000006","13124","","","{""price_1"":""699"",""price_2"":""1299"",""price_3"":""689""}","rating","wbw","catch","null","laptops","60","95","25","5","10","10","2","null","null","null","null","null","null","Processing speed","Memory (RAM)","",""
"","","","","","rating_trial_setup","html-keyboard-response","71","1147804","0.0-3.0-0.34","194","1","2025-04-14 14:45:23","bb671e3ae32f654b8954ea4c4635f915","","Mozilla/5.0 (Macintosh; Intel Mac OS X 10_15_7) AppleWebKit/537.36 (KHTML, like Gecko) Chrome/135.0.0.0 Safari/537.36","Macintosh","Chrome","135.0.0.0","OS X","10_15_7","https://hz8g1ckzuq.cognition.run/","en-US,en;q=0.9","1jugcgcvorm6qrk","41","[""White""]","No","Male","2726625.400000006","null","","<p></p>","null","rating","ctd","repulsion_1","2","laptops","null","null","null","null","null","null","1","","","","","","","","","",""
"","","","","","rating_trial","survey-html-form","72","1163961","0.0-3.0-1.34","194","1","2025-04-14 14:45:23","bb671e3ae32f654b8954ea4c4635f915","","Mozilla/5.0 (Macintosh; Intel Mac OS X 10_15_7) AppleWebKit/537.36 (KHTML, like Gecko) Chrome/135.0.0.0 Safari/537.36","Macintosh","Chrome","135.0.0.0","OS X","10_15_7","https://hz8g1ckzuq.cognition.run/","en-US,en;q=0.9","1jugcgcvorm6qrk","41","[""White""]","No","Male","2726625.400000006","16155","","","{""price_1"":""999"",""price_2"":""1025"",""price_3"":""979""}","rating","ctd","repulsion_1","2","laptops","null","null","null","null","null","null","1","30","40","25","100","90","100","Processing speed","Memory (RAM)","",""
"","","","","","rating_trial_setup","html-keyboard-response","73","1164265","0.0-3.0-0.35","194","1","2025-04-14 14:45:23","bb671e3ae32f654b8954ea4c4635f915","","Mozilla/5.0 (Macintosh; Intel Mac OS X 10_15_7) AppleWebKit/537.36 (KHTML, like Gecko) Chrome/135.0.0.0 Safari/537.36","Macintosh","Chrome","135.0.0.0","OS X","10_15_7","https://hz8g1ckzuq.cognition.run/","en-US,en;q=0.9","1jugcgcvorm6qrk","41","[""White""]","No","Male","2726625.400000006","null","","<p></p>","null","rating","dtc","repulsion_2","1","televisions","null","null","null","null","null","null","1","","","","","","","","","",""
"","","","","","rating_trial","survey-html-form","74","2069554","0.0-3.0-1.35","194","1","2025-04-14 14:45:23","bb671e3ae32f654b8954ea4c4635f915","","Mozilla/5.0 (Macintosh; Intel Mac OS X 10_15_7) AppleWebKit/537.36 (KHTML, like Gecko) Chrome/135.0.0.0 Safari/537.36","Macintosh","Chrome","135.0.0.0","OS X","10_15_7","https://hz8g1ckzuq.cognition.run/","en-US,en;q=0.9","1jugcgcvorm6qrk","41","[""White""]","No","Male","2726625.400000006","905306","","","{""price_1"":""899"",""price_2"":""949"",""price_3"":""849""}","rating","dtc","repulsion_2","1","televisions","null","null","null","null","null","null","1","100","90","100","30","40","20","Screen size","Average lifespan","",""
"","","","","","rating_trial_setup","html-keyboard-response","75","2069858","0.0-3.0-0.36","194","1","2025-04-14 14:45:23","bb671e3ae32f654b8954ea4c4635f915","","Mozilla/5.0 (Macintosh; Intel Mac OS X 10_15_7) AppleWebKit/537.36 (KHTML, like Gecko) Chrome/135.0.0.0 Safari/537.36","Macintosh","Chrome","135.0.0.0","OS X","10_15_7","https://hz8g1ckzuq.cognition.run/","en-US,en;q=0.9","1jugcgcvorm6qrk","41","[""White""]","No","Male","2726625.400000006","null","","<p></p>","null","rating","tdc","attraction_1","1","washing machines","null","null","null","null","null","null","1","","","","","","","","","",""
"","","","","","rating_trial","survey-html-form","76","2311940","0.0-3.0-1.36","194","1","2025-04-14 14:45:23","bb671e3ae32f654b8954ea4c4635f915","","Mozilla/5.0 (Macintosh; Intel Mac OS X 10_15_7) AppleWebKit/537.36 (KHTML, like Gecko) Chrome/135.0.0.0 Safari/537.36","Macintosh","Chrome","135.0.0.0","OS X","10_15_7","https://hz8g1ckzuq.cognition.run/","en-US,en;q=0.9","1jugcgcvorm6qrk","41","[""White""]","No","Male","2726625.400000006","242084","","","{""price_1"":""625"",""price_2"":""599"",""price_3"":""625""}","rating","tdc","attraction_1","1","washing machines","null","null","null","null","null","null","1","60","50","60","50","60","45","Average lifespan","Energy savings","",""
"","","","","","rating_trial_setup","html-keyboard-response","77","2312245","0.0-3.0-0.37","194","1","2025-04-14 14:45:23","bb671e3ae32f654b8954ea4c4635f915","","Mozilla/5.0 (Macintosh; Intel Mac OS X 10_15_7) AppleWebKit/537.36 (KHTML, like Gecko) Chrome/135.0.0.0 Safari/537.36","Macintosh","Chrome","135.0.0.0","OS X","10_15_7","https://hz8g1ckzuq.cognition.run/","en-US,en;q=0.9","1jugcgcvorm6qrk","41","[""White""]","No","Male","2726625.400000006","null","","<p></p>","null","rating","tdc","repulsion_1","1","laptops","null","null","null","null","null","null","2","","","","","","","","","",""
"","","","","","rating_trial","survey-html-form","78","2324578","0.0-3.0-1.37","194","1","2025-04-14 14:45:23","bb671e3ae32f654b8954ea4c4635f915","","Mozilla/5.0 (Macintosh; Intel Mac OS X 10_15_7) AppleWebKit/537.36 (KHTML, like Gecko) Chrome/135.0.0.0 Safari/537.36","Macintosh","Chrome","135.0.0.0","OS X","10_15_7","https://hz8g1ckzuq.cognition.run/","en-US,en;q=0.9","1jugcgcvorm6qrk","41","[""White""]","No","Male","2726625.400000006","12331","","","{""price_1"":""999"",""price_2"":""925"",""price_3"":""949""}","rating","tdc","repulsion_1","1","laptops","null","null","null","null","null","null","2","100","90","100","30","40","25","Processing speed","Memory (RAM)","",""
"","","","","","rating_trial_setup","html-keyboard-response","79","2324882","0.0-3.0-0.38","194","1","2025-04-14 14:45:23","bb671e3ae32f654b8954ea4c4635f915","","Mozilla/5.0 (Macintosh; Intel Mac OS X 10_15_7) AppleWebKit/537.36 (KHTML, like Gecko) Chrome/135.0.0.0 Safari/537.36","Macintosh","Chrome","135.0.0.0","OS X","10_15_7","https://hz8g1ckzuq.cognition.run/","en-US,en;q=0.9","1jugcgcvorm6qrk","41","[""White""]","No","Male","2726625.400000006","null","","<p></p>","null","rating","dct","attraction_2","1","washing machines","null","null","null","null","null","null","1","","","","","","","","","",""
"","","","","","rating_trial","survey-html-form","80","2337620","0.0-3.0-1.38","194","1","2025-04-14 14:45:23","bb671e3ae32f654b8954ea4c4635f915","","Mozilla/5.0 (Macintosh; Intel Mac OS X 10_15_7) AppleWebKit/537.36 (KHTML, like Gecko) Chrome/135.0.0.0 Safari/537.36","Macintosh","Chrome","135.0.0.0","OS X","10_15_7","https://hz8g1ckzuq.cognition.run/","en-US,en;q=0.9","1jugcgcvorm6qrk","41","[""White""]","No","Male","2726625.400000006","12736","","","{""price_1"":""599"",""price_2"":""679"",""price_3"":""699""}","rating","dct","attraction_2","1","washing machines","null","null","null","null","null","null","1","60","50","60","50","60","40","Average lifespan","Energy savings","",""
"","","","","","rating_trial_setup","html-keyboard-response","81","2337924","0.0-3.0-0.39","194","1","2025-04-14 14:45:23","bb671e3ae32f654b8954ea4c4635f915","","Mozilla/5.0 (Macintosh; Intel Mac OS X 10_15_7) AppleWebKit/537.36 (KHTML, like Gecko) Chrome/135.0.0.0 Safari/537.36","Macintosh","Chrome","135.0.0.0","OS X","10_15_7","https://hz8g1ckzuq.cognition.run/","en-US,en;q=0.9","1jugcgcvorm6qrk","41","[""White""]","No","Male","2726625.400000006","null","","<p></p>","null","rating","cdt","repulsion_1","2","washing machines","null","null","null","null","null","null","2","","","","","","","","","",""
"","","","","","rating_trial","survey-html-form","82","2351950","0.0-3.0-1.39","194","1","2025-04-14 14:45:23","bb671e3ae32f654b8954ea4c4635f915","","Mozilla/5.0 (Macintosh; Intel Mac OS X 10_15_7) AppleWebKit/537.36 (KHTML, like Gecko) Chrome/135.0.0.0 Safari/537.36","Macintosh","Chrome","135.0.0.0","OS X","10_15_7","https://hz8g1ckzuq.cognition.run/","en-US,en;q=0.9","1jugcgcvorm6qrk","41","[""White""]","No","Male","2726625.400000006","14023","","","{""price_1"":""599"",""price_2"":""579"",""price_3"":""625""}","rating","cdt","repulsion_1","2","washing machines","null","null","null","null","null","null","2","30","40","25","100","90","100","Average lifespan","Energy savings","",""
"","","","","","","instructions","83","2367380","0.0-4.0","194","1","2025-04-14 14:45:23","bb671e3ae32f654b8954ea4c4635f915","","Mozilla/5.0 (Macintosh; Intel Mac OS X 10_15_7) AppleWebKit/537.36 (KHTML, like Gecko) Chrome/135.0.0.0 Safari/537.36","Macintosh","Chrome","135.0.0.0","OS X","10_15_7","https://hz8g1ckzuq.cognition.run/","en-US,en;q=0.9","1jugcgcvorm6qrk","41","[""White""]","No","Male","2726625.400000006","15428","[{""page_index"":0,""viewing_time"":1129},{""page_index"":1,""viewing_time"":1047},{""page_index"":2,""viewing_time"":1930},{""page_index"":3,""viewing_time"":1202},{""page_index"":4,""viewing_time"":2044},{""page_index"":5,""viewing_time"":2246},{""page_index"":6,""viewing_time"":3542},{""page_index"":7,""viewing_time"":2287}]","","","","","","","","","","","","","","","","","","","","","","","",""
"","","","","","choice_trial_setup","html-keyboard-response","84","2367686","0.0-5.0-0.0","194","1","2025-04-14 14:45:23","bb671e3ae32f654b8954ea4c4635f915","","Mozilla/5.0 (Macintosh; Intel Mac OS X 10_15_7) AppleWebKit/537.36 (KHTML, like Gecko) Chrome/135.0.0.0 Safari/537.36","Macintosh","Chrome","135.0.0.0","OS X","10_15_7","https://hz8g1ckzuq.cognition.run/","en-US,en;q=0.9","1jugcgcvorm6qrk","41","[""White""]","No","Male","2726625.400000006","null","","<p></p>","null","choice","cdt","attraction_2","1","washing machines","null","null","null","null","null","null","1","","","","","","","","","",""
"","","","","","choice_trial","survey-html-form","85","2376501","0.0-5.0-1.0","194","1","2025-04-14 14:45:23","bb671e3ae32f654b8954ea4c4635f915","","Mozilla/5.0 (Macintosh; Intel Mac OS X 10_15_7) AppleWebKit/537.36 (KHTML, like Gecko) Chrome/135.0.0.0 Safari/537.36","Macintosh","Chrome","135.0.0.0","OS X","10_15_7","https://hz8g1ckzuq.cognition.run/","en-US,en;q=0.9","1jugcgcvorm6qrk","41","[""White""]","No","Male","2726625.400000006","8808","","","{""product_choice"":""C""}","choice","cdt","attraction_2","1","washing machines","null","null","null","null","null","null","1","60","50","60","50","60","40","Average lifespan","Energy savings","",""
"","","","","","choice_trial_setup","html-keyboard-response","86","2376807","0.0-5.0-0.1","194","1","2025-04-14 14:45:23","bb671e3ae32f654b8954ea4c4635f915","","Mozilla/5.0 (Macintosh; Intel Mac OS X 10_15_7) AppleWebKit/537.36 (KHTML, like Gecko) Chrome/135.0.0.0 Safari/537.36","Macintosh","Chrome","135.0.0.0","OS X","10_15_7","https://hz8g1ckzuq.cognition.run/","en-US,en;q=0.9","1jugcgcvorm6qrk","41","[""White""]","No","Male","2726625.400000006","null","","<p></p>","null","choice","dct","attraction_2","1","microwave ovens","null","null","null","null","null","null","2","","","","","","","","","",""
"","","","","","choice_trial","survey-html-form","87","2380234","0.0-5.0-1.1","194","1","2025-04-14 14:45:23","bb671e3ae32f654b8954ea4c4635f915","","Mozilla/5.0 (Macintosh; Intel Mac OS X 10_15_7) AppleWebKit/537.36 (KHTML, like Gecko) Chrome/135.0.0.0 Safari/537.36","Macintosh","Chrome","135.0.0.0","OS X","10_15_7","https://hz8g1ckzuq.cognition.run/","en-US,en;q=0.9","1jugcgcvorm6qrk","41","[""White""]","No","Male","2726625.400000006","3420","","","{""product_choice"":""B""}","choice","dct","attraction_2","1","microwave ovens","null","null","null","null","null","null","2","60","50","60","50","60","40","Warranty","Cooking power","",""
"","","","","","choice_trial_setup","html-keyboard-response","88","2380542","0.0-5.0-0.2","194","1","2025-04-14 14:45:23","bb671e3ae32f654b8954ea4c4635f915","","Mozilla/5.0 (Macintosh; Intel Mac OS X 10_15_7) AppleWebKit/537.36 (KHTML, like Gecko) Chrome/135.0.0.0 Safari/537.36","Macintosh","Chrome","135.0.0.0","OS X","10_15_7","https://hz8g1ckzuq.cognition.run/","en-US,en;q=0.9","1jugcgcvorm6qrk","41","[""White""]","No","Male","2726625.400000006","null","","<p></p>","null","choice","tcd","attraction_1","1","televisions","null","null","null","null","null","null","1","","","","","","","","","",""
"","","","","","choice_trial","survey-html-form","89","2384378","0.0-5.0-1.2","194","1","2025-04-14 14:45:23","bb671e3ae32f654b8954ea4c4635f915","","Mozilla/5.0 (Macintosh; Intel Mac OS X 10_15_7) AppleWebKit/537.36 (KHTML, like Gecko) Chrome/135.0.0.0 Safari/537.36","Macintosh","Chrome","135.0.0.0","OS X","10_15_7","https://hz8g1ckzuq.cognition.run/","en-US,en;q=0.9","1jugcgcvorm6qrk","41","[""White""]","No","Male","2726625.400000006","3831","","","{""product_choice"":""A""}","choice","tcd","attraction_1","1","televisions","null","null","null","null","null","null","1","60","50","60","50","60","45","Screen size","Average lifespan","",""
"","","","","","choice_trial_setup","html-keyboard-response","90","2384685","0.0-5.0-0.3","194","1","2025-04-14 14:45:23","bb671e3ae32f654b8954ea4c4635f915","","Mozilla/5.0 (Macintosh; Intel Mac OS X 10_15_7) AppleWebKit/537.36 (KHTML, like Gecko) Chrome/135.0.0.0 Safari/537.36","Macintosh","Chrome","135.0.0.0","OS X","10_15_7","https://hz8g1ckzuq.cognition.run/","en-US,en;q=0.9","1jugcgcvorm6qrk","41","[""White""]","No","Male","2726625.400000006","null","","<p></p>","null","choice","dtc","attraction_1","2","laptops","null","null","null","null","null","null","2","","","","","","","","","",""
"","","","","","choice_trial","survey-html-form","91","2392200","0.0-5.0-1.3","194","1","2025-04-14 14:45:23","bb671e3ae32f654b8954ea4c4635f915","","Mozilla/5.0 (Macintosh; Intel Mac OS X 10_15_7) AppleWebKit/537.36 (KHTML, like Gecko) Chrome/135.0.0.0 Safari/537.36","Macintosh","Chrome","135.0.0.0","OS X","10_15_7","https://hz8g1ckzuq.cognition.run/","en-US,en;q=0.9","1jugcgcvorm6qrk","41","[""White""]","No","Male","2726625.400000006","7509","","","{""product_choice"":""C""}","choice","dtc","attraction_1","2","laptops","null","null","null","null","null","null","2","50","60","45","60","50","60","Processing speed","Memory (RAM)","",""
"","","","","","choice_trial_setup","html-keyboard-response","92","2392505","0.0-5.0-0.4","194","1","2025-04-14 14:45:23","bb671e3ae32f654b8954ea4c4635f915","","Mozilla/5.0 (Macintosh; Intel Mac OS X 10_15_7) AppleWebKit/537.36 (KHTML, like Gecko) Chrome/135.0.0.0 Safari/537.36","Macintosh","Chrome","135.0.0.0","OS X","10_15_7","https://hz8g1ckzuq.cognition.run/","en-US,en;q=0.9","1jugcgcvorm6qrk","41","[""White""]","No","Male","2726625.400000006","null","","<p></p>","null","choice","bww","catch","null","microwave ovens","80","85","35","50","35","50","2","","","","","","","","","",""
"","","","","","choice_trial","survey-html-form","93","2395978","0.0-5.0-1.4","194","1","2025-04-14 14:45:23","bb671e3ae32f654b8954ea4c4635f915","","Mozilla/5.0 (Macintosh; Intel Mac OS X 10_15_7) AppleWebKit/537.36 (KHTML, like Gecko) Chrome/135.0.0.0 Safari/537.36","Macintosh","Chrome","135.0.0.0","OS X","10_15_7","https://hz8g1ckzuq.cognition.run/","en-US,en;q=0.9","1jugcgcvorm6qrk","41","[""White""]","No","Male","2726625.400000006","3463","","","{""product_choice"":""A""}","choice","bww","catch","null","microwave ovens","80","85","35","50","35","50","2","null","null","null","null","null","null","Warranty","Cooking power","",""
"","","","","","choice_trial_setup","html-keyboard-response","94","2396285","0.0-5.0-0.5","194","1","2025-04-14 14:45:23","bb671e3ae32f654b8954ea4c4635f915","","Mozilla/5.0 (Macintosh; Intel Mac OS X 10_15_7) AppleWebKit/537.36 (KHTML, like Gecko) Chrome/135.0.0.0 Safari/537.36","Macintosh","Chrome","135.0.0.0","OS X","10_15_7","https://hz8g1ckzuq.cognition.run/","en-US,en;q=0.9","1jugcgcvorm6qrk","41","[""White""]","No","Male","2726625.400000006","null","","<p></p>","null","choice","tdc","repulsion_2","1","washing machines","null","null","null","null","null","null","2","","","","","","","","","",""
"","","","","","choice_trial","survey-html-form","95","2403057","0.0-5.0-1.5","194","1","2025-04-14 14:45:23","bb671e3ae32f654b8954ea4c4635f915","","Mozilla/5.0 (Macintosh; Intel Mac OS X 10_15_7) AppleWebKit/537.36 (KHTML, like Gecko) Chrome/135.0.0.0 Safari/537.36","Macintosh","Chrome","135.0.0.0","OS X","10_15_7","https://hz8g1ckzuq.cognition.run/","en-US,en;q=0.9","1jugcgcvorm6qrk","41","[""White""]","No","Male","2726625.400000006","6766","","","{""product_choice"":""A""}","choice","tdc","repulsion_2","1","washing machines","null","null","null","null","null","null","2","100","90","100","30","40","20","Average lifespan","Energy savings","",""
"","","","","","choice_trial_setup","html-keyboard-response","96","2403364","0.0-5.0-0.6","194","1","2025-04-14 14:45:23","bb671e3ae32f654b8954ea4c4635f915","","Mozilla/5.0 (Macintosh; Intel Mac OS X 10_15_7) AppleWebKit/537.36 (KHTML, like Gecko) Chrome/135.0.0.0 Safari/537.36","Macintosh","Chrome","135.0.0.0","OS X","10_15_7","https://hz8g1ckzuq.cognition.run/","en-US,en;q=0.9","1jugcgcvorm6qrk","41","[""White""]","No","Male","2726625.400000006","null","","<p></p>","null","choice","bww","catch","null","washing machines","90","55","40","10","40","5","1","","","","","","","","","",""
"","","","","","choice_trial","survey-html-form","97","2406289","0.0-5.0-1.6","194","1","2025-04-14 14:45:23","bb671e3ae32f654b8954ea4c4635f915","","Mozilla/5.0 (Macintosh; Intel Mac OS X 10_15_7) AppleWebKit/537.36 (KHTML, like Gecko) Chrome/135.0.0.0 Safari/537.36","Macintosh","Chrome","135.0.0.0","OS X","10_15_7","https://hz8g1ckzuq.cognition.run/","en-US,en;q=0.9","1jugcgcvorm6qrk","41","[""White""]","No","Male","2726625.400000006","2919","","","{""product_choice"":""A""}","choice","bww","catch","null","washing machines","90","55","40","10","40","5","1","null","null","null","null","null","null","Average lifespan","Energy savings","",""
"","","","","","choice_trial_setup","html-keyboard-response","98","2406597","0.0-5.0-0.7","194","1","2025-04-14 14:45:23","bb671e3ae32f654b8954ea4c4635f915","","Mozilla/5.0 (Macintosh; Intel Mac OS X 10_15_7) AppleWebKit/537.36 (KHTML, like Gecko) Chrome/135.0.0.0 Safari/537.36","Macintosh","Chrome","135.0.0.0","OS X","10_15_7","https://hz8g1ckzuq.cognition.run/","en-US,en;q=0.9","1jugcgcvorm6qrk","41","[""White""]","No","Male","2726625.400000006","null","","<p></p>","null","choice","tdc","attraction_1","2","televisions","null","null","null","null","null","null","1","","","","","","","","","",""
"","","","","","choice_trial","survey-html-form","99","2411199","0.0-5.0-1.7","194","1","2025-04-14 14:45:23","bb671e3ae32f654b8954ea4c4635f915","","Mozilla/5.0 (Macintosh; Intel Mac OS X 10_15_7) AppleWebKit/537.36 (KHTML, like Gecko) Chrome/135.0.0.0 Safari/537.36","Macintosh","Chrome","135.0.0.0","OS X","10_15_7","https://hz8g1ckzuq.cognition.run/","en-US,en;q=0.9","1jugcgcvorm6qrk","41","[""White""]","No","Male","2726625.400000006","4596","","","{""product_choice"":""C""}","choice","tdc","attraction_1","2","televisions","null","null","null","null","null","null","1","50","60","45","60","50","60","Screen size","Average lifespan","",""
"","","","","","choice_trial_setup","html-keyboard-response","100","2411505","0.0-5.0-0.8","194","1","2025-04-14 14:45:23","bb671e3ae32f654b8954ea4c4635f915","","Mozilla/5.0 (Macintosh; Intel Mac OS X 10_15_7) AppleWebKit/537.36 (KHTML, like Gecko) Chrome/135.0.0.0 Safari/537.36","Macintosh","Chrome","135.0.0.0","OS X","10_15_7","https://hz8g1ckzuq.cognition.run/","en-US,en;q=0.9","1jugcgcvorm6qrk","41","[""White""]","No","Male","2726625.400000006","null","","<p></p>","null","choice","dct","attraction_2","2","televisions","null","null","null","null","null","null","1","","","","","","","","","",""
"","","","","","choice_trial","survey-html-form","101","2499651","0.0-5.0-1.8","194","1","2025-04-14 14:45:23","bb671e3ae32f654b8954ea4c4635f915","","Mozilla/5.0 (Macintosh; Intel Mac OS X 10_15_7) AppleWebKit/537.36 (KHTML, like Gecko) Chrome/135.0.0.0 Safari/537.36","Macintosh","Chrome","135.0.0.0","OS X","10_15_7","https://hz8g1ckzuq.cognition.run/","en-US,en;q=0.9","1jugcgcvorm6qrk","41","[""White""]","No","Male","2726625.400000006","88141","","","{""product_choice"":""B""}","choice","dct","attraction_2","2","televisions","null","null","null","null","null","null","1","50","60","40","60","50","60","Screen size","Average lifespan","",""
"","","","","","choice_trial_setup","html-keyboard-response","102","2499957","0.0-5.0-0.9","194","1","2025-04-14 14:45:23","bb671e3ae32f654b8954ea4c4635f915","","Mozilla/5.0 (Macintosh; Intel Mac OS X 10_15_7) AppleWebKit/537.36 (KHTML, like Gecko) Chrome/135.0.0.0 Safari/537.36","Macintosh","Chrome","135.0.0.0","OS X","10_15_7","https://hz8g1ckzuq.cognition.run/","en-US,en;q=0.9","1jugcgcvorm6qrk","41","[""White""]","No","Male","2726625.400000006","null","","<p></p>","null","choice","dtc","attraction_1","1","laptops","null","null","null","null","null","null","2","","","","","","","","","",""
"","","","","","choice_trial","survey-html-form","103","2506755","0.0-5.0-1.9","194","1","2025-04-14 14:45:23","bb671e3ae32f654b8954ea4c4635f915","","Mozilla/5.0 (Macintosh; Intel Mac OS X 10_15_7) AppleWebKit/537.36 (KHTML, like Gecko) Chrome/135.0.0.0 Safari/537.36","Macintosh","Chrome","135.0.0.0","OS X","10_15_7","https://hz8g1ckzuq.cognition.run/","en-US,en;q=0.9","1jugcgcvorm6qrk","41","[""White""]","No","Male","2726625.400000006","6791","","","{""product_choice"":""B""}","choice","dtc","attraction_1","1","laptops","null","null","null","null","null","null","2","60","50","60","50","60","45","Processing speed","Memory (RAM)","",""
"","","","","","choice_trial_setup","html-keyboard-response","104","2507061","0.0-5.0-0.10","194","1","2025-04-14 14:45:23","bb671e3ae32f654b8954ea4c4635f915","","Mozilla/5.0 (Macintosh; Intel Mac OS X 10_15_7) AppleWebKit/537.36 (KHTML, like Gecko) Chrome/135.0.0.0 Safari/537.36","Macintosh","Chrome","135.0.0.0","OS X","10_15_7","https://hz8g1ckzuq.cognition.run/","en-US,en;q=0.9","1jugcgcvorm6qrk","41","[""White""]","No","Male","2726625.400000006","null","","<p></p>","null","choice","tdc","repulsion_1","2","microwave ovens","null","null","null","null","null","null","2","","","","","","","","","",""
"","","","","","choice_trial","survey-html-form","105","2514047","0.0-5.0-1.10","194","1","2025-04-14 14:45:23","bb671e3ae32f654b8954ea4c4635f915","","Mozilla/5.0 (Macintosh; Intel Mac OS X 10_15_7) AppleWebKit/537.36 (KHTML, like Gecko) Chrome/135.0.0.0 Safari/537.36","Macintosh","Chrome","135.0.0.0","OS X","10_15_7","https://hz8g1ckzuq.cognition.run/","en-US,en;q=0.9","1jugcgcvorm6qrk","41","[""White""]","No","Male","2726625.400000006","6979","","","{""product_choice"":""A""}","choice","tdc","repulsion_1","2","microwave ovens","null","null","null","null","null","null","2","30","40","25","100","90","100","Warranty","Cooking power","",""
"","","","","","choice_trial_setup","html-keyboard-response","106","2514353","0.0-5.0-0.11","194","1","2025-04-14 14:45:23","bb671e3ae32f654b8954ea4c4635f915","","Mozilla/5.0 (Macintosh; Intel Mac OS X 10_15_7) AppleWebKit/537.36 (KHTML, like Gecko) Chrome/135.0.0.0 Safari/537.36","Macintosh","Chrome","135.0.0.0","OS X","10_15_7","https://hz8g1ckzuq.cognition.run/","en-US,en;q=0.9","1jugcgcvorm6qrk","41","[""White""]","No","Male","2726625.400000006","null","","<p></p>","null","choice","dtc","repulsion_2","2","televisions","null","null","null","null","null","null","1","","","","","","","","","",""
"","","","","","choice_trial","survey-html-form","107","2519388","0.0-5.0-1.11","194","1","2025-04-14 14:45:23","bb671e3ae32f654b8954ea4c4635f915","","Mozilla/5.0 (Macintosh; Intel Mac OS X 10_15_7) AppleWebKit/537.36 (KHTML, like Gecko) Chrome/135.0.0.0 Safari/537.36","Macintosh","Chrome","135.0.0.0","OS X","10_15_7","https://hz8g1ckzuq.cognition.run/","en-US,en;q=0.9","1jugcgcvorm6qrk","41","[""White""]","No","Male","2726625.400000006","5028","","","{""product_choice"":""C""}","choice","dtc","repulsion_2","2","televisions","null","null","null","null","null","null","1","30","40","20","100","90","100","Screen size","Average lifespan","",""
"","","","","","choice_trial_setup","html-keyboard-response","108","2519695","0.0-5.0-0.12","194","1","2025-04-14 14:45:23","bb671e3ae32f654b8954ea4c4635f915","","Mozilla/5.0 (Macintosh; Intel Mac OS X 10_15_7) AppleWebKit/537.36 (KHTML, like Gecko) Chrome/135.0.0.0 Safari/537.36","Macintosh","Chrome","135.0.0.0","OS X","10_15_7","https://hz8g1ckzuq.cognition.run/","en-US,en;q=0.9","1jugcgcvorm6qrk","41","[""White""]","No","Male","2726625.400000006","null","","<p></p>","null","choice","ctd","attraction_1","2","microwave ovens","null","null","null","null","null","null","1","","","","","","","","","",""
"","","","","","choice_trial","survey-html-form","109","2525081","0.0-5.0-1.12","194","1","2025-04-14 14:45:23","bb671e3ae32f654b8954ea4c4635f915","","Mozilla/5.0 (Macintosh; Intel Mac OS X 10_15_7) AppleWebKit/537.36 (KHTML, like Gecko) Chrome/135.0.0.0 Safari/537.36","Macintosh","Chrome","135.0.0.0","OS X","10_15_7","https://hz8g1ckzuq.cognition.run/","en-US,en;q=0.9","1jugcgcvorm6qrk","41","[""White""]","No","Male","2726625.400000006","5379","","","{""product_choice"":""B""}","choice","ctd","attraction_1","2","microwave ovens","null","null","null","null","null","null","1","50","60","45","60","50","60","Warranty","Cooking power","",""
"","","","","","choice_trial_setup","html-keyboard-response","110","2525387","0.0-5.0-0.13","194","1","2025-04-14 14:45:23","bb671e3ae32f654b8954ea4c4635f915","","Mozilla/5.0 (Macintosh; Intel Mac OS X 10_15_7) AppleWebKit/537.36 (KHTML, like Gecko) Chrome/135.0.0.0 Safari/537.36","Macintosh","Chrome","135.0.0.0","OS X","10_15_7","https://hz8g1ckzuq.cognition.run/","en-US,en;q=0.9","1jugcgcvorm6qrk","41","[""White""]","No","Male","2726625.400000006","null","","<p></p>","null","choice","ctd","attraction_2","1","laptops","null","null","null","null","null","null","2","","","","","","","","","",""
"","","","","","choice_trial","survey-html-form","111","2531031","0.0-5.0-1.13","194","1","2025-04-14 14:45:23","bb671e3ae32f654b8954ea4c4635f915","","Mozilla/5.0 (Macintosh; Intel Mac OS X 10_15_7) AppleWebKit/537.36 (KHTML, like Gecko) Chrome/135.0.0.0 Safari/537.36","Macintosh","Chrome","135.0.0.0","OS X","10_15_7","https://hz8g1ckzuq.cognition.run/","en-US,en;q=0.9","1jugcgcvorm6qrk","41","[""White""]","No","Male","2726625.400000006","5637","","","{""product_choice"":""B""}","choice","ctd","attraction_2","1","laptops","null","null","null","null","null","null","2","60","50","60","50","60","40","Processing speed","Memory (RAM)","",""
"","","","","","choice_trial_setup","html-keyboard-response","112","2531339","0.0-5.0-0.14","194","1","2025-04-14 14:45:23","bb671e3ae32f654b8954ea4c4635f915","","Mozilla/5.0 (Macintosh; Intel Mac OS X 10_15_7) AppleWebKit/537.36 (KHTML, like Gecko) Chrome/135.0.0.0 Safari/537.36","Macintosh","Chrome","135.0.0.0","OS X","10_15_7","https://hz8g1ckzuq.cognition.run/","en-US,en;q=0.9","1jugcgcvorm6qrk","41","[""White""]","No","Male","2726625.400000006","null","","<p></p>","null","choice","dtc","attraction_1","1","washing machines","null","null","null","null","null","null","1","","","","","","","","","",""
"","","","","","choice_trial","survey-html-form","113","2537594","0.0-5.0-1.14","194","1","2025-04-14 14:45:23","bb671e3ae32f654b8954ea4c4635f915","","Mozilla/5.0 (Macintosh; Intel Mac OS X 10_15_7) AppleWebKit/537.36 (KHTML, like Gecko) Chrome/135.0.0.0 Safari/537.36","Macintosh","Chrome","135.0.0.0","OS X","10_15_7","https://hz8g1ckzuq.cognition.run/","en-US,en;q=0.9","1jugcgcvorm6qrk","41","[""White""]","No","Male","2726625.400000006","6247","","","{""product_choice"":""B""}","choice","dtc","attraction_1","1","washing machines","null","null","null","null","null","null","1","60","50","60","50","60","45","Average lifespan","Energy savings","",""
"","","","","","choice_trial_setup","html-keyboard-response","114","2537901","0.0-5.0-0.15","194","1","2025-04-14 14:45:23","bb671e3ae32f654b8954ea4c4635f915","","Mozilla/5.0 (Macintosh; Intel Mac OS X 10_15_7) AppleWebKit/537.36 (KHTML, like Gecko) Chrome/135.0.0.0 Safari/537.36","Macintosh","Chrome","135.0.0.0","OS X","10_15_7","https://hz8g1ckzuq.cognition.run/","en-US,en;q=0.9","1jugcgcvorm6qrk","41","[""White""]","No","Male","2726625.400000006","null","","<p></p>","null","choice","wwb","catch","null","televisions","50","60","25","45","25","20","1","","","","","","","","","",""
"","","","","","choice_trial","survey-html-form","115","2540475","0.0-5.0-1.15","194","1","2025-04-14 14:45:23","bb671e3ae32f654b8954ea4c4635f915","","Mozilla/5.0 (Macintosh; Intel Mac OS X 10_15_7) AppleWebKit/537.36 (KHTML, like Gecko) Chrome/135.0.0.0 Safari/537.36","Macintosh","Chrome","135.0.0.0","OS X","10_15_7","https://hz8g1ckzuq.cognition.run/","en-US,en;q=0.9","1jugcgcvorm6qrk","41","[""White""]","No","Male","2726625.400000006","2568","","","{""product_choice"":""C""}","choice","wwb","catch","null","televisions","50","60","25","45","25","20","1","null","null","null","null","null","null","Screen size","Average lifespan","",""
"","","","","","choice_trial_setup","html-keyboard-response","116","2540783","0.0-5.0-0.16","194","1","2025-04-14 14:45:23","bb671e3ae32f654b8954ea4c4635f915","","Mozilla/5.0 (Macintosh; Intel Mac OS X 10_15_7) AppleWebKit/537.36 (KHTML, like Gecko) Chrome/135.0.0.0 Safari/537.36","Macintosh","Chrome","135.0.0.0","OS X","10_15_7","https://hz8g1ckzuq.cognition.run/","en-US,en;q=0.9","1jugcgcvorm6qrk","41","[""White""]","No","Male","2726625.400000006","null","","<p></p>","null","choice","tcd","repulsion_1","1","washing machines","null","null","null","null","null","null","2","","","","","","","","","",""
"","","","","","choice_trial","survey-html-form","117","2547194","0.0-5.0-1.16","194","1","2025-04-14 14:45:23","bb671e3ae32f654b8954ea4c4635f915","","Mozilla/5.0 (Macintosh; Intel Mac OS X 10_15_7) AppleWebKit/537.36 (KHTML, like Gecko) Chrome/135.0.0.0 Safari/537.36","Macintosh","Chrome","135.0.0.0","OS X","10_15_7","https://hz8g1ckzuq.cognition.run/","en-US,en;q=0.9","1jugcgcvorm6qrk","41","[""White""]","No","Male","2726625.400000006","6404","","","{""product_choice"":""B""}","choice","tcd","repulsion_1","1","washing machines","null","null","null","null","null","null","2","100","90","100","30","40","25","Average lifespan","Energy savings","",""
"","","","","","choice_trial_setup","html-keyboard-response","118","2547501","0.0-5.0-0.17","194","1","2025-04-14 14:45:23","bb671e3ae32f654b8954ea4c4635f915","","Mozilla/5.0 (Macintosh; Intel Mac OS X 10_15_7) AppleWebKit/537.36 (KHTML, like Gecko) Chrome/135.0.0.0 Safari/537.36","Macintosh","Chrome","135.0.0.0","OS X","10_15_7","https://hz8g1ckzuq.cognition.run/","en-US,en;q=0.9","1jugcgcvorm6qrk","41","[""White""]","No","Male","2726625.400000006","null","","<p></p>","null","choice","ctd","repulsion_1","1","microwave ovens","null","null","null","null","null","null","1","","","","","","","","","",""
"","","","","","choice_trial","survey-html-form","119","2554781","0.0-5.0-1.17","194","1","2025-04-14 14:45:23","bb671e3ae32f654b8954ea4c4635f915","","Mozilla/5.0 (Macintosh; Intel Mac OS X 10_15_7) AppleWebKit/537.36 (KHTML, like Gecko) Chrome/135.0.0.0 Safari/537.36","Macintosh","Chrome","135.0.0.0","OS X","10_15_7","https://hz8g1ckzuq.cognition.run/","en-US,en;q=0.9","1jugcgcvorm6qrk","41","[""White""]","No","Male","2726625.400000006","7273","","","{""product_choice"":""A""}","choice","ctd","repulsion_1","1","microwave ovens","null","null","null","null","null","null","1","100","90","100","30","40","25","Warranty","Cooking power","",""
"","","","","","choice_trial_setup","html-keyboard-response","120","2555088","0.0-5.0-0.18","194","1","2025-04-14 14:45:23","bb671e3ae32f654b8954ea4c4635f915","","Mozilla/5.0 (Macintosh; Intel Mac OS X 10_15_7) AppleWebKit/537.36 (KHTML, like Gecko) Chrome/135.0.0.0 Safari/537.36","Macintosh","Chrome","135.0.0.0","OS X","10_15_7","https://hz8g1ckzuq.cognition.run/","en-US,en;q=0.9","1jugcgcvorm6qrk","41","[""White""]","No","Male","2726625.400000006","null","","<p></p>","null","choice","dtc","attraction_2","2","washing machines","null","null","null","null","null","null","1","","","","","","","","","",""
"","","","","","choice_trial","survey-html-form","121","2564111","0.0-5.0-1.18","194","1","2025-04-14 14:45:23","bb671e3ae32f654b8954ea4c4635f915","","Mozilla/5.0 (Macintosh; Intel Mac OS X 10_15_7) AppleWebKit/537.36 (KHTML, like Gecko) Chrome/135.0.0.0 Safari/537.36","Macintosh","Chrome","135.0.0.0","OS X","10_15_7","https://hz8g1ckzuq.cognition.run/","en-US,en;q=0.9","1jugcgcvorm6qrk","41","[""White""]","No","Male","2726625.400000006","9014","","","{""product_choice"":""B""}","choice","dtc","attraction_2","2","washing machines","null","null","null","null","null","null","1","50","60","40","60","50","60","Average lifespan","Energy savings","",""
"","","","","","choice_trial_setup","html-keyboard-response","122","2564417","0.0-5.0-0.19","194","1","2025-04-14 14:45:23","bb671e3ae32f654b8954ea4c4635f915","","Mozilla/5.0 (Macintosh; Intel Mac OS X 10_15_7) AppleWebKit/537.36 (KHTML, like Gecko) Chrome/135.0.0.0 Safari/537.36","Macintosh","Chrome","135.0.0.0","OS X","10_15_7","https://hz8g1ckzuq.cognition.run/","en-US,en;q=0.9","1jugcgcvorm6qrk","41","[""White""]","No","Male","2726625.400000006","null","","<p></p>","null","choice","dct","repulsion_2","1","microwave ovens","null","null","null","null","null","null","1","","","","","","","","","",""
"","","","","","choice_trial","survey-html-form","123","2571484","0.0-5.0-1.19","194","1","2025-04-14 14:45:23","bb671e3ae32f654b8954ea4c4635f915","","Mozilla/5.0 (Macintosh; Intel Mac OS X 10_15_7) AppleWebKit/537.36 (KHTML, like Gecko) Chrome/135.0.0.0 Safari/537.36","Macintosh","Chrome","135.0.0.0","OS X","10_15_7","https://hz8g1ckzuq.cognition.run/","en-US,en;q=0.9","1jugcgcvorm6qrk","41","[""White""]","No","Male","2726625.400000006","7058","","","{""product_choice"":""B""}","choice","dct","repulsion_2","1","microwave ovens","null","null","null","null","null","null","1","100","90","100","30","40","20","Warranty","Cooking power","",""
"","","","","","choice_trial_setup","html-keyboard-response","124","2571790","0.0-5.0-0.20","194","1","2025-04-14 14:45:23","bb671e3ae32f654b8954ea4c4635f915","","Mozilla/5.0 (Macintosh; Intel Mac OS X 10_15_7) AppleWebKit/537.36 (KHTML, like Gecko) Chrome/135.0.0.0 Safari/537.36","Macintosh","Chrome","135.0.0.0","OS X","10_15_7","https://hz8g1ckzuq.cognition.run/","en-US,en;q=0.9","1jugcgcvorm6qrk","41","[""White""]","No","Male","2726625.400000006","null","","<p></p>","null","choice","wwb","catch","null","laptops","60","70","35","10","10","15","2","","","","","","","","","",""
"","","","","","choice_trial","survey-html-form","125","2576292","0.0-5.0-1.20","194","1","2025-04-14 14:45:23","bb671e3ae32f654b8954ea4c4635f915","","Mozilla/5.0 (Macintosh; Intel Mac OS X 10_15_7) AppleWebKit/537.36 (KHTML, like Gecko) Chrome/135.0.0.0 Safari/537.36","Macintosh","Chrome","135.0.0.0","OS X","10_15_7","https://hz8g1ckzuq.cognition.run/","en-US,en;q=0.9","1jugcgcvorm6qrk","41","[""White""]","No","Male","2726625.400000006","4494","","","{""product_choice"":""C""}","choice","wwb","catch","null","laptops","60","70","35","10","10","15","2","null","null","null","null","null","null","Processing speed","Memory (RAM)","",""
"","","","","","choice_trial_setup","html-keyboard-response","126","2576600","0.0-5.0-0.21","194","1","2025-04-14 14:45:23","bb671e3ae32f654b8954ea4c4635f915","","Mozilla/5.0 (Macintosh; Intel Mac OS X 10_15_7) AppleWebKit/537.36 (KHTML, like Gecko) Chrome/135.0.0.0 Safari/537.36","Macintosh","Chrome","135.0.0.0","OS X","10_15_7","https://hz8g1ckzuq.cognition.run/","en-US,en;q=0.9","1jugcgcvorm6qrk","41","[""White""]","No","Male","2726625.400000006","null","","<p></p>","null","choice","cdt","repulsion_1","2","laptops","null","null","null","null","null","null","1","","","","","","","","","",""
"","","","","","choice_trial","survey-html-form","127","2583315","0.0-5.0-1.21","194","1","2025-04-14 14:45:23","bb671e3ae32f654b8954ea4c4635f915","","Mozilla/5.0 (Macintosh; Intel Mac OS X 10_15_7) AppleWebKit/537.36 (KHTML, like Gecko) Chrome/135.0.0.0 Safari/537.36","Macintosh","Chrome","135.0.0.0","OS X","10_15_7","https://hz8g1ckzuq.cognition.run/","en-US,en;q=0.9","1jugcgcvorm6qrk","41","[""White""]","No","Male","2726625.400000006","6708","","","{""product_choice"":""A""}","choice","cdt","repulsion_1","2","laptops","null","null","null","null","null","null","1","30","40","25","100","90","100","Processing speed","Memory (RAM)","",""
"","","","","","choice_trial_setup","html-keyboard-response","128","2583623","0.0-5.0-0.22","194","1","2025-04-14 14:45:23","bb671e3ae32f654b8954ea4c4635f915","","Mozilla/5.0 (Macintosh; Intel Mac OS X 10_15_7) AppleWebKit/537.36 (KHTML, like Gecko) Chrome/135.0.0.0 Safari/537.36","Macintosh","Chrome","135.0.0.0","OS X","10_15_7","https://hz8g1ckzuq.cognition.run/","en-US,en;q=0.9","1jugcgcvorm6qrk","41","[""White""]","No","Male","2726625.400000006","null","","<p></p>","null","choice","ctd","repulsion_2","2","laptops","null","null","null","null","null","null","1","","","","","","","","","",""
"","","","","","choice_trial","survey-html-form","129","2589445","0.0-5.0-1.22","194","1","2025-04-14 14:45:23","bb671e3ae32f654b8954ea4c4635f915","","Mozilla/5.0 (Macintosh; Intel Mac OS X 10_15_7) AppleWebKit/537.36 (KHTML, like Gecko) Chrome/135.0.0.0 Safari/537.36","Macintosh","Chrome","135.0.0.0","OS X","10_15_7","https://hz8g1ckzuq.cognition.run/","en-US,en;q=0.9","1jugcgcvorm6qrk","41","[""White""]","No","Male","2726625.400000006","5815","","","{""product_choice"":""A""}","choice","ctd","repulsion_2","2","laptops","null","null","null","null","null","null","1","30","40","20","100","90","100","Processing speed","Memory (RAM)","",""
"","","","","","choice_trial_setup","html-keyboard-response","130","2589753","0.0-5.0-0.23","194","1","2025-04-14 14:45:23","bb671e3ae32f654b8954ea4c4635f915","","Mozilla/5.0 (Macintosh; Intel Mac OS X 10_15_7) AppleWebKit/537.36 (KHTML, like Gecko) Chrome/135.0.0.0 Safari/537.36","Macintosh","Chrome","135.0.0.0","OS X","10_15_7","https://hz8g1ckzuq.cognition.run/","en-US,en;q=0.9","1jugcgcvorm6qrk","41","[""White""]","No","Male","2726625.400000006","null","","<p></p>","null","choice","cdt","repulsion_2","2","washing machines","null","null","null","null","null","null","2","","","","","","","","","",""
"","","","","","choice_trial","survey-html-form","131","2596987","0.0-5.0-1.23","194","1","2025-04-14 14:45:23","bb671e3ae32f654b8954ea4c4635f915","","Mozilla/5.0 (Macintosh; Intel Mac OS X 10_15_7) AppleWebKit/537.36 (KHTML, like Gecko) Chrome/135.0.0.0 Safari/537.36","Macintosh","Chrome","135.0.0.0","OS X","10_15_7","https://hz8g1ckzuq.cognition.run/","en-US,en;q=0.9","1jugcgcvorm6qrk","41","[""White""]","No","Male","2726625.400000006","7227","","","{""product_choice"":""A""}","choice","cdt","repulsion_2","2","washing machines","null","null","null","null","null","null","2","30","40","20","100","90","100","Average lifespan","Energy savings","",""
"","","","","","choice_trial_setup","html-keyboard-response","132","2597295","0.0-5.0-0.24","194","1","2025-04-14 14:45:23","bb671e3ae32f654b8954ea4c4635f915","","Mozilla/5.0 (Macintosh; Intel Mac OS X 10_15_7) AppleWebKit/537.36 (KHTML, like Gecko) Chrome/135.0.0.0 Safari/537.36","Macintosh","Chrome","135.0.0.0","OS X","10_15_7","https://hz8g1ckzuq.cognition.run/","en-US,en;q=0.9","1jugcgcvorm6qrk","41","[""White""]","No","Male","2726625.400000006","null","","<p></p>","null","choice","wbw","catch","null","laptops","55","95","25","25","15","5","1","","","","","","","","","",""
"","","","","","choice_trial","survey-html-form","133","2602694","0.0-5.0-1.24","194","1","2025-04-14 14:45:23","bb671e3ae32f654b8954ea4c4635f915","","Mozilla/5.0 (Macintosh; Intel Mac OS X 10_15_7) AppleWebKit/537.36 (KHTML, like Gecko) Chrome/135.0.0.0 Safari/537.36","Macintosh","Chrome","135.0.0.0","OS X","10_15_7","https://hz8g1ckzuq.cognition.run/","en-US,en;q=0.9","1jugcgcvorm6qrk","41","[""White""]","No","Male","2726625.400000006","5392","","","{""product_choice"":""B""}","choice","wbw","catch","null","laptops","55","95","25","25","15","5","1","null","null","null","null","null","null","Processing speed","Memory (RAM)","",""
"","","","","","choice_trial_setup","html-keyboard-response","134","2603002","0.0-5.0-0.25","194","1","2025-04-14 14:45:23","bb671e3ae32f654b8954ea4c4635f915","","Mozilla/5.0 (Macintosh; Intel Mac OS X 10_15_7) AppleWebKit/537.36 (KHTML, like Gecko) Chrome/135.0.0.0 Safari/537.36","Macintosh","Chrome","135.0.0.0","OS X","10_15_7","https://hz8g1ckzuq.cognition.run/","en-US,en;q=0.9","1jugcgcvorm6qrk","41","[""White""]","No","Male","2726625.400000006","null","","<p></p>","null","choice","wwb","catch","null","washing machines","75","50","25","10","30","50","1","","","","","","","","","",""
"","","","","","choice_trial","survey-html-form","135","2607139","0.0-5.0-1.25","194","1","2025-04-14 14:45:23","bb671e3ae32f654b8954ea4c4635f915","","Mozilla/5.0 (Macintosh; Intel Mac OS X 10_15_7) AppleWebKit/537.36 (KHTML, like Gecko) Chrome/135.0.0.0 Safari/537.36","Macintosh","Chrome","135.0.0.0","OS X","10_15_7","https://hz8g1ckzuq.cognition.run/","en-US,en;q=0.9","1jugcgcvorm6qrk","41","[""White""]","No","Male","2726625.400000006","4128","","","{""product_choice"":""C""}","choice","wwb","catch","null","washing machines","75","50","25","10","30","50","1","null","null","null","null","null","null","Average lifespan","Energy savings","",""
"","","","","","choice_trial_setup","html-keyboard-response","136","2607447","0.0-5.0-0.26","194","1","2025-04-14 14:45:23","bb671e3ae32f654b8954ea4c4635f915","","Mozilla/5.0 (Macintosh; Intel Mac OS X 10_15_7) AppleWebKit/537.36 (KHTML, like Gecko) Chrome/135.0.0.0 Safari/537.36","Macintosh","Chrome","135.0.0.0","OS X","10_15_7","https://hz8g1ckzuq.cognition.run/","en-US,en;q=0.9","1jugcgcvorm6qrk","41","[""White""]","No","Male","2726625.400000006","null","","<p></p>","null","choice","ctd","repulsion_1","2","televisions","null","null","null","null","null","null","2","","","","","","","","","",""
"","","","","","choice_trial","survey-html-form","137","2617034","0.0-5.0-1.26","194","1","2025-04-14 14:45:23","bb671e3ae32f654b8954ea4c4635f915","","Mozilla/5.0 (Macintosh; Intel Mac OS X 10_15_7) AppleWebKit/537.36 (KHTML, like Gecko) Chrome/135.0.0.0 Safari/537.36","Macintosh","Chrome","135.0.0.0","OS X","10_15_7","https://hz8g1ckzuq.cognition.run/","en-US,en;q=0.9","1jugcgcvorm6qrk","41","[""White""]","No","Male","2726625.400000006","9579","","","{""product_choice"":""A""}","choice","ctd","repulsion_1","2","televisions","null","null","null","null","null","null","2","30","40","25","100","90","100","Screen size","Average lifespan","",""
"","","","","","choice_trial_setup","html-keyboard-response","138","2617341","0.0-5.0-0.27","194","1","2025-04-14 14:45:23","bb671e3ae32f654b8954ea4c4635f915","","Mozilla/5.0 (Macintosh; Intel Mac OS X 10_15_7) AppleWebKit/537.36 (KHTML, like Gecko) Chrome/135.0.0.0 Safari/537.36","Macintosh","Chrome","135.0.0.0","OS X","10_15_7","https://hz8g1ckzuq.cognition.run/","en-US,en;q=0.9","1jugcgcvorm6qrk","41","[""White""]","No","Male","2726625.400000006","null","","<p></p>","null","choice","ctd","repulsion_2","1","laptops","null","null","null","null","null","null","2","","","","","","","","","",""
"","","","","","choice_trial","survey-html-form","139","2623703","0.0-5.0-1.27","194","1","2025-04-14 14:45:23","bb671e3ae32f654b8954ea4c4635f915","","Mozilla/5.0 (Macintosh; Intel Mac OS X 10_15_7) AppleWebKit/537.36 (KHTML, like Gecko) Chrome/135.0.0.0 Safari/537.36","Macintosh","Chrome","135.0.0.0","OS X","10_15_7","https://hz8g1ckzuq.cognition.run/","en-US,en;q=0.9","1jugcgcvorm6qrk","41","[""White""]","No","Male","2726625.400000006","6353","","","{""product_choice"":""A""}","choice","ctd","repulsion_2","1","laptops","null","null","null","null","null","null","2","100","90","100","30","40","20","Processing speed","Memory (RAM)","",""
"","","","","","choice_trial_setup","html-keyboard-response","140","2624010","0.0-5.0-0.28","194","1","2025-04-14 14:45:23","bb671e3ae32f654b8954ea4c4635f915","","Mozilla/5.0 (Macintosh; Intel Mac OS X 10_15_7) AppleWebKit/537.36 (KHTML, like Gecko) Chrome/135.0.0.0 Safari/537.36","Macintosh","Chrome","135.0.0.0","OS X","10_15_7","https://hz8g1ckzuq.cognition.run/","en-US,en;q=0.9","1jugcgcvorm6qrk","41","[""White""]","No","Male","2726625.400000006","null","","<p></p>","null","choice","ctd","repulsion_1","1","televisions","null","null","null","null","null","null","2","","","","","","","","","",""
"","","","","","choice_trial","survey-html-form","141","2628185","0.0-5.0-1.28","194","1","2025-04-14 14:45:23","bb671e3ae32f654b8954ea4c4635f915","","Mozilla/5.0 (Macintosh; Intel Mac OS X 10_15_7) AppleWebKit/537.36 (KHTML, like Gecko) Chrome/135.0.0.0 Safari/537.36","Macintosh","Chrome","135.0.0.0","OS X","10_15_7","https://hz8g1ckzuq.cognition.run/","en-US,en;q=0.9","1jugcgcvorm6qrk","41","[""White""]","No","Male","2726625.400000006","4168","","","{""product_choice"":""B""}","choice","ctd","repulsion_1","1","televisions","null","null","null","null","null","null","2","100","90","100","30","40","25","Screen size","Average lifespan","",""
"","","","","","choice_trial_setup","html-keyboard-response","142","2628494","0.0-5.0-0.29","194","1","2025-04-14 14:45:23","bb671e3ae32f654b8954ea4c4635f915","","Mozilla/5.0 (Macintosh; Intel Mac OS X 10_15_7) AppleWebKit/537.36 (KHTML, like Gecko) Chrome/135.0.0.0 Safari/537.36","Macintosh","Chrome","135.0.0.0","OS X","10_15_7","https://hz8g1ckzuq.cognition.run/","en-US,en;q=0.9","1jugcgcvorm6qrk","41","[""White""]","No","Male","2726625.400000006","null","","<p></p>","null","choice","tcd","attraction_1","1","microwave ovens","null","null","null","null","null","null","1","","","","","","","","","",""
"","","","","","choice_trial","survey-html-form","143","2633497","0.0-5.0-1.29","194","1","2025-04-14 14:45:23","bb671e3ae32f654b8954ea4c4635f915","","Mozilla/5.0 (Macintosh; Intel Mac OS X 10_15_7) AppleWebKit/537.36 (KHTML, like Gecko) Chrome/135.0.0.0 Safari/537.36","Macintosh","Chrome","135.0.0.0","OS X","10_15_7","https://hz8g1ckzuq.cognition.run/","en-US,en;q=0.9","1jugcgcvorm6qrk","41","[""White""]","No","Male","2726625.400000006","4993","","","{""product_choice"":""B""}","choice","tcd","attraction_1","1","microwave ovens","null","null","null","null","null","null","1","60","50","60","50","60","45","Warranty","Cooking power","",""
"","","","","","choice_trial_setup","html-keyboard-response","144","2633806","0.0-5.0-0.30","194","1","2025-04-14 14:45:23","bb671e3ae32f654b8954ea4c4635f915","","Mozilla/5.0 (Macintosh; Intel Mac OS X 10_15_7) AppleWebKit/537.36 (KHTML, like Gecko) Chrome/135.0.0.0 Safari/537.36","Macintosh","Chrome","135.0.0.0","OS X","10_15_7","https://hz8g1ckzuq.cognition.run/","en-US,en;q=0.9","1jugcgcvorm6qrk","41","[""White""]","No","Male","2726625.400000006","null","","<p></p>","null","choice","cdt","repulsion_2","2","microwave ovens","null","null","null","null","null","null","1","","","","","","","","","",""
"","","","","","choice_trial","survey-html-form","145","2640649","0.0-5.0-1.30","194","1","2025-04-14 14:45:23","bb671e3ae32f654b8954ea4c4635f915","","Mozilla/5.0 (Macintosh; Intel Mac OS X 10_15_7) AppleWebKit/537.36 (KHTML, like Gecko) Chrome/135.0.0.0 Safari/537.36","Macintosh","Chrome","135.0.0.0","OS X","10_15_7","https://hz8g1ckzuq.cognition.run/","en-US,en;q=0.9","1jugcgcvorm6qrk","41","[""White""]","No","Male","2726625.400000006","6835","","","{""product_choice"":""C""}","choice","cdt","repulsion_2","2","microwave ovens","null","null","null","null","null","null","1","30","40","20","100","90","100","Warranty","Cooking power","",""
"","","","","","choice_trial_setup","html-keyboard-response","146","2640956","0.0-5.0-0.31","194","1","2025-04-14 14:45:23","bb671e3ae32f654b8954ea4c4635f915","","Mozilla/5.0 (Macintosh; Intel Mac OS X 10_15_7) AppleWebKit/537.36 (KHTML, like Gecko) Chrome/135.0.0.0 Safari/537.36","Macintosh","Chrome","135.0.0.0","OS X","10_15_7","https://hz8g1ckzuq.cognition.run/","en-US,en;q=0.9","1jugcgcvorm6qrk","41","[""White""]","No","Male","2726625.400000006","null","","<p></p>","null","choice","wwb","catch","null","microwave ovens","65","60","25","25","25","30","1","","","","","","","","","",""
"","","","","","choice_trial","survey-html-form","147","2644363","0.0-5.0-1.31","194","1","2025-04-14 14:45:23","bb671e3ae32f654b8954ea4c4635f915","","Mozilla/5.0 (Macintosh; Intel Mac OS X 10_15_7) AppleWebKit/537.36 (KHTML, like Gecko) Chrome/135.0.0.0 Safari/537.36","Macintosh","Chrome","135.0.0.0","OS X","10_15_7","https://hz8g1ckzuq.cognition.run/","en-US,en;q=0.9","1jugcgcvorm6qrk","41","[""White""]","No","Male","2726625.400000006","3398","","","{""product_choice"":""C""}","choice","wwb","catch","null","microwave ovens","65","60","25","25","25","30","1","null","null","null","null","null","null","Warranty","Cooking power","",""
"","","","","","choice_trial_setup","html-keyboard-response","148","2644670","0.0-5.0-0.32","194","1","2025-04-14 14:45:23","bb671e3ae32f654b8954ea4c4635f915","","Mozilla/5.0 (Macintosh; Intel Mac OS X 10_15_7) AppleWebKit/537.36 (KHTML, like Gecko) Chrome/135.0.0.0 Safari/537.36","Macintosh","Chrome","135.0.0.0","OS X","10_15_7","https://hz8g1ckzuq.cognition.run/","en-US,en;q=0.9","1jugcgcvorm6qrk","41","[""White""]","No","Male","2726625.400000006","null","","<p></p>","null","choice","dtc","repulsion_1","1","laptops","null","null","null","null","null","null","1","","","","","","","","","",""
"","","","","","choice_trial","survey-html-form","149","2650487","0.0-5.0-1.32","194","1","2025-04-14 14:45:23","bb671e3ae32f654b8954ea4c4635f915","","Mozilla/5.0 (Macintosh; Intel Mac OS X 10_15_7) AppleWebKit/537.36 (KHTML, like Gecko) Chrome/135.0.0.0 Safari/537.36","Macintosh","Chrome","135.0.0.0","OS X","10_15_7","https://hz8g1ckzuq.cognition.run/","en-US,en;q=0.9","1jugcgcvorm6qrk","41","[""White""]","No","Male","2726625.400000006","5808","","","{""product_choice"":""C""}","choice","dtc","repulsion_1","1","laptops","null","null","null","null","null","null","1","100","90","100","30","40","25","Processing speed","Memory (RAM)","",""
"","","","","","choice_trial_setup","html-keyboard-response","150","2650794","0.0-5.0-0.33","194","1","2025-04-14 14:45:23","bb671e3ae32f654b8954ea4c4635f915","","Mozilla/5.0 (Macintosh; Intel Mac OS X 10_15_7) AppleWebKit/537.36 (KHTML, like Gecko) Chrome/135.0.0.0 Safari/537.36","Macintosh","Chrome","135.0.0.0","OS X","10_15_7","https://hz8g1ckzuq.cognition.run/","en-US,en;q=0.9","1jugcgcvorm6qrk","41","[""White""]","No","Male","2726625.400000006","null","","<p></p>","null","choice","ctd","repulsion_2","1","televisions","null","null","null","null","null","null","1","","","","","","","","","",""
"","","","","","choice_trial","survey-html-form","151","2654328","0.0-5.0-1.33","194","1","2025-04-14 14:45:23","bb671e3ae32f654b8954ea4c4635f915","","Mozilla/5.0 (Macintosh; Intel Mac OS X 10_15_7) AppleWebKit/537.36 (KHTML, like Gecko) Chrome/135.0.0.0 Safari/537.36","Macintosh","Chrome","135.0.0.0","OS X","10_15_7","https://hz8g1ckzuq.cognition.run/","en-US,en;q=0.9","1jugcgcvorm6qrk","41","[""White""]","No","Male","2726625.400000006","3526","","","{""product_choice"":""B""}","choice","ctd","repulsion_2","1","televisions","null","null","null","null","null","null","1","100","90","100","30","40","20","Screen size","Average lifespan","",""
"","","","","","choice_trial_setup","html-keyboard-response","152","2654636","0.0-5.0-0.34","194","1","2025-04-14 14:45:23","bb671e3ae32f654b8954ea4c4635f915","","Mozilla/5.0 (Macintosh; Intel Mac OS X 10_15_7) AppleWebKit/537.36 (KHTML, like Gecko) Chrome/135.0.0.0 Safari/537.36","Macintosh","Chrome","135.0.0.0","OS X","10_15_7","https://hz8g1ckzuq.cognition.run/","en-US,en;q=0.9","1jugcgcvorm6qrk","41","[""White""]","No","Male","2726625.400000006","null","","<p></p>","null","choice","cdt","repulsion_1","2","washing machines","null","null","null","null","null","null","1","","","","","","","","","",""
"","","","","","choice_trial","survey-html-form","153","2661228","0.0-5.0-1.34","194","1","2025-04-14 14:45:23","bb671e3ae32f654b8954ea4c4635f915","","Mozilla/5.0 (Macintosh; Intel Mac OS X 10_15_7) AppleWebKit/537.36 (KHTML, like Gecko) Chrome/135.0.0.0 Safari/537.36","Macintosh","Chrome","135.0.0.0","OS X","10_15_7","https://hz8g1ckzuq.cognition.run/","en-US,en;q=0.9","1jugcgcvorm6qrk","41","[""White""]","No","Male","2726625.400000006","6583","","","{""product_choice"":""A""}","choice","cdt","repulsion_1","2","washing machines","null","null","null","null","null","null","1","30","40","25","100","90","100","Average lifespan","Energy savings","",""
"","","","","","choice_trial_setup","html-keyboard-response","154","2661536","0.0-5.0-0.35","194","1","2025-04-14 14:45:23","bb671e3ae32f654b8954ea4c4635f915","","Mozilla/5.0 (Macintosh; Intel Mac OS X 10_15_7) AppleWebKit/537.36 (KHTML, like Gecko) Chrome/135.0.0.0 Safari/537.36","Macintosh","Chrome","135.0.0.0","OS X","10_15_7","https://hz8g1ckzuq.cognition.run/","en-US,en;q=0.9","1jugcgcvorm6qrk","41","[""White""]","No","Male","2726625.400000006","null","","<p></p>","null","choice","dtc","attraction_1","2","washing machines","null","null","null","null","null","null","2","","","","","","","","","",""
"","","","","","choice_trial","survey-html-form","155","2671284","0.0-5.0-1.35","194","1","2025-04-14 14:45:23","bb671e3ae32f654b8954ea4c4635f915","","Mozilla/5.0 (Macintosh; Intel Mac OS X 10_15_7) AppleWebKit/537.36 (KHTML, like Gecko) Chrome/135.0.0.0 Safari/537.36","Macintosh","Chrome","135.0.0.0","OS X","10_15_7","https://hz8g1ckzuq.cognition.run/","en-US,en;q=0.9","1jugcgcvorm6qrk","41","[""White""]","No","Male","2726625.400000006","9740","","","{""product_choice"":""B""}","choice","dtc","attraction_1","2","washing machines","null","null","null","null","null","null","2","50","60","45","60","50","60","Average lifespan","Energy savings","",""
