"success","timeout","failed_images","failed_audio","failed_video","screen_id","trial_type","trial_index","time_elapsed","internal_node_id","run_id","condition","recorded_at","source_code_version","ip","user_agent","device","browser","browser_version","platform","platform_version","referer","accept_language","ppt_id","age","race","ethnicity","gender","exp_duration","rt","view_history","stimulus","response","phase","order","effect","t_high","category","d1_best","d2_best","d1_worst1","d2_worst1","d1_worst2","d2_worst2","first_dim","d1_t","d1_c","d1_d","d2_t","d2_c","d2_d","d1_name","d2_name","strategy_response","question_order"
"true","false","[]","[]","[]","img preload","preload","0","259","0.0-0.0","196","1","2025-04-14 14:45:33","bb671e3ae32f654b8954ea4c4635f915","","Mozilla/5.0 (Macintosh; Intel Mac OS X 10_15_7) AppleWebKit/605.1.15 (KHTML, like Gecko) Version/18.4 Safari/605.1.15","Macintosh","Safari","18.4","OS X","10_15_7","https://hz8g1ckzuq.cognition.run/","en-US,en;q=0.9","urmu7p7jlblp2g5","46","[""White""]","No","Female","1803112","","","","","","","","","","","","","","","","","","","","","","","","","",""
"true","","","","","","fullscreen","1","3850","0.0-1.0","196","1","2025-04-14 14:45:33","bb671e3ae32f654b8954ea4c4635f915","","Mozilla/5.0 (Macintosh; Intel Mac OS X 10_15_7) AppleWebKit/605.1.15 (KHTML, like Gecko) Version/18.4 Safari/605.1.15","Macintosh","Safari","18.4","OS X","10_15_7","https://hz8g1ckzuq.cognition.run/","en-US,en;q=0.9","urmu7p7jlblp2g5","46","[""White""]","No","Female","1803112","2585","","","","","","","","","","","","","","","","","","","","","","","","",""
"","","","","","","instructions","2","110596","0.0-2.0","196","1","2025-04-14 14:45:33","bb671e3ae32f654b8954ea4c4635f915","","Mozilla/5.0 (Macintosh; Intel Mac OS X 10_15_7) AppleWebKit/605.1.15 (KHTML, like Gecko) Version/18.4 Safari/605.1.15","Macintosh","Safari","18.4","OS X","10_15_7","https://hz8g1ckzuq.cognition.run/","en-US,en;q=0.9","urmu7p7jlblp2g5","46","[""White""]","No","Female","1803112","106745","[{""page_index"":0,""viewing_time"":1693},{""page_index"":1,""viewing_time"":6483},{""page_index"":2,""viewing_time"":4983},{""page_index"":3,""viewing_time"":5950},{""page_index"":4,""viewing_time"":8900},{""page_index"":5,""viewing_time"":5984},{""page_index"":6,""viewing_time"":9416},{""page_index"":7,""viewing_time"":46800},{""page_index"":8,""viewing_time"":12533},{""page_index"":9,""viewing_time"":4002}]","","","","","","","","","","","","","","","","","","","","","","","",""
"","","","","","rating_trial_setup","html-keyboard-response","3","110901","0.0-3.0-0.0","196","1","2025-04-14 14:45:33","bb671e3ae32f654b8954ea4c4635f915","","Mozilla/5.0 (Macintosh; Intel Mac OS X 10_15_7) AppleWebKit/605.1.15 (KHTML, like Gecko) Version/18.4 Safari/605.1.15","Macintosh","Safari","18.4","OS X","10_15_7","https://hz8g1ckzuq.cognition.run/","en-US,en;q=0.9","urmu7p7jlblp2g5","46","[""White""]","No","Female","1803112","null","","<p></p>","null","rating","tcd","repulsion_1","2","microwave ovens","null","null","null","null","null","null","1","","","","","","","","","",""
"","","","","","rating_trial","survey-html-form","4","175534","0.0-3.0-1.0","196","1","2025-04-14 14:45:33","bb671e3ae32f654b8954ea4c4635f915","","Mozilla/5.0 (Macintosh; Intel Mac OS X 10_15_7) AppleWebKit/605.1.15 (KHTML, like Gecko) Version/18.4 Safari/605.1.15","Macintosh","Safari","18.4","OS X","10_15_7","https://hz8g1ckzuq.cognition.run/","en-US,en;q=0.9","urmu7p7jlblp2g5","46","[""White""]","No","Female","1803112","64604","","","{""price_1"":""50"",""price_2"":""45"",""price_3"":""40""}","rating","tcd","repulsion_1","2","microwave ovens","null","null","null","null","null","null","1","30","40","25","100","90","100","Warranty","Cooking power","",""
"","","","","","rating_trial_setup","html-keyboard-response","5","175837","0.0-3.0-0.1","196","1","2025-04-14 14:45:33","bb671e3ae32f654b8954ea4c4635f915","","Mozilla/5.0 (Macintosh; Intel Mac OS X 10_15_7) AppleWebKit/605.1.15 (KHTML, like Gecko) Version/18.4 Safari/605.1.15","Macintosh","Safari","18.4","OS X","10_15_7","https://hz8g1ckzuq.cognition.run/","en-US,en;q=0.9","urmu7p7jlblp2g5","46","[""White""]","No","Female","1803112","null","","<p></p>","null","rating","wwb","catch","null","microwave ovens","75","80","10","20","40","5","1","","","","","","","","","",""
"","","","","","rating_trial","survey-html-form","6","229601","0.0-3.0-1.1","196","1","2025-04-14 14:45:33","bb671e3ae32f654b8954ea4c4635f915","","Mozilla/5.0 (Macintosh; Intel Mac OS X 10_15_7) AppleWebKit/605.1.15 (KHTML, like Gecko) Version/18.4 Safari/605.1.15","Macintosh","Safari","18.4","OS X","10_15_7","https://hz8g1ckzuq.cognition.run/","en-US,en;q=0.9","urmu7p7jlblp2g5","46","[""White""]","No","Female","1803112","53761","","","{""price_1"":""30"",""price_2"":""20"",""price_3"":""45""}","rating","wwb","catch","null","microwave ovens","75","80","10","20","40","5","1","null","null","null","null","null","null","Warranty","Cooking power","",""
"","","","","","rating_trial_setup","html-keyboard-response","7","229904","0.0-3.0-0.2","196","1","2025-04-14 14:45:33","bb671e3ae32f654b8954ea4c4635f915","","Mozilla/5.0 (Macintosh; Intel Mac OS X 10_15_7) AppleWebKit/605.1.15 (KHTML, like Gecko) Version/18.4 Safari/605.1.15","Macintosh","Safari","18.4","OS X","10_15_7","https://hz8g1ckzuq.cognition.run/","en-US,en;q=0.9","urmu7p7jlblp2g5","46","[""White""]","No","Female","1803112","null","","<p></p>","null","rating","cdt","repulsion_2","2","televisions","null","null","null","null","null","null","1","","","","","","","","","",""
"","","","","","rating_trial","survey-html-form","8","265452","0.0-3.0-1.2","196","1","2025-04-14 14:45:33","bb671e3ae32f654b8954ea4c4635f915","","Mozilla/5.0 (Macintosh; Intel Mac OS X 10_15_7) AppleWebKit/605.1.15 (KHTML, like Gecko) Version/18.4 Safari/605.1.15","Macintosh","Safari","18.4","OS X","10_15_7","https://hz8g1ckzuq.cognition.run/","en-US,en;q=0.9","urmu7p7jlblp2g5","46","[""White""]","No","Female","1803112","35545","","","{""price_1"":""80"",""price_2"":""60"",""price_3"":""70""}","rating","cdt","repulsion_2","2","televisions","null","null","null","null","null","null","1","30","40","20","100","90","100","Screen size","Average lifespan","",""
"","","","","","rating_trial_setup","html-keyboard-response","9","265754","0.0-3.0-0.3","196","1","2025-04-14 14:45:33","bb671e3ae32f654b8954ea4c4635f915","","Mozilla/5.0 (Macintosh; Intel Mac OS X 10_15_7) AppleWebKit/605.1.15 (KHTML, like Gecko) Version/18.4 Safari/605.1.15","Macintosh","Safari","18.4","OS X","10_15_7","https://hz8g1ckzuq.cognition.run/","en-US,en;q=0.9","urmu7p7jlblp2g5","46","[""White""]","No","Female","1803112","null","","<p></p>","null","rating","ctd","repulsion_2","1","microwave ovens","null","null","null","null","null","null","1","","","","","","","","","",""
"","","","","","rating_trial","survey-html-form","10","286551","0.0-3.0-1.3","196","1","2025-04-14 14:45:33","bb671e3ae32f654b8954ea4c4635f915","","Mozilla/5.0 (Macintosh; Intel Mac OS X 10_15_7) AppleWebKit/605.1.15 (KHTML, like Gecko) Version/18.4 Safari/605.1.15","Macintosh","Safari","18.4","OS X","10_15_7","https://hz8g1ckzuq.cognition.run/","en-US,en;q=0.9","urmu7p7jlblp2g5","46","[""White""]","No","Female","1803112","20795","","","{""price_1"":""35"",""price_2"":""30"",""price_3"":""25""}","rating","ctd","repulsion_2","1","microwave ovens","null","null","null","null","null","null","1","100","90","100","30","40","20","Warranty","Cooking power","",""
"","","","","","rating_trial_setup","html-keyboard-response","11","286854","0.0-3.0-0.4","196","1","2025-04-14 14:45:33","bb671e3ae32f654b8954ea4c4635f915","","Mozilla/5.0 (Macintosh; Intel Mac OS X 10_15_7) AppleWebKit/605.1.15 (KHTML, like Gecko) Version/18.4 Safari/605.1.15","Macintosh","Safari","18.4","OS X","10_15_7","https://hz8g1ckzuq.cognition.run/","en-US,en;q=0.9","urmu7p7jlblp2g5","46","[""White""]","No","Female","1803112","null","","<p></p>","null","rating","tdc","attraction_1","1","washing machines","null","null","null","null","null","null","1","","","","","","","","","",""
"","","","","","rating_trial","survey-html-form","12","336619","0.0-3.0-1.4","196","1","2025-04-14 14:45:33","bb671e3ae32f654b8954ea4c4635f915","","Mozilla/5.0 (Macintosh; Intel Mac OS X 10_15_7) AppleWebKit/605.1.15 (KHTML, like Gecko) Version/18.4 Safari/605.1.15","Macintosh","Safari","18.4","OS X","10_15_7","https://hz8g1ckzuq.cognition.run/","en-US,en;q=0.9","urmu7p7jlblp2g5","46","[""White""]","No","Female","1803112","49762","","","{""price_1"":""300"",""price_2"":""275"",""price_3"":""350""}","rating","tdc","attraction_1","1","washing machines","null","null","null","null","null","null","1","60","50","60","50","60","45","Average lifespan","Energy savings","",""
"","","","","","rating_trial_setup","html-keyboard-response","13","336921","0.0-3.0-0.5","196","1","2025-04-14 14:45:33","bb671e3ae32f654b8954ea4c4635f915","","Mozilla/5.0 (Macintosh; Intel Mac OS X 10_15_7) AppleWebKit/605.1.15 (KHTML, like Gecko) Version/18.4 Safari/605.1.15","Macintosh","Safari","18.4","OS X","10_15_7","https://hz8g1ckzuq.cognition.run/","en-US,en;q=0.9","urmu7p7jlblp2g5","46","[""White""]","No","Female","1803112","null","","<p></p>","null","rating","ctd","repulsion_1","2","laptops","null","null","null","null","null","null","1","","","","","","","","","",""
"","","","","","rating_trial","survey-html-form","14","369035","0.0-3.0-1.5","196","1","2025-04-14 14:45:33","bb671e3ae32f654b8954ea4c4635f915","","Mozilla/5.0 (Macintosh; Intel Mac OS X 10_15_7) AppleWebKit/605.1.15 (KHTML, like Gecko) Version/18.4 Safari/605.1.15","Macintosh","Safari","18.4","OS X","10_15_7","https://hz8g1ckzuq.cognition.run/","en-US,en;q=0.9","urmu7p7jlblp2g5","46","[""White""]","No","Female","1803112","32112","","","{""price_1"":""700"",""price_2"":""650"",""price_3"":""600""}","rating","ctd","repulsion_1","2","laptops","null","null","null","null","null","null","1","30","40","25","100","90","100","Processing speed","Memory (RAM)","",""
"","","","","","rating_trial_setup","html-keyboard-response","15","369338","0.0-3.0-0.6","196","1","2025-04-14 14:45:33","bb671e3ae32f654b8954ea4c4635f915","","Mozilla/5.0 (Macintosh; Intel Mac OS X 10_15_7) AppleWebKit/605.1.15 (KHTML, like Gecko) Version/18.4 Safari/605.1.15","Macintosh","Safari","18.4","OS X","10_15_7","https://hz8g1ckzuq.cognition.run/","en-US,en;q=0.9","urmu7p7jlblp2g5","46","[""White""]","No","Female","1803112","null","","<p></p>","null","rating","ctd","repulsion_1","1","laptops","null","null","null","null","null","null","1","","","","","","","","","",""
"","","","","","rating_trial","survey-html-form","16","395902","0.0-3.0-1.6","196","1","2025-04-14 14:45:33","bb671e3ae32f654b8954ea4c4635f915","","Mozilla/5.0 (Macintosh; Intel Mac OS X 10_15_7) AppleWebKit/605.1.15 (KHTML, like Gecko) Version/18.4 Safari/605.1.15","Macintosh","Safari","18.4","OS X","10_15_7","https://hz8g1ckzuq.cognition.run/","en-US,en;q=0.9","urmu7p7jlblp2g5","46","[""White""]","No","Female","1803112","26561","","","{""price_1"":""650"",""price_2"":""650"",""price_3"":""600""}","rating","ctd","repulsion_1","1","laptops","null","null","null","null","null","null","1","100","90","100","30","40","25","Processing speed","Memory (RAM)","",""
"","","","","","rating_trial_setup","html-keyboard-response","17","396205","0.0-3.0-0.7","196","1","2025-04-14 14:45:33","bb671e3ae32f654b8954ea4c4635f915","","Mozilla/5.0 (Macintosh; Intel Mac OS X 10_15_7) AppleWebKit/605.1.15 (KHTML, like Gecko) Version/18.4 Safari/605.1.15","Macintosh","Safari","18.4","OS X","10_15_7","https://hz8g1ckzuq.cognition.run/","en-US,en;q=0.9","urmu7p7jlblp2g5","46","[""White""]","No","Female","1803112","null","","<p></p>","null","rating","tdc","attraction_1","2","televisions","null","null","null","null","null","null","2","","","","","","","","","",""
"","","","","","rating_trial","survey-html-form","18","423237","0.0-3.0-1.7","196","1","2025-04-14 14:45:33","bb671e3ae32f654b8954ea4c4635f915","","Mozilla/5.0 (Macintosh; Intel Mac OS X 10_15_7) AppleWebKit/605.1.15 (KHTML, like Gecko) Version/18.4 Safari/605.1.15","Macintosh","Safari","18.4","OS X","10_15_7","https://hz8g1ckzuq.cognition.run/","en-US,en;q=0.9","urmu7p7jlblp2g5","46","[""White""]","No","Female","1803112","27029","","","{""price_1"":""70"",""price_2"":""65"",""price_3"":""75""}","rating","tdc","attraction_1","2","televisions","null","null","null","null","null","null","2","50","60","45","60","50","60","Screen size","Average lifespan","",""
"","","","","","rating_trial_setup","html-keyboard-response","19","423540","0.0-3.0-0.8","196","1","2025-04-14 14:45:33","bb671e3ae32f654b8954ea4c4635f915","","Mozilla/5.0 (Macintosh; Intel Mac OS X 10_15_7) AppleWebKit/605.1.15 (KHTML, like Gecko) Version/18.4 Safari/605.1.15","Macintosh","Safari","18.4","OS X","10_15_7","https://hz8g1ckzuq.cognition.run/","en-US,en;q=0.9","urmu7p7jlblp2g5","46","[""White""]","No","Female","1803112","null","","<p></p>","null","rating","ctd","attraction_1","2","washing machines","null","null","null","null","null","null","2","","","","","","","","","",""
"","","","","","rating_trial","survey-html-form","20","452952","0.0-3.0-1.8","196","1","2025-04-14 14:45:33","bb671e3ae32f654b8954ea4c4635f915","","Mozilla/5.0 (Macintosh; Intel Mac OS X 10_15_7) AppleWebKit/605.1.15 (KHTML, like Gecko) Version/18.4 Safari/605.1.15","Macintosh","Safari","18.4","OS X","10_15_7","https://hz8g1ckzuq.cognition.run/","en-US,en;q=0.9","urmu7p7jlblp2g5","46","[""White""]","No","Female","1803112","29409","","","{""price_1"":""300"",""price_2"":""250"",""price_3"":""275""}","rating","ctd","attraction_1","2","washing machines","null","null","null","null","null","null","2","50","60","45","60","50","60","Average lifespan","Energy savings","",""
"","","","","","rating_trial_setup","html-keyboard-response","21","453254","0.0-3.0-0.9","196","1","2025-04-14 14:45:33","bb671e3ae32f654b8954ea4c4635f915","","Mozilla/5.0 (Macintosh; Intel Mac OS X 10_15_7) AppleWebKit/605.1.15 (KHTML, like Gecko) Version/18.4 Safari/605.1.15","Macintosh","Safari","18.4","OS X","10_15_7","https://hz8g1ckzuq.cognition.run/","en-US,en;q=0.9","urmu7p7jlblp2g5","46","[""White""]","No","Female","1803112","null","","<p></p>","null","rating","dtc","repulsion_1","2","washing machines","null","null","null","null","null","null","1","","","","","","","","","",""
"","","","","","rating_trial","survey-html-form","22","494602","0.0-3.0-1.9","196","1","2025-04-14 14:45:33","bb671e3ae32f654b8954ea4c4635f915","","Mozilla/5.0 (Macintosh; Intel Mac OS X 10_15_7) AppleWebKit/605.1.15 (KHTML, like Gecko) Version/18.4 Safari/605.1.15","Macintosh","Safari","18.4","OS X","10_15_7","https://hz8g1ckzuq.cognition.run/","en-US,en;q=0.9","urmu7p7jlblp2g5","46","[""White""]","No","Female","1803112","41345","","","{""price_1"":""300"",""price_2"":""350"",""price_3"":""275""}","rating","dtc","repulsion_1","2","washing machines","null","null","null","null","null","null","1","30","40","25","100","90","100","Average lifespan","Energy savings","",""
"","","","","","rating_trial_setup","html-keyboard-response","23","494905","0.0-3.0-0.10","196","1","2025-04-14 14:45:33","bb671e3ae32f654b8954ea4c4635f915","","Mozilla/5.0 (Macintosh; Intel Mac OS X 10_15_7) AppleWebKit/605.1.15 (KHTML, like Gecko) Version/18.4 Safari/605.1.15","Macintosh","Safari","18.4","OS X","10_15_7","https://hz8g1ckzuq.cognition.run/","en-US,en;q=0.9","urmu7p7jlblp2g5","46","[""White""]","No","Female","1803112","null","","<p></p>","null","rating","dct","repulsion_2","2","laptops","null","null","null","null","null","null","2","","","","","","","","","",""
"","","","","","rating_trial","survey-html-form","24","510435","0.0-3.0-1.10","196","1","2025-04-14 14:45:33","bb671e3ae32f654b8954ea4c4635f915","","Mozilla/5.0 (Macintosh; Intel Mac OS X 10_15_7) AppleWebKit/605.1.15 (KHTML, like Gecko) Version/18.4 Safari/605.1.15","Macintosh","Safari","18.4","OS X","10_15_7","https://hz8g1ckzuq.cognition.run/","en-US,en;q=0.9","urmu7p7jlblp2g5","46","[""White""]","No","Female","1803112","15527","","","{""price_1"":""450"",""price_2"":""500"",""price_3"":""475""}","rating","dct","repulsion_2","2","laptops","null","null","null","null","null","null","2","30","40","20","100","90","100","Processing speed","Memory (RAM)","",""
"","","","","","rating_trial_setup","html-keyboard-response","25","510738","0.0-3.0-0.11","196","1","2025-04-14 14:45:33","bb671e3ae32f654b8954ea4c4635f915","","Mozilla/5.0 (Macintosh; Intel Mac OS X 10_15_7) AppleWebKit/605.1.15 (KHTML, like Gecko) Version/18.4 Safari/605.1.15","Macintosh","Safari","18.4","OS X","10_15_7","https://hz8g1ckzuq.cognition.run/","en-US,en;q=0.9","urmu7p7jlblp2g5","46","[""White""]","No","Female","1803112","null","","<p></p>","null","rating","tcd","attraction_1","1","microwave ovens","null","null","null","null","null","null","2","","","","","","","","","",""
"","","","","","rating_trial","survey-html-form","26","536969","0.0-3.0-1.11","196","1","2025-04-14 14:45:33","bb671e3ae32f654b8954ea4c4635f915","","Mozilla/5.0 (Macintosh; Intel Mac OS X 10_15_7) AppleWebKit/605.1.15 (KHTML, like Gecko) Version/18.4 Safari/605.1.15","Macintosh","Safari","18.4","OS X","10_15_7","https://hz8g1ckzuq.cognition.run/","en-US,en;q=0.9","urmu7p7jlblp2g5","46","[""White""]","No","Female","1803112","26228","","","{""price_1"":""30"",""price_2"":""35"",""price_3"":""25""}","rating","tcd","attraction_1","1","microwave ovens","null","null","null","null","null","null","2","60","50","60","50","60","45","Warranty","Cooking power","",""
"","","","","","rating_trial_setup","html-keyboard-response","27","537271","0.0-3.0-0.12","196","1","2025-04-14 14:45:33","bb671e3ae32f654b8954ea4c4635f915","","Mozilla/5.0 (Macintosh; Intel Mac OS X 10_15_7) AppleWebKit/605.1.15 (KHTML, like Gecko) Version/18.4 Safari/605.1.15","Macintosh","Safari","18.4","OS X","10_15_7","https://hz8g1ckzuq.cognition.run/","en-US,en;q=0.9","urmu7p7jlblp2g5","46","[""White""]","No","Female","1803112","null","","<p></p>","null","rating","tcd","attraction_2","1","televisions","null","null","null","null","null","null","2","","","","","","","","","",""
"","","","","","rating_trial","survey-html-form","28","554952","0.0-3.0-1.12","196","1","2025-04-14 14:45:33","bb671e3ae32f654b8954ea4c4635f915","","Mozilla/5.0 (Macintosh; Intel Mac OS X 10_15_7) AppleWebKit/605.1.15 (KHTML, like Gecko) Version/18.4 Safari/605.1.15","Macintosh","Safari","18.4","OS X","10_15_7","https://hz8g1ckzuq.cognition.run/","en-US,en;q=0.9","urmu7p7jlblp2g5","46","[""White""]","No","Female","1803112","17677","","","{""price_1"":""80"",""price_2"":""70"",""price_3"":""75""}","rating","tcd","attraction_2","1","televisions","null","null","null","null","null","null","2","60","50","60","50","60","40","Screen size","Average lifespan","",""
"","","","","","rating_trial_setup","html-keyboard-response","29","555255","0.0-3.0-0.13","196","1","2025-04-14 14:45:33","bb671e3ae32f654b8954ea4c4635f915","","Mozilla/5.0 (Macintosh; Intel Mac OS X 10_15_7) AppleWebKit/605.1.15 (KHTML, like Gecko) Version/18.4 Safari/605.1.15","Macintosh","Safari","18.4","OS X","10_15_7","https://hz8g1ckzuq.cognition.run/","en-US,en;q=0.9","urmu7p7jlblp2g5","46","[""White""]","No","Female","1803112","null","","<p></p>","null","rating","tcd","attraction_2","2","microwave ovens","null","null","null","null","null","null","2","","","","","","","","","",""
"","","","","","rating_trial","survey-html-form","30","598121","0.0-3.0-1.13","196","1","2025-04-14 14:45:33","bb671e3ae32f654b8954ea4c4635f915","","Mozilla/5.0 (Macintosh; Intel Mac OS X 10_15_7) AppleWebKit/605.1.15 (KHTML, like Gecko) Version/18.4 Safari/605.1.15","Macintosh","Safari","18.4","OS X","10_15_7","https://hz8g1ckzuq.cognition.run/","en-US,en;q=0.9","urmu7p7jlblp2g5","46","[""White""]","No","Female","1803112","42862","","","{""price_1"":""35"",""price_2"":""25"",""price_3"":""30""}","rating","tcd","attraction_2","2","microwave ovens","null","null","null","null","null","null","2","50","60","40","60","50","60","Warranty","Cooking power","",""
"","","","","","rating_trial_setup","html-keyboard-response","31","598425","0.0-3.0-0.14","196","1","2025-04-14 14:45:33","bb671e3ae32f654b8954ea4c4635f915","","Mozilla/5.0 (Macintosh; Intel Mac OS X 10_15_7) AppleWebKit/605.1.15 (KHTML, like Gecko) Version/18.4 Safari/605.1.15","Macintosh","Safari","18.4","OS X","10_15_7","https://hz8g1ckzuq.cognition.run/","en-US,en;q=0.9","urmu7p7jlblp2g5","46","[""White""]","No","Female","1803112","null","","<p></p>","null","rating","tcd","repulsion_2","2","washing machines","null","null","null","null","null","null","1","","","","","","","","","",""
"","","","","","rating_trial","survey-html-form","32","707787","0.0-3.0-1.14","196","1","2025-04-14 14:45:33","bb671e3ae32f654b8954ea4c4635f915","","Mozilla/5.0 (Macintosh; Intel Mac OS X 10_15_7) AppleWebKit/605.1.15 (KHTML, like Gecko) Version/18.4 Safari/605.1.15","Macintosh","Safari","18.4","OS X","10_15_7","https://hz8g1ckzuq.cognition.run/","en-US,en;q=0.9","urmu7p7jlblp2g5","46","[""White""]","No","Female","1803112","109359","","","{""price_1"":""350"",""price_2"":""300"",""price_3"":""275""}","rating","tcd","repulsion_2","2","washing machines","null","null","null","null","null","null","1","30","40","20","100","90","100","Average lifespan","Energy savings","",""
"","","","","","rating_trial_setup","html-keyboard-response","33","708091","0.0-3.0-0.15","196","1","2025-04-14 14:45:33","bb671e3ae32f654b8954ea4c4635f915","","Mozilla/5.0 (Macintosh; Intel Mac OS X 10_15_7) AppleWebKit/605.1.15 (KHTML, like Gecko) Version/18.4 Safari/605.1.15","Macintosh","Safari","18.4","OS X","10_15_7","https://hz8g1ckzuq.cognition.run/","en-US,en;q=0.9","urmu7p7jlblp2g5","46","[""White""]","No","Female","1803112","null","","<p></p>","null","rating","wbw","catch","null","washing machines","95","75","50","15","20","40","1","","","","","","","","","",""
"","","","","","rating_trial","survey-html-form","34","783068","0.0-3.0-1.15","196","1","2025-04-14 14:45:33","bb671e3ae32f654b8954ea4c4635f915","","Mozilla/5.0 (Macintosh; Intel Mac OS X 10_15_7) AppleWebKit/605.1.15 (KHTML, like Gecko) Version/18.4 Safari/605.1.15","Macintosh","Safari","18.4","OS X","10_15_7","https://hz8g1ckzuq.cognition.run/","en-US,en;q=0.9","urmu7p7jlblp2g5","46","[""White""]","No","Female","1803112","74974","","","{""price_1"":""150"",""price_2"":""275"",""price_3"":""200""}","rating","wbw","catch","null","washing machines","95","75","50","15","20","40","1","null","null","null","null","null","null","Average lifespan","Energy savings","",""
"","","","","","rating_trial_setup","html-keyboard-response","35","783371","0.0-3.0-0.16","196","1","2025-04-14 14:45:33","bb671e3ae32f654b8954ea4c4635f915","","Mozilla/5.0 (Macintosh; Intel Mac OS X 10_15_7) AppleWebKit/605.1.15 (KHTML, like Gecko) Version/18.4 Safari/605.1.15","Macintosh","Safari","18.4","OS X","10_15_7","https://hz8g1ckzuq.cognition.run/","en-US,en;q=0.9","urmu7p7jlblp2g5","46","[""White""]","No","Female","1803112","null","","<p></p>","null","rating","ctd","attraction_1","2","microwave ovens","null","null","null","null","null","null","1","","","","","","","","","",""
"","","","","","rating_trial","survey-html-form","36","801335","0.0-3.0-1.16","196","1","2025-04-14 14:45:33","bb671e3ae32f654b8954ea4c4635f915","","Mozilla/5.0 (Macintosh; Intel Mac OS X 10_15_7) AppleWebKit/605.1.15 (KHTML, like Gecko) Version/18.4 Safari/605.1.15","Macintosh","Safari","18.4","OS X","10_15_7","https://hz8g1ckzuq.cognition.run/","en-US,en;q=0.9","urmu7p7jlblp2g5","46","[""White""]","No","Female","1803112","17960","","","{""price_1"":""25"",""price_2"":""35"",""price_3"":""30""}","rating","ctd","attraction_1","2","microwave ovens","null","null","null","null","null","null","1","50","60","45","60","50","60","Warranty","Cooking power","",""
"","","","","","rating_trial_setup","html-keyboard-response","37","801637","0.0-3.0-0.17","196","1","2025-04-14 14:45:33","bb671e3ae32f654b8954ea4c4635f915","","Mozilla/5.0 (Macintosh; Intel Mac OS X 10_15_7) AppleWebKit/605.1.15 (KHTML, like Gecko) Version/18.4 Safari/605.1.15","Macintosh","Safari","18.4","OS X","10_15_7","https://hz8g1ckzuq.cognition.run/","en-US,en;q=0.9","urmu7p7jlblp2g5","46","[""White""]","No","Female","1803112","null","","<p></p>","null","rating","bww","catch","null","microwave ovens","70","75","15","5","20","50","1","","","","","","","","","",""
"","","","","","rating_trial","survey-html-form","38","882435","0.0-3.0-1.17","196","1","2025-04-14 14:45:33","bb671e3ae32f654b8954ea4c4635f915","","Mozilla/5.0 (Macintosh; Intel Mac OS X 10_15_7) AppleWebKit/605.1.15 (KHTML, like Gecko) Version/18.4 Safari/605.1.15","Macintosh","Safari","18.4","OS X","10_15_7","https://hz8g1ckzuq.cognition.run/","en-US,en;q=0.9","urmu7p7jlblp2g5","46","[""White""]","No","Female","1803112","80795","","","{""price_1"":""30"",""price_2"":""20"",""price_3"":""25""}","rating","bww","catch","null","microwave ovens","70","75","15","5","20","50","1","null","null","null","null","null","null","Warranty","Cooking power","",""
"","","","","","rating_trial_setup","html-keyboard-response","39","882738","0.0-3.0-0.18","196","1","2025-04-14 14:45:33","bb671e3ae32f654b8954ea4c4635f915","","Mozilla/5.0 (Macintosh; Intel Mac OS X 10_15_7) AppleWebKit/605.1.15 (KHTML, like Gecko) Version/18.4 Safari/605.1.15","Macintosh","Safari","18.4","OS X","10_15_7","https://hz8g1ckzuq.cognition.run/","en-US,en;q=0.9","urmu7p7jlblp2g5","46","[""White""]","No","Female","1803112","null","","<p></p>","null","rating","cdt","attraction_2","1","microwave ovens","null","null","null","null","null","null","2","","","","","","","","","",""
"","","","","","rating_trial","survey-html-form","40","895452","0.0-3.0-1.18","196","1","2025-04-14 14:45:33","bb671e3ae32f654b8954ea4c4635f915","","Mozilla/5.0 (Macintosh; Intel Mac OS X 10_15_7) AppleWebKit/605.1.15 (KHTML, like Gecko) Version/18.4 Safari/605.1.15","Macintosh","Safari","18.4","OS X","10_15_7","https://hz8g1ckzuq.cognition.run/","en-US,en;q=0.9","urmu7p7jlblp2g5","46","[""White""]","No","Female","1803112","12709","","","{""price_1"":""25"",""price_2"":""30"",""price_3"":""35""}","rating","cdt","attraction_2","1","microwave ovens","null","null","null","null","null","null","2","60","50","60","50","60","40","Warranty","Cooking power","",""
"","","","","","rating_trial_setup","html-keyboard-response","41","895755","0.0-3.0-0.19","196","1","2025-04-14 14:45:33","bb671e3ae32f654b8954ea4c4635f915","","Mozilla/5.0 (Macintosh; Intel Mac OS X 10_15_7) AppleWebKit/605.1.15 (KHTML, like Gecko) Version/18.4 Safari/605.1.15","Macintosh","Safari","18.4","OS X","10_15_7","https://hz8g1ckzuq.cognition.run/","en-US,en;q=0.9","urmu7p7jlblp2g5","46","[""White""]","No","Female","1803112","null","","<p></p>","null","rating","bww","catch","null","laptops","80","55","20","30","45","40","2","","","","","","","","","",""
"","","","","","rating_trial","survey-html-form","42","920368","0.0-3.0-1.19","196","1","2025-04-14 14:45:33","bb671e3ae32f654b8954ea4c4635f915","","Mozilla/5.0 (Macintosh; Intel Mac OS X 10_15_7) AppleWebKit/605.1.15 (KHTML, like Gecko) Version/18.4 Safari/605.1.15","Macintosh","Safari","18.4","OS X","10_15_7","https://hz8g1ckzuq.cognition.run/","en-US,en;q=0.9","urmu7p7jlblp2g5","46","[""White""]","No","Female","1803112","24609","","","{""price_1"":""500"",""price_2"":""200"",""price_3"":""300""}","rating","bww","catch","null","laptops","80","55","20","30","45","40","2","null","null","null","null","null","null","Processing speed","Memory (RAM)","",""
"","","","","","rating_trial_setup","html-keyboard-response","43","920671","0.0-3.0-0.20","196","1","2025-04-14 14:45:33","bb671e3ae32f654b8954ea4c4635f915","","Mozilla/5.0 (Macintosh; Intel Mac OS X 10_15_7) AppleWebKit/605.1.15 (KHTML, like Gecko) Version/18.4 Safari/605.1.15","Macintosh","Safari","18.4","OS X","10_15_7","https://hz8g1ckzuq.cognition.run/","en-US,en;q=0.9","urmu7p7jlblp2g5","46","[""White""]","No","Female","1803112","null","","<p></p>","null","rating","tcd","attraction_2","2","televisions","null","null","null","null","null","null","2","","","","","","","","","",""
"","","","","","rating_trial","survey-html-form","44","966452","0.0-3.0-1.20","196","1","2025-04-14 14:45:33","bb671e3ae32f654b8954ea4c4635f915","","Mozilla/5.0 (Macintosh; Intel Mac OS X 10_15_7) AppleWebKit/605.1.15 (KHTML, like Gecko) Version/18.4 Safari/605.1.15","Macintosh","Safari","18.4","OS X","10_15_7","https://hz8g1ckzuq.cognition.run/","en-US,en;q=0.9","urmu7p7jlblp2g5","46","[""White""]","No","Female","1803112","45778","","","{""price_1"":""60"",""price_2"":""65"",""price_3"":""55""}","rating","tcd","attraction_2","2","televisions","null","null","null","null","null","null","2","50","60","40","60","50","60","Screen size","Average lifespan","",""
"","","","","","rating_trial_setup","html-keyboard-response","45","966756","0.0-3.0-0.21","196","1","2025-04-14 14:45:33","bb671e3ae32f654b8954ea4c4635f915","","Mozilla/5.0 (Macintosh; Intel Mac OS X 10_15_7) AppleWebKit/605.1.15 (KHTML, like Gecko) Version/18.4 Safari/605.1.15","Macintosh","Safari","18.4","OS X","10_15_7","https://hz8g1ckzuq.cognition.run/","en-US,en;q=0.9","urmu7p7jlblp2g5","46","[""White""]","No","Female","1803112","null","","<p></p>","null","rating","tdc","attraction_1","1","televisions","null","null","null","null","null","null","1","","","","","","","","","",""
"","","","","","rating_trial","survey-html-form","46","983220","0.0-3.0-1.21","196","1","2025-04-14 14:45:33","bb671e3ae32f654b8954ea4c4635f915","","Mozilla/5.0 (Macintosh; Intel Mac OS X 10_15_7) AppleWebKit/605.1.15 (KHTML, like Gecko) Version/18.4 Safari/605.1.15","Macintosh","Safari","18.4","OS X","10_15_7","https://hz8g1ckzuq.cognition.run/","en-US,en;q=0.9","urmu7p7jlblp2g5","46","[""White""]","No","Female","1803112","16459","","","{""price_1"":""65"",""price_2"":""60"",""price_3"":""55""}","rating","tdc","attraction_1","1","televisions","null","null","null","null","null","null","1","60","50","60","50","60","45","Screen size","Average lifespan","",""
"","","","","","rating_trial_setup","html-keyboard-response","47","983524","0.0-3.0-0.22","196","1","2025-04-14 14:45:33","bb671e3ae32f654b8954ea4c4635f915","","Mozilla/5.0 (Macintosh; Intel Mac OS X 10_15_7) AppleWebKit/605.1.15 (KHTML, like Gecko) Version/18.4 Safari/605.1.15","Macintosh","Safari","18.4","OS X","10_15_7","https://hz8g1ckzuq.cognition.run/","en-US,en;q=0.9","urmu7p7jlblp2g5","46","[""White""]","No","Female","1803112","null","","<p></p>","null","rating","dct","repulsion_2","1","laptops","null","null","null","null","null","null","2","","","","","","","","","",""
"","","","","","rating_trial","survey-html-form","48","1004769","0.0-3.0-1.22","196","1","2025-04-14 14:45:33","bb671e3ae32f654b8954ea4c4635f915","","Mozilla/5.0 (Macintosh; Intel Mac OS X 10_15_7) AppleWebKit/605.1.15 (KHTML, like Gecko) Version/18.4 Safari/605.1.15","Macintosh","Safari","18.4","OS X","10_15_7","https://hz8g1ckzuq.cognition.run/","en-US,en;q=0.9","urmu7p7jlblp2g5","46","[""White""]","No","Female","1803112","21241","","","{""price_1"":""450"",""price_2"":""475"",""price_3"":""500""}","rating","dct","repulsion_2","1","laptops","null","null","null","null","null","null","2","100","90","100","30","40","20","Processing speed","Memory (RAM)","",""
"","","","","","rating_trial_setup","html-keyboard-response","49","1005072","0.0-3.0-0.23","196","1","2025-04-14 14:45:33","bb671e3ae32f654b8954ea4c4635f915","","Mozilla/5.0 (Macintosh; Intel Mac OS X 10_15_7) AppleWebKit/605.1.15 (KHTML, like Gecko) Version/18.4 Safari/605.1.15","Macintosh","Safari","18.4","OS X","10_15_7","https://hz8g1ckzuq.cognition.run/","en-US,en;q=0.9","urmu7p7jlblp2g5","46","[""White""]","No","Female","1803112","null","","<p></p>","null","rating","dtc","repulsion_1","2","televisions","null","null","null","null","null","null","1","","","","","","","","","",""
"","","","","","rating_trial","survey-html-form","50","1021036","0.0-3.0-1.23","196","1","2025-04-14 14:45:33","bb671e3ae32f654b8954ea4c4635f915","","Mozilla/5.0 (Macintosh; Intel Mac OS X 10_15_7) AppleWebKit/605.1.15 (KHTML, like Gecko) Version/18.4 Safari/605.1.15","Macintosh","Safari","18.4","OS X","10_15_7","https://hz8g1ckzuq.cognition.run/","en-US,en;q=0.9","urmu7p7jlblp2g5","46","[""White""]","No","Female","1803112","15959","","","{""price_1"":""60"",""price_2"":""65"",""price_3"":""70""}","rating","dtc","repulsion_1","2","televisions","null","null","null","null","null","null","1","30","40","25","100","90","100","Screen size","Average lifespan","",""
"","","","","","rating_trial_setup","html-keyboard-response","51","1021339","0.0-3.0-0.24","196","1","2025-04-14 14:45:33","bb671e3ae32f654b8954ea4c4635f915","","Mozilla/5.0 (Macintosh; Intel Mac OS X 10_15_7) AppleWebKit/605.1.15 (KHTML, like Gecko) Version/18.4 Safari/605.1.15","Macintosh","Safari","18.4","OS X","10_15_7","https://hz8g1ckzuq.cognition.run/","en-US,en;q=0.9","urmu7p7jlblp2g5","46","[""White""]","No","Female","1803112","null","","<p></p>","null","rating","wbw","catch","null","televisions","95","95","30","30","40","30","2","","","","","","","","","",""
"","","","","","rating_trial","survey-html-form","52","1042735","0.0-3.0-1.24","196","1","2025-04-14 14:45:33","bb671e3ae32f654b8954ea4c4635f915","","Mozilla/5.0 (Macintosh; Intel Mac OS X 10_15_7) AppleWebKit/605.1.15 (KHTML, like Gecko) Version/18.4 Safari/605.1.15","Macintosh","Safari","18.4","OS X","10_15_7","https://hz8g1ckzuq.cognition.run/","en-US,en;q=0.9","urmu7p7jlblp2g5","46","[""White""]","No","Female","1803112","21392","","","{""price_1"":""55"",""price_2"":""100"",""price_3"":""60""}","rating","wbw","catch","null","televisions","95","95","30","30","40","30","2","null","null","null","null","null","null","Screen size","Average lifespan","",""
"","","","","","rating_trial_setup","html-keyboard-response","53","1043038","0.0-3.0-0.25","196","1","2025-04-14 14:45:33","bb671e3ae32f654b8954ea4c4635f915","","Mozilla/5.0 (Macintosh; Intel Mac OS X 10_15_7) AppleWebKit/605.1.15 (KHTML, like Gecko) Version/18.4 Safari/605.1.15","Macintosh","Safari","18.4","OS X","10_15_7","https://hz8g1ckzuq.cognition.run/","en-US,en;q=0.9","urmu7p7jlblp2g5","46","[""White""]","No","Female","1803112","null","","<p></p>","null","rating","tdc","repulsion_2","2","microwave ovens","null","null","null","null","null","null","1","","","","","","","","","",""
"","","","","","rating_trial","survey-html-form","54","1079969","0.0-3.0-1.25","196","1","2025-04-14 14:45:33","bb671e3ae32f654b8954ea4c4635f915","","Mozilla/5.0 (Macintosh; Intel Mac OS X 10_15_7) AppleWebKit/605.1.15 (KHTML, like Gecko) Version/18.4 Safari/605.1.15","Macintosh","Safari","18.4","OS X","10_15_7","https://hz8g1ckzuq.cognition.run/","en-US,en;q=0.9","urmu7p7jlblp2g5","46","[""White""]","No","Female","1803112","36927","","","{""price_1"":""35"",""price_2"":""30"",""price_3"":""35""}","rating","tdc","repulsion_2","2","microwave ovens","null","null","null","null","null","null","1","30","40","20","100","90","100","Warranty","Cooking power","",""
"","","","","","rating_trial_setup","html-keyboard-response","55","1080272","0.0-3.0-0.26","196","1","2025-04-14 14:45:33","bb671e3ae32f654b8954ea4c4635f915","","Mozilla/5.0 (Macintosh; Intel Mac OS X 10_15_7) AppleWebKit/605.1.15 (KHTML, like Gecko) Version/18.4 Safari/605.1.15","Macintosh","Safari","18.4","OS X","10_15_7","https://hz8g1ckzuq.cognition.run/","en-US,en;q=0.9","urmu7p7jlblp2g5","46","[""White""]","No","Female","1803112","null","","<p></p>","null","rating","dtc","repulsion_1","1","televisions","null","null","null","null","null","null","2","","","","","","","","","",""
"","","","","","rating_trial","survey-html-form","56","1112202","0.0-3.0-1.26","196","1","2025-04-14 14:45:33","bb671e3ae32f654b8954ea4c4635f915","","Mozilla/5.0 (Macintosh; Intel Mac OS X 10_15_7) AppleWebKit/605.1.15 (KHTML, like Gecko) Version/18.4 Safari/605.1.15","Macintosh","Safari","18.4","OS X","10_15_7","https://hz8g1ckzuq.cognition.run/","en-US,en;q=0.9","urmu7p7jlblp2g5","46","[""White""]","No","Female","1803112","31926","","","{""price_1"":""90"",""price_2"":""95"",""price_3"":""95""}","rating","dtc","repulsion_1","1","televisions","null","null","null","null","null","null","2","100","90","100","30","40","25","Screen size","Average lifespan","",""
"","","","","","rating_trial_setup","html-keyboard-response","57","1112505","0.0-3.0-0.27","196","1","2025-04-14 14:45:33","bb671e3ae32f654b8954ea4c4635f915","","Mozilla/5.0 (Macintosh; Intel Mac OS X 10_15_7) AppleWebKit/605.1.15 (KHTML, like Gecko) Version/18.4 Safari/605.1.15","Macintosh","Safari","18.4","OS X","10_15_7","https://hz8g1ckzuq.cognition.run/","en-US,en;q=0.9","urmu7p7jlblp2g5","46","[""White""]","No","Female","1803112","null","","<p></p>","null","rating","wwb","catch","null","washing machines","80","65","50","5","20","35","1","","","","","","","","","",""
"","","","","","rating_trial","survey-html-form","58","1137919","0.0-3.0-1.27","196","1","2025-04-14 14:45:33","bb671e3ae32f654b8954ea4c4635f915","","Mozilla/5.0 (Macintosh; Intel Mac OS X 10_15_7) AppleWebKit/605.1.15 (KHTML, like Gecko) Version/18.4 Safari/605.1.15","Macintosh","Safari","18.4","OS X","10_15_7","https://hz8g1ckzuq.cognition.run/","en-US,en;q=0.9","urmu7p7jlblp2g5","46","[""White""]","No","Female","1803112","25410","","","{""price_1"":""100"",""price_2"":""150"",""price_3"":""200""}","rating","wwb","catch","null","washing machines","80","65","50","5","20","35","1","null","null","null","null","null","null","Average lifespan","Energy savings","",""
"","","","","","rating_trial_setup","html-keyboard-response","59","1138222","0.0-3.0-0.28","196","1","2025-04-14 14:45:33","bb671e3ae32f654b8954ea4c4635f915","","Mozilla/5.0 (Macintosh; Intel Mac OS X 10_15_7) AppleWebKit/605.1.15 (KHTML, like Gecko) Version/18.4 Safari/605.1.15","Macintosh","Safari","18.4","OS X","10_15_7","https://hz8g1ckzuq.cognition.run/","en-US,en;q=0.9","urmu7p7jlblp2g5","46","[""White""]","No","Female","1803112","null","","<p></p>","null","rating","wbw","catch","null","televisions","90","75","5","15","45","30","2","","","","","","","","","",""
"","","","","","rating_trial","survey-html-form","60","1161169","0.0-3.0-1.28","196","1","2025-04-14 14:45:33","bb671e3ae32f654b8954ea4c4635f915","","Mozilla/5.0 (Macintosh; Intel Mac OS X 10_15_7) AppleWebKit/605.1.15 (KHTML, like Gecko) Version/18.4 Safari/605.1.15","Macintosh","Safari","18.4","OS X","10_15_7","https://hz8g1ckzuq.cognition.run/","en-US,en;q=0.9","urmu7p7jlblp2g5","46","[""White""]","No","Female","1803112","22942","","","{""price_1"":""50"",""price_2"":""95"",""price_3"":""70""}","rating","wbw","catch","null","televisions","90","75","5","15","45","30","2","null","null","null","null","null","null","Screen size","Average lifespan","",""
"","","","","","rating_trial_setup","html-keyboard-response","61","1161472","0.0-3.0-0.29","196","1","2025-04-14 14:45:33","bb671e3ae32f654b8954ea4c4635f915","","Mozilla/5.0 (Macintosh; Intel Mac OS X 10_15_7) AppleWebKit/605.1.15 (KHTML, like Gecko) Version/18.4 Safari/605.1.15","Macintosh","Safari","18.4","OS X","10_15_7","https://hz8g1ckzuq.cognition.run/","en-US,en;q=0.9","urmu7p7jlblp2g5","46","[""White""]","No","Female","1803112","null","","<p></p>","null","rating","dtc","attraction_2","2","laptops","null","null","null","null","null","null","1","","","","","","","","","",""
"","","","","","rating_trial","survey-html-form","62","1178252","0.0-3.0-1.29","196","1","2025-04-14 14:45:33","bb671e3ae32f654b8954ea4c4635f915","","Mozilla/5.0 (Macintosh; Intel Mac OS X 10_15_7) AppleWebKit/605.1.15 (KHTML, like Gecko) Version/18.4 Safari/605.1.15","Macintosh","Safari","18.4","OS X","10_15_7","https://hz8g1ckzuq.cognition.run/","en-US,en;q=0.9","urmu7p7jlblp2g5","46","[""White""]","No","Female","1803112","16775","","","{""price_1"":""450"",""price_2"":""500"",""price_3"":""500""}","rating","dtc","attraction_2","2","laptops","null","null","null","null","null","null","1","50","60","40","60","50","60","Processing speed","Memory (RAM)","",""
"","","","","","rating_trial_setup","html-keyboard-response","63","1178556","0.0-3.0-0.30","196","1","2025-04-14 14:45:33","bb671e3ae32f654b8954ea4c4635f915","","Mozilla/5.0 (Macintosh; Intel Mac OS X 10_15_7) AppleWebKit/605.1.15 (KHTML, like Gecko) Version/18.4 Safari/605.1.15","Macintosh","Safari","18.4","OS X","10_15_7","https://hz8g1ckzuq.cognition.run/","en-US,en;q=0.9","urmu7p7jlblp2g5","46","[""White""]","No","Female","1803112","null","","<p></p>","null","rating","tcd","repulsion_1","1","washing machines","null","null","null","null","null","null","1","","","","","","","","","",""
"","","","","","rating_trial","survey-html-form","64","1210518","0.0-3.0-1.30","196","1","2025-04-14 14:45:33","bb671e3ae32f654b8954ea4c4635f915","","Mozilla/5.0 (Macintosh; Intel Mac OS X 10_15_7) AppleWebKit/605.1.15 (KHTML, like Gecko) Version/18.4 Safari/605.1.15","Macintosh","Safari","18.4","OS X","10_15_7","https://hz8g1ckzuq.cognition.run/","en-US,en;q=0.9","urmu7p7jlblp2g5","46","[""White""]","No","Female","1803112","31958","","","{""price_1"":""175"",""price_2"":""175"",""price_3"":""150""}","rating","tcd","repulsion_1","1","washing machines","null","null","null","null","null","null","1","100","90","100","30","40","25","Average lifespan","Energy savings","",""
"","","","","","rating_trial_setup","html-keyboard-response","65","1210821","0.0-3.0-0.31","196","1","2025-04-14 14:45:33","bb671e3ae32f654b8954ea4c4635f915","","Mozilla/5.0 (Macintosh; Intel Mac OS X 10_15_7) AppleWebKit/605.1.15 (KHTML, like Gecko) Version/18.4 Safari/605.1.15","Macintosh","Safari","18.4","OS X","10_15_7","https://hz8g1ckzuq.cognition.run/","en-US,en;q=0.9","urmu7p7jlblp2g5","46","[""White""]","No","Female","1803112","null","","<p></p>","null","rating","wwb","catch","null","laptops","55","60","25","15","25","10","1","","","","","","","","","",""
"","","","","","rating_trial","survey-html-form","66","1235569","0.0-3.0-1.31","196","1","2025-04-14 14:45:33","bb671e3ae32f654b8954ea4c4635f915","","Mozilla/5.0 (Macintosh; Intel Mac OS X 10_15_7) AppleWebKit/605.1.15 (KHTML, like Gecko) Version/18.4 Safari/605.1.15","Macintosh","Safari","18.4","OS X","10_15_7","https://hz8g1ckzuq.cognition.run/","en-US,en;q=0.9","urmu7p7jlblp2g5","46","[""White""]","No","Female","1803112","24744","","","{""price_1"":""350"",""price_2"":""300"",""price_3"":""400""}","rating","wwb","catch","null","laptops","55","60","25","15","25","10","1","null","null","null","null","null","null","Processing speed","Memory (RAM)","",""
"","","","","","rating_trial_setup","html-keyboard-response","67","1235872","0.0-3.0-0.32","196","1","2025-04-14 14:45:33","bb671e3ae32f654b8954ea4c4635f915","","Mozilla/5.0 (Macintosh; Intel Mac OS X 10_15_7) AppleWebKit/605.1.15 (KHTML, like Gecko) Version/18.4 Safari/605.1.15","Macintosh","Safari","18.4","OS X","10_15_7","https://hz8g1ckzuq.cognition.run/","en-US,en;q=0.9","urmu7p7jlblp2g5","46","[""White""]","No","Female","1803112","null","","<p></p>","null","rating","tdc","attraction_2","1","washing machines","null","null","null","null","null","null","1","","","","","","","","","",""
"","","","","","rating_trial","survey-html-form","68","1258436","0.0-3.0-1.32","196","1","2025-04-14 14:45:33","bb671e3ae32f654b8954ea4c4635f915","","Mozilla/5.0 (Macintosh; Intel Mac OS X 10_15_7) AppleWebKit/605.1.15 (KHTML, like Gecko) Version/18.4 Safari/605.1.15","Macintosh","Safari","18.4","OS X","10_15_7","https://hz8g1ckzuq.cognition.run/","en-US,en;q=0.9","urmu7p7jlblp2g5","46","[""White""]","No","Female","1803112","22559","","","{""price_1"":""175"",""price_2"":""150"",""price_3"":""175""}","rating","tdc","attraction_2","1","washing machines","null","null","null","null","null","null","1","60","50","60","50","60","40","Average lifespan","Energy savings","",""
"","","","","","rating_trial_setup","html-keyboard-response","69","1258739","0.0-3.0-0.33","196","1","2025-04-14 14:45:33","bb671e3ae32f654b8954ea4c4635f915","","Mozilla/5.0 (Macintosh; Intel Mac OS X 10_15_7) AppleWebKit/605.1.15 (KHTML, like Gecko) Version/18.4 Safari/605.1.15","Macintosh","Safari","18.4","OS X","10_15_7","https://hz8g1ckzuq.cognition.run/","en-US,en;q=0.9","urmu7p7jlblp2g5","46","[""White""]","No","Female","1803112","null","","<p></p>","null","rating","dct","attraction_1","1","laptops","null","null","null","null","null","null","2","","","","","","","","","",""
"","","","","","rating_trial","survey-html-form","70","1275619","0.0-3.0-1.33","196","1","2025-04-14 14:45:33","bb671e3ae32f654b8954ea4c4635f915","","Mozilla/5.0 (Macintosh; Intel Mac OS X 10_15_7) AppleWebKit/605.1.15 (KHTML, like Gecko) Version/18.4 Safari/605.1.15","Macintosh","Safari","18.4","OS X","10_15_7","https://hz8g1ckzuq.cognition.run/","en-US,en;q=0.9","urmu7p7jlblp2g5","46","[""White""]","No","Female","1803112","16876","","","{""price_1"":""475"",""price_2"":""500"",""price_3"":""500""}","rating","dct","attraction_1","1","laptops","null","null","null","null","null","null","2","60","50","60","50","60","45","Processing speed","Memory (RAM)","",""
"","","","","","rating_trial_setup","html-keyboard-response","71","1275923","0.0-3.0-0.34","196","1","2025-04-14 14:45:33","bb671e3ae32f654b8954ea4c4635f915","","Mozilla/5.0 (Macintosh; Intel Mac OS X 10_15_7) AppleWebKit/605.1.15 (KHTML, like Gecko) Version/18.4 Safari/605.1.15","Macintosh","Safari","18.4","OS X","10_15_7","https://hz8g1ckzuq.cognition.run/","en-US,en;q=0.9","urmu7p7jlblp2g5","46","[""White""]","No","Female","1803112","null","","<p></p>","null","rating","dtc","repulsion_1","1","microwave ovens","null","null","null","null","null","null","1","","","","","","","","","",""
"","","","","","rating_trial","survey-html-form","72","1291504","0.0-3.0-1.34","196","1","2025-04-14 14:45:33","bb671e3ae32f654b8954ea4c4635f915","","Mozilla/5.0 (Macintosh; Intel Mac OS X 10_15_7) AppleWebKit/605.1.15 (KHTML, like Gecko) Version/18.4 Safari/605.1.15","Macintosh","Safari","18.4","OS X","10_15_7","https://hz8g1ckzuq.cognition.run/","en-US,en;q=0.9","urmu7p7jlblp2g5","46","[""White""]","No","Female","1803112","15576","","","{""price_1"":""25"",""price_2"":""30"",""price_3"":""35""}","rating","dtc","repulsion_1","1","microwave ovens","null","null","null","null","null","null","1","100","90","100","30","40","25","Warranty","Cooking power","",""
"","","","","","rating_trial_setup","html-keyboard-response","73","1291808","0.0-3.0-0.35","196","1","2025-04-14 14:45:33","bb671e3ae32f654b8954ea4c4635f915","","Mozilla/5.0 (Macintosh; Intel Mac OS X 10_15_7) AppleWebKit/605.1.15 (KHTML, like Gecko) Version/18.4 Safari/605.1.15","Macintosh","Safari","18.4","OS X","10_15_7","https://hz8g1ckzuq.cognition.run/","en-US,en;q=0.9","urmu7p7jlblp2g5","46","[""White""]","No","Female","1803112","null","","<p></p>","null","rating","ctd","attraction_1","2","laptops","null","null","null","null","null","null","2","","","","","","","","","",""
"","","","","","rating_trial","survey-html-form","74","1310352","0.0-3.0-1.35","196","1","2025-04-14 14:45:33","bb671e3ae32f654b8954ea4c4635f915","","Mozilla/5.0 (Macintosh; Intel Mac OS X 10_15_7) AppleWebKit/605.1.15 (KHTML, like Gecko) Version/18.4 Safari/605.1.15","Macintosh","Safari","18.4","OS X","10_15_7","https://hz8g1ckzuq.cognition.run/","en-US,en;q=0.9","urmu7p7jlblp2g5","46","[""White""]","No","Female","1803112","18539","","","{""price_1"":""500"",""price_2"":""500"",""price_3"":""475""}","rating","ctd","attraction_1","2","laptops","null","null","null","null","null","null","2","50","60","45","60","50","60","Processing speed","Memory (RAM)","",""
"","","","","","rating_trial_setup","html-keyboard-response","75","1310656","0.0-3.0-0.36","196","1","2025-04-14 14:45:33","bb671e3ae32f654b8954ea4c4635f915","","Mozilla/5.0 (Macintosh; Intel Mac OS X 10_15_7) AppleWebKit/605.1.15 (KHTML, like Gecko) Version/18.4 Safari/605.1.15","Macintosh","Safari","18.4","OS X","10_15_7","https://hz8g1ckzuq.cognition.run/","en-US,en;q=0.9","urmu7p7jlblp2g5","46","[""White""]","No","Female","1803112","null","","<p></p>","null","rating","dct","repulsion_2","1","washing machines","null","null","null","null","null","null","2","","","","","","","","","",""
"","","","","","rating_trial","survey-html-form","76","1331270","0.0-3.0-1.36","196","1","2025-04-14 14:45:33","bb671e3ae32f654b8954ea4c4635f915","","Mozilla/5.0 (Macintosh; Intel Mac OS X 10_15_7) AppleWebKit/605.1.15 (KHTML, like Gecko) Version/18.4 Safari/605.1.15","Macintosh","Safari","18.4","OS X","10_15_7","https://hz8g1ckzuq.cognition.run/","en-US,en;q=0.9","urmu7p7jlblp2g5","46","[""White""]","No","Female","1803112","20604","","","{""price_1"":""175"",""price_2"":""200"",""price_3"":""200""}","rating","dct","repulsion_2","1","washing machines","null","null","null","null","null","null","2","100","90","100","30","40","20","Average lifespan","Energy savings","",""
"","","","","","rating_trial_setup","html-keyboard-response","77","1331574","0.0-3.0-0.37","196","1","2025-04-14 14:45:33","bb671e3ae32f654b8954ea4c4635f915","","Mozilla/5.0 (Macintosh; Intel Mac OS X 10_15_7) AppleWebKit/605.1.15 (KHTML, like Gecko) Version/18.4 Safari/605.1.15","Macintosh","Safari","18.4","OS X","10_15_7","https://hz8g1ckzuq.cognition.run/","en-US,en;q=0.9","urmu7p7jlblp2g5","46","[""White""]","No","Female","1803112","null","","<p></p>","null","rating","dct","attraction_2","1","laptops","null","null","null","null","null","null","1","","","","","","","","","",""
"","","","","","rating_trial","survey-html-form","78","1346053","0.0-3.0-1.37","196","1","2025-04-14 14:45:33","bb671e3ae32f654b8954ea4c4635f915","","Mozilla/5.0 (Macintosh; Intel Mac OS X 10_15_7) AppleWebKit/605.1.15 (KHTML, like Gecko) Version/18.4 Safari/605.1.15","Macintosh","Safari","18.4","OS X","10_15_7","https://hz8g1ckzuq.cognition.run/","en-US,en;q=0.9","urmu7p7jlblp2g5","46","[""White""]","No","Female","1803112","14473","","","{""price_1"":""475"",""price_2"":""500"",""price_3"":""500""}","rating","dct","attraction_2","1","laptops","null","null","null","null","null","null","1","60","50","60","50","60","40","Processing speed","Memory (RAM)","",""
"","","","","","rating_trial_setup","html-keyboard-response","79","1346356","0.0-3.0-0.38","196","1","2025-04-14 14:45:33","bb671e3ae32f654b8954ea4c4635f915","","Mozilla/5.0 (Macintosh; Intel Mac OS X 10_15_7) AppleWebKit/605.1.15 (KHTML, like Gecko) Version/18.4 Safari/605.1.15","Macintosh","Safari","18.4","OS X","10_15_7","https://hz8g1ckzuq.cognition.run/","en-US,en;q=0.9","urmu7p7jlblp2g5","46","[""White""]","No","Female","1803112","null","","<p></p>","null","rating","dct","attraction_2","2","washing machines","null","null","null","null","null","null","1","","","","","","","","","",""
"","","","","","rating_trial","survey-html-form","80","1363537","0.0-3.0-1.38","196","1","2025-04-14 14:45:33","bb671e3ae32f654b8954ea4c4635f915","","Mozilla/5.0 (Macintosh; Intel Mac OS X 10_15_7) AppleWebKit/605.1.15 (KHTML, like Gecko) Version/18.4 Safari/605.1.15","Macintosh","Safari","18.4","OS X","10_15_7","https://hz8g1ckzuq.cognition.run/","en-US,en;q=0.9","urmu7p7jlblp2g5","46","[""White""]","No","Female","1803112","17176","","","{""price_1"":""175"",""price_2"":""200"",""price_3"":""200""}","rating","dct","attraction_2","2","washing machines","null","null","null","null","null","null","1","50","60","40","60","50","60","Average lifespan","Energy savings","",""
"","","","","","rating_trial_setup","html-keyboard-response","81","1363841","0.0-3.0-0.39","196","1","2025-04-14 14:45:33","bb671e3ae32f654b8954ea4c4635f915","","Mozilla/5.0 (Macintosh; Intel Mac OS X 10_15_7) AppleWebKit/605.1.15 (KHTML, like Gecko) Version/18.4 Safari/605.1.15","Macintosh","Safari","18.4","OS X","10_15_7","https://hz8g1ckzuq.cognition.run/","en-US,en;q=0.9","urmu7p7jlblp2g5","46","[""White""]","No","Female","1803112","null","","<p></p>","null","rating","cdt","repulsion_2","1","televisions","null","null","null","null","null","null","1","","","","","","","","","",""
"","","","","","rating_trial","survey-html-form","82","1384769","0.0-3.0-1.39","196","1","2025-04-14 14:45:33","bb671e3ae32f654b8954ea4c4635f915","","Mozilla/5.0 (Macintosh; Intel Mac OS X 10_15_7) AppleWebKit/605.1.15 (KHTML, like Gecko) Version/18.4 Safari/605.1.15","Macintosh","Safari","18.4","OS X","10_15_7","https://hz8g1ckzuq.cognition.run/","en-US,en;q=0.9","urmu7p7jlblp2g5","46","[""White""]","No","Female","1803112","20923","","","{""price_1"":""75"",""price_2"":""70"",""price_3"":""75""}","rating","cdt","repulsion_2","1","televisions","null","null","null","null","null","null","1","100","90","100","30","40","20","Screen size","Average lifespan","",""
"","","","","","","instructions","83","1428702","0.0-4.0","196","1","2025-04-14 14:45:33","bb671e3ae32f654b8954ea4c4635f915","","Mozilla/5.0 (Macintosh; Intel Mac OS X 10_15_7) AppleWebKit/605.1.15 (KHTML, like Gecko) Version/18.4 Safari/605.1.15","Macintosh","Safari","18.4","OS X","10_15_7","https://hz8g1ckzuq.cognition.run/","en-US,en;q=0.9","urmu7p7jlblp2g5","46","[""White""]","No","Female","1803112","43932","[{""page_index"":0,""viewing_time"":2032},{""page_index"":1,""viewing_time"":1967},{""page_index"":2,""viewing_time"":3500},{""page_index"":3,""viewing_time"":4000},{""page_index"":4,""viewing_time"":4900},{""page_index"":5,""viewing_time"":3448},{""page_index"":6,""viewing_time"":19053},{""page_index"":7,""viewing_time"":5031}]","","","","","","","","","","","","","","","","","","","","","","","",""
"","","","","","choice_trial_setup","html-keyboard-response","84","1429007","0.0-5.0-0.0","196","1","2025-04-14 14:45:33","bb671e3ae32f654b8954ea4c4635f915","","Mozilla/5.0 (Macintosh; Intel Mac OS X 10_15_7) AppleWebKit/605.1.15 (KHTML, like Gecko) Version/18.4 Safari/605.1.15","Macintosh","Safari","18.4","OS X","10_15_7","https://hz8g1ckzuq.cognition.run/","en-US,en;q=0.9","urmu7p7jlblp2g5","46","[""White""]","No","Female","1803112","null","","<p></p>","null","choice","wwb","catch","null","microwave ovens","65","80","45","10","20","45","2","","","","","","","","","",""
"","","","","","choice_trial","survey-html-form","85","1438755","0.0-5.0-1.0","196","1","2025-04-14 14:45:33","bb671e3ae32f654b8954ea4c4635f915","","Mozilla/5.0 (Macintosh; Intel Mac OS X 10_15_7) AppleWebKit/605.1.15 (KHTML, like Gecko) Version/18.4 Safari/605.1.15","Macintosh","Safari","18.4","OS X","10_15_7","https://hz8g1ckzuq.cognition.run/","en-US,en;q=0.9","urmu7p7jlblp2g5","46","[""White""]","No","Female","1803112","9739","","","{""product_choice"":""C""}","choice","wwb","catch","null","microwave ovens","65","80","45","10","20","45","2","null","null","null","null","null","null","Warranty","Cooking power","",""
"","","","","","choice_trial_setup","html-keyboard-response","86","1439060","0.0-5.0-0.1","196","1","2025-04-14 14:45:33","bb671e3ae32f654b8954ea4c4635f915","","Mozilla/5.0 (Macintosh; Intel Mac OS X 10_15_7) AppleWebKit/605.1.15 (KHTML, like Gecko) Version/18.4 Safari/605.1.15","Macintosh","Safari","18.4","OS X","10_15_7","https://hz8g1ckzuq.cognition.run/","en-US,en;q=0.9","urmu7p7jlblp2g5","46","[""White""]","No","Female","1803112","null","","<p></p>","null","choice","ctd","repulsion_1","2","laptops","null","null","null","null","null","null","1","","","","","","","","","",""
"","","","","","choice_trial","survey-html-form","87","1447155","0.0-5.0-1.1","196","1","2025-04-14 14:45:33","bb671e3ae32f654b8954ea4c4635f915","","Mozilla/5.0 (Macintosh; Intel Mac OS X 10_15_7) AppleWebKit/605.1.15 (KHTML, like Gecko) Version/18.4 Safari/605.1.15","Macintosh","Safari","18.4","OS X","10_15_7","https://hz8g1ckzuq.cognition.run/","en-US,en;q=0.9","urmu7p7jlblp2g5","46","[""White""]","No","Female","1803112","8089","","","{""product_choice"":""A""}","choice","ctd","repulsion_1","2","laptops","null","null","null","null","null","null","1","30","40","25","100","90","100","Processing speed","Memory (RAM)","",""
"","","","","","choice_trial_setup","html-keyboard-response","88","1447461","0.0-5.0-0.2","196","1","2025-04-14 14:45:33","bb671e3ae32f654b8954ea4c4635f915","","Mozilla/5.0 (Macintosh; Intel Mac OS X 10_15_7) AppleWebKit/605.1.15 (KHTML, like Gecko) Version/18.4 Safari/605.1.15","Macintosh","Safari","18.4","OS X","10_15_7","https://hz8g1ckzuq.cognition.run/","en-US,en;q=0.9","urmu7p7jlblp2g5","46","[""White""]","No","Female","1803112","null","","<p></p>","null","choice","ctd","attraction_1","1","washing machines","null","null","null","null","null","null","2","","","","","","","","","",""
"","","","","","choice_trial","survey-html-form","89","1455354","0.0-5.0-1.2","196","1","2025-04-14 14:45:33","bb671e3ae32f654b8954ea4c4635f915","","Mozilla/5.0 (Macintosh; Intel Mac OS X 10_15_7) AppleWebKit/605.1.15 (KHTML, like Gecko) Version/18.4 Safari/605.1.15","Macintosh","Safari","18.4","OS X","10_15_7","https://hz8g1ckzuq.cognition.run/","en-US,en;q=0.9","urmu7p7jlblp2g5","46","[""White""]","No","Female","1803112","7885","","","{""product_choice"":""B""}","choice","ctd","attraction_1","1","washing machines","null","null","null","null","null","null","2","60","50","60","50","60","45","Average lifespan","Energy savings","",""
"","","","","","choice_trial_setup","html-keyboard-response","90","1455659","0.0-5.0-0.3","196","1","2025-04-14 14:45:33","bb671e3ae32f654b8954ea4c4635f915","","Mozilla/5.0 (Macintosh; Intel Mac OS X 10_15_7) AppleWebKit/605.1.15 (KHTML, like Gecko) Version/18.4 Safari/605.1.15","Macintosh","Safari","18.4","OS X","10_15_7","https://hz8g1ckzuq.cognition.run/","en-US,en;q=0.9","urmu7p7jlblp2g5","46","[""White""]","No","Female","1803112","null","","<p></p>","null","choice","cdt","attraction_2","1","microwave ovens","null","null","null","null","null","null","2","","","","","","","","","",""
"","","","","","choice_trial","survey-html-form","91","1465787","0.0-5.0-1.3","196","1","2025-04-14 14:45:33","bb671e3ae32f654b8954ea4c4635f915","","Mozilla/5.0 (Macintosh; Intel Mac OS X 10_15_7) AppleWebKit/605.1.15 (KHTML, like Gecko) Version/18.4 Safari/605.1.15","Macintosh","Safari","18.4","OS X","10_15_7","https://hz8g1ckzuq.cognition.run/","en-US,en;q=0.9","urmu7p7jlblp2g5","46","[""White""]","No","Female","1803112","10122","","","{""product_choice"":""A""}","choice","cdt","attraction_2","1","microwave ovens","null","null","null","null","null","null","2","60","50","60","50","60","40","Warranty","Cooking power","",""
"","","","","","choice_trial_setup","html-keyboard-response","92","1466091","0.0-5.0-0.4","196","1","2025-04-14 14:45:33","bb671e3ae32f654b8954ea4c4635f915","","Mozilla/5.0 (Macintosh; Intel Mac OS X 10_15_7) AppleWebKit/605.1.15 (KHTML, like Gecko) Version/18.4 Safari/605.1.15","Macintosh","Safari","18.4","OS X","10_15_7","https://hz8g1ckzuq.cognition.run/","en-US,en;q=0.9","urmu7p7jlblp2g5","46","[""White""]","No","Female","1803112","null","","<p></p>","null","choice","cdt","attraction_1","2","washing machines","null","null","null","null","null","null","1","","","","","","","","","",""
"","","","","","choice_trial","survey-html-form","93","1475055","0.0-5.0-1.4","196","1","2025-04-14 14:45:33","bb671e3ae32f654b8954ea4c4635f915","","Mozilla/5.0 (Macintosh; Intel Mac OS X 10_15_7) AppleWebKit/605.1.15 (KHTML, like Gecko) Version/18.4 Safari/605.1.15","Macintosh","Safari","18.4","OS X","10_15_7","https://hz8g1ckzuq.cognition.run/","en-US,en;q=0.9","urmu7p7jlblp2g5","46","[""White""]","No","Female","1803112","8958","","","{""product_choice"":""C""}","choice","cdt","attraction_1","2","washing machines","null","null","null","null","null","null","1","50","60","45","60","50","60","Average lifespan","Energy savings","",""
"","","","","","choice_trial_setup","html-keyboard-response","94","1475360","0.0-5.0-0.5","196","1","2025-04-14 14:45:33","bb671e3ae32f654b8954ea4c4635f915","","Mozilla/5.0 (Macintosh; Intel Mac OS X 10_15_7) AppleWebKit/605.1.15 (KHTML, like Gecko) Version/18.4 Safari/605.1.15","Macintosh","Safari","18.4","OS X","10_15_7","https://hz8g1ckzuq.cognition.run/","en-US,en;q=0.9","urmu7p7jlblp2g5","46","[""White""]","No","Female","1803112","null","","<p></p>","null","choice","dtc","attraction_2","2","microwave ovens","null","null","null","null","null","null","1","","","","","","","","","",""
"","","","","","choice_trial","survey-html-form","95","1480790","0.0-5.0-1.5","196","1","2025-04-14 14:45:33","bb671e3ae32f654b8954ea4c4635f915","","Mozilla/5.0 (Macintosh; Intel Mac OS X 10_15_7) AppleWebKit/605.1.15 (KHTML, like Gecko) Version/18.4 Safari/605.1.15","Macintosh","Safari","18.4","OS X","10_15_7","https://hz8g1ckzuq.cognition.run/","en-US,en;q=0.9","urmu7p7jlblp2g5","46","[""White""]","No","Female","1803112","5424","","","{""product_choice"":""B""}","choice","dtc","attraction_2","2","microwave ovens","null","null","null","null","null","null","1","50","60","40","60","50","60","Warranty","Cooking power","",""
"","","","","","choice_trial_setup","html-keyboard-response","96","1481094","0.0-5.0-0.6","196","1","2025-04-14 14:45:33","bb671e3ae32f654b8954ea4c4635f915","","Mozilla/5.0 (Macintosh; Intel Mac OS X 10_15_7) AppleWebKit/605.1.15 (KHTML, like Gecko) Version/18.4 Safari/605.1.15","Macintosh","Safari","18.4","OS X","10_15_7","https://hz8g1ckzuq.cognition.run/","en-US,en;q=0.9","urmu7p7jlblp2g5","46","[""White""]","No","Female","1803112","null","","<p></p>","null","choice","tcd","repulsion_1","2","microwave ovens","null","null","null","null","null","null","2","","","","","","","","","",""
"","","","","","choice_trial","survey-html-form","97","1488172","0.0-5.0-1.6","196","1","2025-04-14 14:45:33","bb671e3ae32f654b8954ea4c4635f915","","Mozilla/5.0 (Macintosh; Intel Mac OS X 10_15_7) AppleWebKit/605.1.15 (KHTML, like Gecko) Version/18.4 Safari/605.1.15","Macintosh","Safari","18.4","OS X","10_15_7","https://hz8g1ckzuq.cognition.run/","en-US,en;q=0.9","urmu7p7jlblp2g5","46","[""White""]","No","Female","1803112","7071","","","{""product_choice"":""B""}","choice","tcd","repulsion_1","2","microwave ovens","null","null","null","null","null","null","2","30","40","25","100","90","100","Warranty","Cooking power","",""
"","","","","","choice_trial_setup","html-keyboard-response","98","1488478","0.0-5.0-0.7","196","1","2025-04-14 14:45:33","bb671e3ae32f654b8954ea4c4635f915","","Mozilla/5.0 (Macintosh; Intel Mac OS X 10_15_7) AppleWebKit/605.1.15 (KHTML, like Gecko) Version/18.4 Safari/605.1.15","Macintosh","Safari","18.4","OS X","10_15_7","https://hz8g1ckzuq.cognition.run/","en-US,en;q=0.9","urmu7p7jlblp2g5","46","[""White""]","No","Female","1803112","null","","<p></p>","null","choice","bww","catch","null","microwave ovens","65","85","50","40","25","50","1","","","","","","","","","",""
"","","","","","choice_trial","survey-html-form","99","1493339","0.0-5.0-1.7","196","1","2025-04-14 14:45:33","bb671e3ae32f654b8954ea4c4635f915","","Mozilla/5.0 (Macintosh; Intel Mac OS X 10_15_7) AppleWebKit/605.1.15 (KHTML, like Gecko) Version/18.4 Safari/605.1.15","Macintosh","Safari","18.4","OS X","10_15_7","https://hz8g1ckzuq.cognition.run/","en-US,en;q=0.9","urmu7p7jlblp2g5","46","[""White""]","No","Female","1803112","4854","","","{""product_choice"":""A""}","choice","bww","catch","null","microwave ovens","65","85","50","40","25","50","1","null","null","null","null","null","null","Warranty","Cooking power","",""
"","","","","","choice_trial_setup","html-keyboard-response","100","1493644","0.0-5.0-0.8","196","1","2025-04-14 14:45:33","bb671e3ae32f654b8954ea4c4635f915","","Mozilla/5.0 (Macintosh; Intel Mac OS X 10_15_7) AppleWebKit/605.1.15 (KHTML, like Gecko) Version/18.4 Safari/605.1.15","Macintosh","Safari","18.4","OS X","10_15_7","https://hz8g1ckzuq.cognition.run/","en-US,en;q=0.9","urmu7p7jlblp2g5","46","[""White""]","No","Female","1803112","null","","<p></p>","null","choice","bww","catch","null","televisions","70","80","25","5","45","15","1","","","","","","","","","",""
"","","","","","choice_trial","survey-html-form","101","1498622","0.0-5.0-1.8","196","1","2025-04-14 14:45:33","bb671e3ae32f654b8954ea4c4635f915","","Mozilla/5.0 (Macintosh; Intel Mac OS X 10_15_7) AppleWebKit/605.1.15 (KHTML, like Gecko) Version/18.4 Safari/605.1.15","Macintosh","Safari","18.4","OS X","10_15_7","https://hz8g1ckzuq.cognition.run/","en-US,en;q=0.9","urmu7p7jlblp2g5","46","[""White""]","No","Female","1803112","4972","","","{""product_choice"":""A""}","choice","bww","catch","null","televisions","70","80","25","5","45","15","1","null","null","null","null","null","null","Screen size","Average lifespan","",""
"","","","","","choice_trial_setup","html-keyboard-response","102","1498928","0.0-5.0-0.9","196","1","2025-04-14 14:45:33","bb671e3ae32f654b8954ea4c4635f915","","Mozilla/5.0 (Macintosh; Intel Mac OS X 10_15_7) AppleWebKit/605.1.15 (KHTML, like Gecko) Version/18.4 Safari/605.1.15","Macintosh","Safari","18.4","OS X","10_15_7","https://hz8g1ckzuq.cognition.run/","en-US,en;q=0.9","urmu7p7jlblp2g5","46","[""White""]","No","Female","1803112","null","","<p></p>","null","choice","wwb","catch","null","televisions","50","60","10","10","20","40","1","","","","","","","","","",""
"","","","","","choice_trial","survey-html-form","103","1503404","0.0-5.0-1.9","196","1","2025-04-14 14:45:33","bb671e3ae32f654b8954ea4c4635f915","","Mozilla/5.0 (Macintosh; Intel Mac OS X 10_15_7) AppleWebKit/605.1.15 (KHTML, like Gecko) Version/18.4 Safari/605.1.15","Macintosh","Safari","18.4","OS X","10_15_7","https://hz8g1ckzuq.cognition.run/","en-US,en;q=0.9","urmu7p7jlblp2g5","46","[""White""]","No","Female","1803112","4470","","","{""product_choice"":""C""}","choice","wwb","catch","null","televisions","50","60","10","10","20","40","1","null","null","null","null","null","null","Screen size","Average lifespan","",""
"","","","","","choice_trial_setup","html-keyboard-response","104","1503710","0.0-5.0-0.10","196","1","2025-04-14 14:45:33","bb671e3ae32f654b8954ea4c4635f915","","Mozilla/5.0 (Macintosh; Intel Mac OS X 10_15_7) AppleWebKit/605.1.15 (KHTML, like Gecko) Version/18.4 Safari/605.1.15","Macintosh","Safari","18.4","OS X","10_15_7","https://hz8g1ckzuq.cognition.run/","en-US,en;q=0.9","urmu7p7jlblp2g5","46","[""White""]","No","Female","1803112","null","","<p></p>","null","choice","ctd","repulsion_1","1","washing machines","null","null","null","null","null","null","1","","","","","","","","","",""
"","","","","","choice_trial","survey-html-form","105","1511805","0.0-5.0-1.10","196","1","2025-04-14 14:45:33","bb671e3ae32f654b8954ea4c4635f915","","Mozilla/5.0 (Macintosh; Intel Mac OS X 10_15_7) AppleWebKit/605.1.15 (KHTML, like Gecko) Version/18.4 Safari/605.1.15","Macintosh","Safari","18.4","OS X","10_15_7","https://hz8g1ckzuq.cognition.run/","en-US,en;q=0.9","urmu7p7jlblp2g5","46","[""White""]","No","Female","1803112","8089","","","{""product_choice"":""A""}","choice","ctd","repulsion_1","1","washing machines","null","null","null","null","null","null","1","100","90","100","30","40","25","Average lifespan","Energy savings","",""
"","","","","","choice_trial_setup","html-keyboard-response","106","1512110","0.0-5.0-0.11","196","1","2025-04-14 14:45:33","bb671e3ae32f654b8954ea4c4635f915","","Mozilla/5.0 (Macintosh; Intel Mac OS X 10_15_7) AppleWebKit/605.1.15 (KHTML, like Gecko) Version/18.4 Safari/605.1.15","Macintosh","Safari","18.4","OS X","10_15_7","https://hz8g1ckzuq.cognition.run/","en-US,en;q=0.9","urmu7p7jlblp2g5","46","[""White""]","No","Female","1803112","null","","<p></p>","null","choice","dtc","repulsion_1","2","televisions","null","null","null","null","null","null","2","","","","","","","","","",""
"","","","","","choice_trial","survey-html-form","107","1516703","0.0-5.0-1.11","196","1","2025-04-14 14:45:33","bb671e3ae32f654b8954ea4c4635f915","","Mozilla/5.0 (Macintosh; Intel Mac OS X 10_15_7) AppleWebKit/605.1.15 (KHTML, like Gecko) Version/18.4 Safari/605.1.15","Macintosh","Safari","18.4","OS X","10_15_7","https://hz8g1ckzuq.cognition.run/","en-US,en;q=0.9","urmu7p7jlblp2g5","46","[""White""]","No","Female","1803112","4587","","","{""product_choice"":""C""}","choice","dtc","repulsion_1","2","televisions","null","null","null","null","null","null","2","30","40","25","100","90","100","Screen size","Average lifespan","",""
"","","","","","choice_trial_setup","html-keyboard-response","108","1517007","0.0-5.0-0.12","196","1","2025-04-14 14:45:33","bb671e3ae32f654b8954ea4c4635f915","","Mozilla/5.0 (Macintosh; Intel Mac OS X 10_15_7) AppleWebKit/605.1.15 (KHTML, like Gecko) Version/18.4 Safari/605.1.15","Macintosh","Safari","18.4","OS X","10_15_7","https://hz8g1ckzuq.cognition.run/","en-US,en;q=0.9","urmu7p7jlblp2g5","46","[""White""]","No","Female","1803112","null","","<p></p>","null","choice","ctd","attraction_1","1","microwave ovens","null","null","null","null","null","null","2","","","","","","","","","",""
"","","","","","choice_trial","survey-html-form","109","1523270","0.0-5.0-1.12","196","1","2025-04-14 14:45:33","bb671e3ae32f654b8954ea4c4635f915","","Mozilla/5.0 (Macintosh; Intel Mac OS X 10_15_7) AppleWebKit/605.1.15 (KHTML, like Gecko) Version/18.4 Safari/605.1.15","Macintosh","Safari","18.4","OS X","10_15_7","https://hz8g1ckzuq.cognition.run/","en-US,en;q=0.9","urmu7p7jlblp2g5","46","[""White""]","No","Female","1803112","6257","","","{""product_choice"":""A""}","choice","ctd","attraction_1","1","microwave ovens","null","null","null","null","null","null","2","60","50","60","50","60","45","Warranty","Cooking power","",""
"","","","","","choice_trial_setup","html-keyboard-response","110","1523574","0.0-5.0-0.13","196","1","2025-04-14 14:45:33","bb671e3ae32f654b8954ea4c4635f915","","Mozilla/5.0 (Macintosh; Intel Mac OS X 10_15_7) AppleWebKit/605.1.15 (KHTML, like Gecko) Version/18.4 Safari/605.1.15","Macintosh","Safari","18.4","OS X","10_15_7","https://hz8g1ckzuq.cognition.run/","en-US,en;q=0.9","urmu7p7jlblp2g5","46","[""White""]","No","Female","1803112","null","","<p></p>","null","choice","wbw","catch","null","washing machines","90","70","30","45","50","45","1","","","","","","","","","",""
"","","","","","choice_trial","survey-html-form","111","1529854","0.0-5.0-1.13","196","1","2025-04-14 14:45:33","bb671e3ae32f654b8954ea4c4635f915","","Mozilla/5.0 (Macintosh; Intel Mac OS X 10_15_7) AppleWebKit/605.1.15 (KHTML, like Gecko) Version/18.4 Safari/605.1.15","Macintosh","Safari","18.4","OS X","10_15_7","https://hz8g1ckzuq.cognition.run/","en-US,en;q=0.9","urmu7p7jlblp2g5","46","[""White""]","No","Female","1803112","6274","","","{""product_choice"":""B""}","choice","wbw","catch","null","washing machines","90","70","30","45","50","45","1","null","null","null","null","null","null","Average lifespan","Energy savings","",""
"","","","","","choice_trial_setup","html-keyboard-response","112","1530159","0.0-5.0-0.14","196","1","2025-04-14 14:45:33","bb671e3ae32f654b8954ea4c4635f915","","Mozilla/5.0 (Macintosh; Intel Mac OS X 10_15_7) AppleWebKit/605.1.15 (KHTML, like Gecko) Version/18.4 Safari/605.1.15","Macintosh","Safari","18.4","OS X","10_15_7","https://hz8g1ckzuq.cognition.run/","en-US,en;q=0.9","urmu7p7jlblp2g5","46","[""White""]","No","Female","1803112","null","","<p></p>","null","choice","dct","repulsion_2","1","televisions","null","null","null","null","null","null","1","","","","","","","","","",""
"","","","","","choice_trial","survey-html-form","113","1539204","0.0-5.0-1.14","196","1","2025-04-14 14:45:33","bb671e3ae32f654b8954ea4c4635f915","","Mozilla/5.0 (Macintosh; Intel Mac OS X 10_15_7) AppleWebKit/605.1.15 (KHTML, like Gecko) Version/18.4 Safari/605.1.15","Macintosh","Safari","18.4","OS X","10_15_7","https://hz8g1ckzuq.cognition.run/","en-US,en;q=0.9","urmu7p7jlblp2g5","46","[""White""]","No","Female","1803112","9038","","","{""product_choice"":""B""}","choice","dct","repulsion_2","1","televisions","null","null","null","null","null","null","1","100","90","100","30","40","20","Screen size","Average lifespan","",""
"","","","","","choice_trial_setup","html-keyboard-response","114","1539510","0.0-5.0-0.15","196","1","2025-04-14 14:45:33","bb671e3ae32f654b8954ea4c4635f915","","Mozilla/5.0 (Macintosh; Intel Mac OS X 10_15_7) AppleWebKit/605.1.15 (KHTML, like Gecko) Version/18.4 Safari/605.1.15","Macintosh","Safari","18.4","OS X","10_15_7","https://hz8g1ckzuq.cognition.run/","en-US,en;q=0.9","urmu7p7jlblp2g5","46","[""White""]","No","Female","1803112","null","","<p></p>","null","choice","tcd","repulsion_2","1","laptops","null","null","null","null","null","null","2","","","","","","","","","",""
"","","","","","choice_trial","survey-html-form","115","1546322","0.0-5.0-1.15","196","1","2025-04-14 14:45:33","bb671e3ae32f654b8954ea4c4635f915","","Mozilla/5.0 (Macintosh; Intel Mac OS X 10_15_7) AppleWebKit/605.1.15 (KHTML, like Gecko) Version/18.4 Safari/605.1.15","Macintosh","Safari","18.4","OS X","10_15_7","https://hz8g1ckzuq.cognition.run/","en-US,en;q=0.9","urmu7p7jlblp2g5","46","[""White""]","No","Female","1803112","6805","","","{""product_choice"":""B""}","choice","tcd","repulsion_2","1","laptops","null","null","null","null","null","null","2","100","90","100","30","40","20","Processing speed","Memory (RAM)","",""
"","","","","","choice_trial_setup","html-keyboard-response","116","1546628","0.0-5.0-0.16","196","1","2025-04-14 14:45:33","bb671e3ae32f654b8954ea4c4635f915","","Mozilla/5.0 (Macintosh; Intel Mac OS X 10_15_7) AppleWebKit/605.1.15 (KHTML, like Gecko) Version/18.4 Safari/605.1.15","Macintosh","Safari","18.4","OS X","10_15_7","https://hz8g1ckzuq.cognition.run/","en-US,en;q=0.9","urmu7p7jlblp2g5","46","[""White""]","No","Female","1803112","null","","<p></p>","null","choice","dtc","attraction_2","1","laptops","null","null","null","null","null","null","1","","","","","","","","","",""
"","","","","","choice_trial","survey-html-form","117","1562389","0.0-5.0-1.16","196","1","2025-04-14 14:45:33","bb671e3ae32f654b8954ea4c4635f915","","Mozilla/5.0 (Macintosh; Intel Mac OS X 10_15_7) AppleWebKit/605.1.15 (KHTML, like Gecko) Version/18.4 Safari/605.1.15","Macintosh","Safari","18.4","OS X","10_15_7","https://hz8g1ckzuq.cognition.run/","en-US,en;q=0.9","urmu7p7jlblp2g5","46","[""White""]","No","Female","1803112","15754","","","{""product_choice"":""B""}","choice","dtc","attraction_2","1","laptops","null","null","null","null","null","null","1","60","50","60","50","60","40","Processing speed","Memory (RAM)","",""
"","","","","","choice_trial_setup","html-keyboard-response","118","1562694","0.0-5.0-0.17","196","1","2025-04-14 14:45:33","bb671e3ae32f654b8954ea4c4635f915","","Mozilla/5.0 (Macintosh; Intel Mac OS X 10_15_7) AppleWebKit/605.1.15 (KHTML, like Gecko) Version/18.4 Safari/605.1.15","Macintosh","Safari","18.4","OS X","10_15_7","https://hz8g1ckzuq.cognition.run/","en-US,en;q=0.9","urmu7p7jlblp2g5","46","[""White""]","No","Female","1803112","null","","<p></p>","null","choice","cdt","attraction_1","1","televisions","null","null","null","null","null","null","1","","","","","","","","","",""
"","","","","","choice_trial","survey-html-form","119","1570555","0.0-5.0-1.17","196","1","2025-04-14 14:45:33","bb671e3ae32f654b8954ea4c4635f915","","Mozilla/5.0 (Macintosh; Intel Mac OS X 10_15_7) AppleWebKit/605.1.15 (KHTML, like Gecko) Version/18.4 Safari/605.1.15","Macintosh","Safari","18.4","OS X","10_15_7","https://hz8g1ckzuq.cognition.run/","en-US,en;q=0.9","urmu7p7jlblp2g5","46","[""White""]","No","Female","1803112","7855","","","{""product_choice"":""C""}","choice","cdt","attraction_1","1","televisions","null","null","null","null","null","null","1","60","50","60","50","60","45","Screen size","Average lifespan","",""
"","","","","","choice_trial_setup","html-keyboard-response","120","1570860","0.0-5.0-0.18","196","1","2025-04-14 14:45:33","bb671e3ae32f654b8954ea4c4635f915","","Mozilla/5.0 (Macintosh; Intel Mac OS X 10_15_7) AppleWebKit/605.1.15 (KHTML, like Gecko) Version/18.4 Safari/605.1.15","Macintosh","Safari","18.4","OS X","10_15_7","https://hz8g1ckzuq.cognition.run/","en-US,en;q=0.9","urmu7p7jlblp2g5","46","[""White""]","No","Female","1803112","null","","<p></p>","null","choice","tdc","attraction_2","2","televisions","null","null","null","null","null","null","2","","","","","","","","","",""
"","","","","","choice_trial","survey-html-form","121","1580690","0.0-5.0-1.18","196","1","2025-04-14 14:45:33","bb671e3ae32f654b8954ea4c4635f915","","Mozilla/5.0 (Macintosh; Intel Mac OS X 10_15_7) AppleWebKit/605.1.15 (KHTML, like Gecko) Version/18.4 Safari/605.1.15","Macintosh","Safari","18.4","OS X","10_15_7","https://hz8g1ckzuq.cognition.run/","en-US,en;q=0.9","urmu7p7jlblp2g5","46","[""White""]","No","Female","1803112","9823","","","{""product_choice"":""C""}","choice","tdc","attraction_2","2","televisions","null","null","null","null","null","null","2","50","60","40","60","50","60","Screen size","Average lifespan","",""
"","","","","","choice_trial_setup","html-keyboard-response","122","1580996","0.0-5.0-0.19","196","1","2025-04-14 14:45:33","bb671e3ae32f654b8954ea4c4635f915","","Mozilla/5.0 (Macintosh; Intel Mac OS X 10_15_7) AppleWebKit/605.1.15 (KHTML, like Gecko) Version/18.4 Safari/605.1.15","Macintosh","Safari","18.4","OS X","10_15_7","https://hz8g1ckzuq.cognition.run/","en-US,en;q=0.9","urmu7p7jlblp2g5","46","[""White""]","No","Female","1803112","null","","<p></p>","null","choice","dtc","attraction_1","2","laptops","null","null","null","null","null","null","1","","","","","","","","","",""
"","","","","","choice_trial","survey-html-form","123","1593837","0.0-5.0-1.19","196","1","2025-04-14 14:45:33","bb671e3ae32f654b8954ea4c4635f915","","Mozilla/5.0 (Macintosh; Intel Mac OS X 10_15_7) AppleWebKit/605.1.15 (KHTML, like Gecko) Version/18.4 Safari/605.1.15","Macintosh","Safari","18.4","OS X","10_15_7","https://hz8g1ckzuq.cognition.run/","en-US,en;q=0.9","urmu7p7jlblp2g5","46","[""White""]","No","Female","1803112","12833","","","{""product_choice"":""B""}","choice","dtc","attraction_1","2","laptops","null","null","null","null","null","null","1","50","60","45","60","50","60","Processing speed","Memory (RAM)","",""
"","","","","","choice_trial_setup","html-keyboard-response","124","1594142","0.0-5.0-0.20","196","1","2025-04-14 14:45:33","bb671e3ae32f654b8954ea4c4635f915","","Mozilla/5.0 (Macintosh; Intel Mac OS X 10_15_7) AppleWebKit/605.1.15 (KHTML, like Gecko) Version/18.4 Safari/605.1.15","Macintosh","Safari","18.4","OS X","10_15_7","https://hz8g1ckzuq.cognition.run/","en-US,en;q=0.9","urmu7p7jlblp2g5","46","[""White""]","No","Female","1803112","null","","<p></p>","null","choice","dtc","repulsion_1","1","televisions","null","null","null","null","null","null","1","","","","","","","","","",""
"","","","","","choice_trial","survey-html-form","125","1601705","0.0-5.0-1.20","196","1","2025-04-14 14:45:33","bb671e3ae32f654b8954ea4c4635f915","","Mozilla/5.0 (Macintosh; Intel Mac OS X 10_15_7) AppleWebKit/605.1.15 (KHTML, like Gecko) Version/18.4 Safari/605.1.15","Macintosh","Safari","18.4","OS X","10_15_7","https://hz8g1ckzuq.cognition.run/","en-US,en;q=0.9","urmu7p7jlblp2g5","46","[""White""]","No","Female","1803112","7556","","","{""product_choice"":""C""}","choice","dtc","repulsion_1","1","televisions","null","null","null","null","null","null","1","100","90","100","30","40","25","Screen size","Average lifespan","",""
"","","","","","choice_trial_setup","html-keyboard-response","126","1602010","0.0-5.0-0.21","196","1","2025-04-14 14:45:33","bb671e3ae32f654b8954ea4c4635f915","","Mozilla/5.0 (Macintosh; Intel Mac OS X 10_15_7) AppleWebKit/605.1.15 (KHTML, like Gecko) Version/18.4 Safari/605.1.15","Macintosh","Safari","18.4","OS X","10_15_7","https://hz8g1ckzuq.cognition.run/","en-US,en;q=0.9","urmu7p7jlblp2g5","46","[""White""]","No","Female","1803112","null","","<p></p>","null","choice","dct","repulsion_1","1","laptops","null","null","null","null","null","null","2","","","","","","","","","",""
"","","","","","choice_trial","survey-html-form","127","1607704","0.0-5.0-1.21","196","1","2025-04-14 14:45:33","bb671e3ae32f654b8954ea4c4635f915","","Mozilla/5.0 (Macintosh; Intel Mac OS X 10_15_7) AppleWebKit/605.1.15 (KHTML, like Gecko) Version/18.4 Safari/605.1.15","Macintosh","Safari","18.4","OS X","10_15_7","https://hz8g1ckzuq.cognition.run/","en-US,en;q=0.9","urmu7p7jlblp2g5","46","[""White""]","No","Female","1803112","5688","","","{""product_choice"":""B""}","choice","dct","repulsion_1","1","laptops","null","null","null","null","null","null","2","100","90","100","30","40","25","Processing speed","Memory (RAM)","",""
"","","","","","choice_trial_setup","html-keyboard-response","128","1608010","0.0-5.0-0.22","196","1","2025-04-14 14:45:33","bb671e3ae32f654b8954ea4c4635f915","","Mozilla/5.0 (Macintosh; Intel Mac OS X 10_15_7) AppleWebKit/605.1.15 (KHTML, like Gecko) Version/18.4 Safari/605.1.15","Macintosh","Safari","18.4","OS X","10_15_7","https://hz8g1ckzuq.cognition.run/","en-US,en;q=0.9","urmu7p7jlblp2g5","46","[""White""]","No","Female","1803112","null","","<p></p>","null","choice","tcd","repulsion_2","2","washing machines","null","null","null","null","null","null","2","","","","","","","","","",""
"","","","","","choice_trial","survey-html-form","129","1616821","0.0-5.0-1.22","196","1","2025-04-14 14:45:33","bb671e3ae32f654b8954ea4c4635f915","","Mozilla/5.0 (Macintosh; Intel Mac OS X 10_15_7) AppleWebKit/605.1.15 (KHTML, like Gecko) Version/18.4 Safari/605.1.15","Macintosh","Safari","18.4","OS X","10_15_7","https://hz8g1ckzuq.cognition.run/","en-US,en;q=0.9","urmu7p7jlblp2g5","46","[""White""]","No","Female","1803112","8804","","","{""product_choice"":""B""}","choice","tcd","repulsion_2","2","washing machines","null","null","null","null","null","null","2","30","40","20","100","90","100","Average lifespan","Energy savings","",""
"","","","","","choice_trial_setup","html-keyboard-response","130","1617125","0.0-5.0-0.23","196","1","2025-04-14 14:45:33","bb671e3ae32f654b8954ea4c4635f915","","Mozilla/5.0 (Macintosh; Intel Mac OS X 10_15_7) AppleWebKit/605.1.15 (KHTML, like Gecko) Version/18.4 Safari/605.1.15","Macintosh","Safari","18.4","OS X","10_15_7","https://hz8g1ckzuq.cognition.run/","en-US,en;q=0.9","urmu7p7jlblp2g5","46","[""White""]","No","Female","1803112","null","","<p></p>","null","choice","tcd","attraction_2","1","washing machines","null","null","null","null","null","null","1","","","","","","","","","",""
"","","","","","choice_trial","survey-html-form","131","1624121","0.0-5.0-1.23","196","1","2025-04-14 14:45:33","bb671e3ae32f654b8954ea4c4635f915","","Mozilla/5.0 (Macintosh; Intel Mac OS X 10_15_7) AppleWebKit/605.1.15 (KHTML, like Gecko) Version/18.4 Safari/605.1.15","Macintosh","Safari","18.4","OS X","10_15_7","https://hz8g1ckzuq.cognition.run/","en-US,en;q=0.9","urmu7p7jlblp2g5","46","[""White""]","No","Female","1803112","6989","","","{""product_choice"":""B""}","choice","tcd","attraction_2","1","washing machines","null","null","null","null","null","null","1","60","50","60","50","60","40","Average lifespan","Energy savings","",""
"","","","","","choice_trial_setup","html-keyboard-response","132","1624426","0.0-5.0-0.24","196","1","2025-04-14 14:45:33","bb671e3ae32f654b8954ea4c4635f915","","Mozilla/5.0 (Macintosh; Intel Mac OS X 10_15_7) AppleWebKit/605.1.15 (KHTML, like Gecko) Version/18.4 Safari/605.1.15","Macintosh","Safari","18.4","OS X","10_15_7","https://hz8g1ckzuq.cognition.run/","en-US,en;q=0.9","urmu7p7jlblp2g5","46","[""White""]","No","Female","1803112","null","","<p></p>","null","choice","bww","catch","null","laptops","95","70","45","20","35","50","1","","","","","","","","","",""
"","","","","","choice_trial","survey-html-form","133","1629371","0.0-5.0-1.24","196","1","2025-04-14 14:45:33","bb671e3ae32f654b8954ea4c4635f915","","Mozilla/5.0 (Macintosh; Intel Mac OS X 10_15_7) AppleWebKit/605.1.15 (KHTML, like Gecko) Version/18.4 Safari/605.1.15","Macintosh","Safari","18.4","OS X","10_15_7","https://hz8g1ckzuq.cognition.run/","en-US,en;q=0.9","urmu7p7jlblp2g5","46","[""White""]","No","Female","1803112","4939","","","{""product_choice"":""A""}","choice","bww","catch","null","laptops","95","70","45","20","35","50","1","null","null","null","null","null","null","Processing speed","Memory (RAM)","",""
"","","","","","choice_trial_setup","html-keyboard-response","134","1629677","0.0-5.0-0.25","196","1","2025-04-14 14:45:33","bb671e3ae32f654b8954ea4c4635f915","","Mozilla/5.0 (Macintosh; Intel Mac OS X 10_15_7) AppleWebKit/605.1.15 (KHTML, like Gecko) Version/18.4 Safari/605.1.15","Macintosh","Safari","18.4","OS X","10_15_7","https://hz8g1ckzuq.cognition.run/","en-US,en;q=0.9","urmu7p7jlblp2g5","46","[""White""]","No","Female","1803112","null","","<p></p>","null","choice","dtc","repulsion_1","1","microwave ovens","null","null","null","null","null","null","2","","","","","","","","","",""
"","","","","","choice_trial","survey-html-form","135","1633488","0.0-5.0-1.25","196","1","2025-04-14 14:45:33","bb671e3ae32f654b8954ea4c4635f915","","Mozilla/5.0 (Macintosh; Intel Mac OS X 10_15_7) AppleWebKit/605.1.15 (KHTML, like Gecko) Version/18.4 Safari/605.1.15","Macintosh","Safari","18.4","OS X","10_15_7","https://hz8g1ckzuq.cognition.run/","en-US,en;q=0.9","urmu7p7jlblp2g5","46","[""White""]","No","Female","1803112","3803","","","{""product_choice"":""C""}","choice","dtc","repulsion_1","1","microwave ovens","null","null","null","null","null","null","2","100","90","100","30","40","25","Warranty","Cooking power","",""
"","","","","","choice_trial_setup","html-keyboard-response","136","1633794","0.0-5.0-0.26","196","1","2025-04-14 14:45:33","bb671e3ae32f654b8954ea4c4635f915","","Mozilla/5.0 (Macintosh; Intel Mac OS X 10_15_7) AppleWebKit/605.1.15 (KHTML, like Gecko) Version/18.4 Safari/605.1.15","Macintosh","Safari","18.4","OS X","10_15_7","https://hz8g1ckzuq.cognition.run/","en-US,en;q=0.9","urmu7p7jlblp2g5","46","[""White""]","No","Female","1803112","null","","<p></p>","null","choice","wwb","catch","null","washing machines","60","80","30","50","35","45","1","","","","","","","","","",""
"","","","","","choice_trial","survey-html-form","137","1640740","0.0-5.0-1.26","196","1","2025-04-14 14:45:33","bb671e3ae32f654b8954ea4c4635f915","","Mozilla/5.0 (Macintosh; Intel Mac OS X 10_15_7) AppleWebKit/605.1.15 (KHTML, like Gecko) Version/18.4 Safari/605.1.15","Macintosh","Safari","18.4","OS X","10_15_7","https://hz8g1ckzuq.cognition.run/","en-US,en;q=0.9","urmu7p7jlblp2g5","46","[""White""]","No","Female","1803112","6938","","","{""product_choice"":""C""}","choice","wwb","catch","null","washing machines","60","80","30","50","35","45","1","null","null","null","null","null","null","Average lifespan","Energy savings","",""
"","","","","","choice_trial_setup","html-keyboard-response","138","1641046","0.0-5.0-0.27","196","1","2025-04-14 14:45:33","bb671e3ae32f654b8954ea4c4635f915","","Mozilla/5.0 (Macintosh; Intel Mac OS X 10_15_7) AppleWebKit/605.1.15 (KHTML, like Gecko) Version/18.4 Safari/605.1.15","Macintosh","Safari","18.4","OS X","10_15_7","https://hz8g1ckzuq.cognition.run/","en-US,en;q=0.9","urmu7p7jlblp2g5","46","[""White""]","No","Female","1803112","null","","<p></p>","null","choice","cdt","attraction_2","2","washing machines","null","null","null","null","null","null","1","","","","","","","","","",""
"","","","","","choice_trial","survey-html-form","139","1645288","0.0-5.0-1.27","196","1","2025-04-14 14:45:33","bb671e3ae32f654b8954ea4c4635f915","","Mozilla/5.0 (Macintosh; Intel Mac OS X 10_15_7) AppleWebKit/605.1.15 (KHTML, like Gecko) Version/18.4 Safari/605.1.15","Macintosh","Safari","18.4","OS X","10_15_7","https://hz8g1ckzuq.cognition.run/","en-US,en;q=0.9","urmu7p7jlblp2g5","46","[""White""]","No","Female","1803112","4234","","","{""product_choice"":""C""}","choice","cdt","attraction_2","2","washing machines","null","null","null","null","null","null","1","50","60","40","60","50","60","Average lifespan","Energy savings","",""
"","","","","","choice_trial_setup","html-keyboard-response","140","1645595","0.0-5.0-0.28","196","1","2025-04-14 14:45:33","bb671e3ae32f654b8954ea4c4635f915","","Mozilla/5.0 (Macintosh; Intel Mac OS X 10_15_7) AppleWebKit/605.1.15 (KHTML, like Gecko) Version/18.4 Safari/605.1.15","Macintosh","Safari","18.4","OS X","10_15_7","https://hz8g1ckzuq.cognition.run/","en-US,en;q=0.9","urmu7p7jlblp2g5","46","[""White""]","No","Female","1803112","null","","<p></p>","null","choice","wwb","catch","null","laptops","95","75","10","50","50","35","1","","","","","","","","","",""
"","","","","","choice_trial","survey-html-form","141","1648986","0.0-5.0-1.28","196","1","2025-04-14 14:45:33","bb671e3ae32f654b8954ea4c4635f915","","Mozilla/5.0 (Macintosh; Intel Mac OS X 10_15_7) AppleWebKit/605.1.15 (KHTML, like Gecko) Version/18.4 Safari/605.1.15","Macintosh","Safari","18.4","OS X","10_15_7","https://hz8g1ckzuq.cognition.run/","en-US,en;q=0.9","urmu7p7jlblp2g5","46","[""White""]","No","Female","1803112","3385","","","{""product_choice"":""C""}","choice","wwb","catch","null","laptops","95","75","10","50","50","35","1","null","null","null","null","null","null","Processing speed","Memory (RAM)","",""
"","","","","","choice_trial_setup","html-keyboard-response","142","1649291","0.0-5.0-0.29","196","1","2025-04-14 14:45:33","bb671e3ae32f654b8954ea4c4635f915","","Mozilla/5.0 (Macintosh; Intel Mac OS X 10_15_7) AppleWebKit/605.1.15 (KHTML, like Gecko) Version/18.4 Safari/605.1.15","Macintosh","Safari","18.4","OS X","10_15_7","https://hz8g1ckzuq.cognition.run/","en-US,en;q=0.9","urmu7p7jlblp2g5","46","[""White""]","No","Female","1803112","null","","<p></p>","null","choice","ctd","attraction_2","1","televisions","null","null","null","null","null","null","1","","","","","","","","","",""
"","","","","","choice_trial","survey-html-form","143","1656871","0.0-5.0-1.29","196","1","2025-04-14 14:45:33","bb671e3ae32f654b8954ea4c4635f915","","Mozilla/5.0 (Macintosh; Intel Mac OS X 10_15_7) AppleWebKit/605.1.15 (KHTML, like Gecko) Version/18.4 Safari/605.1.15","Macintosh","Safari","18.4","OS X","10_15_7","https://hz8g1ckzuq.cognition.run/","en-US,en;q=0.9","urmu7p7jlblp2g5","46","[""White""]","No","Female","1803112","7574","","","{""product_choice"":""B""}","choice","ctd","attraction_2","1","televisions","null","null","null","null","null","null","1","60","50","60","50","60","40","Screen size","Average lifespan","",""
"","","","","","choice_trial_setup","html-keyboard-response","144","1657177","0.0-5.0-0.30","196","1","2025-04-14 14:45:33","bb671e3ae32f654b8954ea4c4635f915","","Mozilla/5.0 (Macintosh; Intel Mac OS X 10_15_7) AppleWebKit/605.1.15 (KHTML, like Gecko) Version/18.4 Safari/605.1.15","Macintosh","Safari","18.4","OS X","10_15_7","https://hz8g1ckzuq.cognition.run/","en-US,en;q=0.9","urmu7p7jlblp2g5","46","[""White""]","No","Female","1803112","null","","<p></p>","null","choice","tcd","repulsion_2","1","microwave ovens","null","null","null","null","null","null","2","","","","","","","","","",""
"","","","","","choice_trial","survey-html-form","145","1661087","0.0-5.0-1.30","196","1","2025-04-14 14:45:33","bb671e3ae32f654b8954ea4c4635f915","","Mozilla/5.0 (Macintosh; Intel Mac OS X 10_15_7) AppleWebKit/605.1.15 (KHTML, like Gecko) Version/18.4 Safari/605.1.15","Macintosh","Safari","18.4","OS X","10_15_7","https://hz8g1ckzuq.cognition.run/","en-US,en;q=0.9","urmu7p7jlblp2g5","46","[""White""]","No","Female","1803112","3905","","","{""product_choice"":""B""}","choice","tcd","repulsion_2","1","microwave ovens","null","null","null","null","null","null","2","100","90","100","30","40","20","Warranty","Cooking power","",""
"","","","","","choice_trial_setup","html-keyboard-response","146","1661393","0.0-5.0-0.31","196","1","2025-04-14 14:45:33","bb671e3ae32f654b8954ea4c4635f915","","Mozilla/5.0 (Macintosh; Intel Mac OS X 10_15_7) AppleWebKit/605.1.15 (KHTML, like Gecko) Version/18.4 Safari/605.1.15","Macintosh","Safari","18.4","OS X","10_15_7","https://hz8g1ckzuq.cognition.run/","en-US,en;q=0.9","urmu7p7jlblp2g5","46","[""White""]","No","Female","1803112","null","","<p></p>","null","choice","ctd","attraction_1","1","laptops","null","null","null","null","null","null","1","","","","","","","","","",""
"","","","","","choice_trial","survey-html-form","147","1666305","0.0-5.0-1.31","196","1","2025-04-14 14:45:33","bb671e3ae32f654b8954ea4c4635f915","","Mozilla/5.0 (Macintosh; Intel Mac OS X 10_15_7) AppleWebKit/605.1.15 (KHTML, like Gecko) Version/18.4 Safari/605.1.15","Macintosh","Safari","18.4","OS X","10_15_7","https://hz8g1ckzuq.cognition.run/","en-US,en;q=0.9","urmu7p7jlblp2g5","46","[""White""]","No","Female","1803112","4904","","","{""product_choice"":""B""}","choice","ctd","attraction_1","1","laptops","null","null","null","null","null","null","1","60","50","60","50","60","45","Processing speed","Memory (RAM)","",""
"","","","","","choice_trial_setup","html-keyboard-response","148","1666611","0.0-5.0-0.32","196","1","2025-04-14 14:45:33","bb671e3ae32f654b8954ea4c4635f915","","Mozilla/5.0 (Macintosh; Intel Mac OS X 10_15_7) AppleWebKit/605.1.15 (KHTML, like Gecko) Version/18.4 Safari/605.1.15","Macintosh","Safari","18.4","OS X","10_15_7","https://hz8g1ckzuq.cognition.run/","en-US,en;q=0.9","urmu7p7jlblp2g5","46","[""White""]","No","Female","1803112","null","","<p></p>","null","choice","ctd","attraction_1","2","televisions","null","null","null","null","null","null","2","","","","","","","","","",""
"","","","","","choice_trial","survey-html-form","149","1672688","0.0-5.0-1.32","196","1","2025-04-14 14:45:33","bb671e3ae32f654b8954ea4c4635f915","","Mozilla/5.0 (Macintosh; Intel Mac OS X 10_15_7) AppleWebKit/605.1.15 (KHTML, like Gecko) Version/18.4 Safari/605.1.15","Macintosh","Safari","18.4","OS X","10_15_7","https://hz8g1ckzuq.cognition.run/","en-US,en;q=0.9","urmu7p7jlblp2g5","46","[""White""]","No","Female","1803112","6070","","","{""product_choice"":""A""}","choice","ctd","attraction_1","2","televisions","null","null","null","null","null","null","2","50","60","45","60","50","60","Screen size","Average lifespan","",""
"","","","","","choice_trial_setup","html-keyboard-response","150","1672994","0.0-5.0-0.33","196","1","2025-04-14 14:45:33","bb671e3ae32f654b8954ea4c4635f915","","Mozilla/5.0 (Macintosh; Intel Mac OS X 10_15_7) AppleWebKit/605.1.15 (KHTML, like Gecko) Version/18.4 Safari/605.1.15","Macintosh","Safari","18.4","OS X","10_15_7","https://hz8g1ckzuq.cognition.run/","en-US,en;q=0.9","urmu7p7jlblp2g5","46","[""White""]","No","Female","1803112","null","","<p></p>","null","choice","tdc","attraction_1","2","microwave ovens","null","null","null","null","null","null","2","","","","","","","","","",""
"","","","","","choice_trial","survey-html-form","151","1678571","0.0-5.0-1.33","196","1","2025-04-14 14:45:33","bb671e3ae32f654b8954ea4c4635f915","","Mozilla/5.0 (Macintosh; Intel Mac OS X 10_15_7) AppleWebKit/605.1.15 (KHTML, like Gecko) Version/18.4 Safari/605.1.15","Macintosh","Safari","18.4","OS X","10_15_7","https://hz8g1ckzuq.cognition.run/","en-US,en;q=0.9","urmu7p7jlblp2g5","46","[""White""]","No","Female","1803112","5571","","","{""product_choice"":""A""}","choice","tdc","attraction_1","2","microwave ovens","null","null","null","null","null","null","2","50","60","45","60","50","60","Warranty","Cooking power","",""
"","","","","","choice_trial_setup","html-keyboard-response","152","1678878","0.0-5.0-0.34","196","1","2025-04-14 14:45:33","bb671e3ae32f654b8954ea4c4635f915","","Mozilla/5.0 (Macintosh; Intel Mac OS X 10_15_7) AppleWebKit/605.1.15 (KHTML, like Gecko) Version/18.4 Safari/605.1.15","Macintosh","Safari","18.4","OS X","10_15_7","https://hz8g1ckzuq.cognition.run/","en-US,en;q=0.9","urmu7p7jlblp2g5","46","[""White""]","No","Female","1803112","null","","<p></p>","null","choice","cdt","repulsion_2","2","microwave ovens","null","null","null","null","null","null","2","","","","","","","","","",""
"","","","","","choice_trial","survey-html-form","153","1685039","0.0-5.0-1.34","196","1","2025-04-14 14:45:33","bb671e3ae32f654b8954ea4c4635f915","","Mozilla/5.0 (Macintosh; Intel Mac OS X 10_15_7) AppleWebKit/605.1.15 (KHTML, like Gecko) Version/18.4 Safari/605.1.15","Macintosh","Safari","18.4","OS X","10_15_7","https://hz8g1ckzuq.cognition.run/","en-US,en;q=0.9","urmu7p7jlblp2g5","46","[""White""]","No","Female","1803112","6153","","","{""product_choice"":""C""}","choice","cdt","repulsion_2","2","microwave ovens","null","null","null","null","null","null","2","30","40","20","100","90","100","Warranty","Cooking power","",""
"","","","","","choice_trial_setup","html-keyboard-response","154","1685347","0.0-5.0-0.35","196","1","2025-04-14 14:45:33","bb671e3ae32f654b8954ea4c4635f915","","Mozilla/5.0 (Macintosh; Intel Mac OS X 10_15_7) AppleWebKit/605.1.15 (KHTML, like Gecko) Version/18.4 Safari/605.1.15","Macintosh","Safari","18.4","OS X","10_15_7","https://hz8g1ckzuq.cognition.run/","en-US,en;q=0.9","urmu7p7jlblp2g5","46","[""White""]","No","Female","1803112","null","","<p></p>","null","choice","dct","repulsion_1","2","washing machines","null","null","null","null","null","null","2","","","","","","","","","",""
"","","","","","choice_trial","survey-html-form","155","1692936","0.0-5.0-1.35","196","1","2025-04-14 14:45:33","bb671e3ae32f654b8954ea4c4635f915","","Mozilla/5.0 (Macintosh; Intel Mac OS X 10_15_7) AppleWebKit/605.1.15 (KHTML, like Gecko) Version/18.4 Safari/605.1.15","Macintosh","Safari","18.4","OS X","10_15_7","https://hz8g1ckzuq.cognition.run/","en-US,en;q=0.9","urmu7p7jlblp2g5","46","[""White""]","No","Female","1803112","7583","","","{""product_choice"":""C""}","choice","dct","repulsion_1","2","washing machines","null","null","null","null","null","null","2","30","40","25","100","90","100","Average lifespan","Energy savings","",""
"","","","","","choice_trial_setup","html-keyboard-response","156","1693241","0.0-5.0-0.36","196","1","2025-04-14 14:45:33","bb671e3ae32f654b8954ea4c4635f915","","Mozilla/5.0 (Macintosh; Intel Mac OS X 10_15_7) AppleWebKit/605.1.15 (KHTML, like Gecko) Version/18.4 Safari/605.1.15","Macintosh","Safari","18.4","OS X","10_15_7","https://hz8g1ckzuq.cognition.run/","en-US,en;q=0.9","urmu7p7jlblp2g5","46","[""White""]","No","Female","1803112","null","","<p></p>","null","choice","dct","repulsion_2","2","laptops","null","null","null","null","null","null","1","","","","","","","","","",""
"","","","","","choice_trial","survey-html-form","157","1703054","0.0-5.0-1.36","196","1","2025-04-14 14:45:33","bb671e3ae32f654b8954ea4c4635f915","","Mozilla/5.0 (Macintosh; Intel Mac OS X 10_15_7) AppleWebKit/605.1.15 (KHTML, like Gecko) Version/18.4 Safari/605.1.15","Macintosh","Safari","18.4","OS X","10_15_7","https://hz8g1ckzuq.cognition.run/","en-US,en;q=0.9","urmu7p7jlblp2g5","46","[""White""]","No","Female","1803112","9807","","","{""product_choice"":""B""}","choice","dct","repulsion_2","2","laptops","null","null","null","null","null","null","1","30","40","20","100","90","100","Processing speed","Memory (RAM)","",""
"","","","","","choice_trial_setup","html-keyboard-response","158","1703360","0.0-5.0-0.37","196","1","2025-04-14 14:45:33","bb671e3ae32f654b8954ea4c4635f915","","Mozilla/5.0 (Macintosh; Intel Mac OS X 10_15_7) AppleWebKit/605.1.15 (KHTML, like Gecko) Version/18.4 Safari/605.1.15","Macintosh","Safari","18.4","OS X","10_15_7","https://hz8g1ckzuq.cognition.run/","en-US,en;q=0.9","urmu7p7jlblp2g5","46","[""White""]","No","Female","1803112","null","","<p></p>","null","choice","tcd","attraction_2","2","laptops","null","null","null","null","null","null","1","","","","","","","","","",""
