"success","timeout","failed_images","failed_audio","failed_video","screen_id","trial_type","trial_index","time_elapsed","internal_node_id","run_id","condition","recorded_at","source_code_version","ip","user_agent","device","browser","browser_version","platform","platform_version","referer","accept_language","ppt_id","age","race","ethnicity","gender","exp_duration","rt","view_history","stimulus","response","phase","order","effect","t_high","category","d1_best","d2_best","d1_worst1","d2_worst1","d1_worst2","d2_worst2","first_dim","d1_t","d1_c","d1_d","d2_t","d2_c","d2_d","d1_name","d2_name","strategy_response","question_order"
"true","false","[]","[]","[]","img preload","preload","0","3289","0.0-0.0","198","1","2025-04-14 14:47:30","bb671e3ae32f654b8954ea4c4635f915","","Mozilla/5.0 (Windows NT 10.0; Win64; x64) AppleWebKit/537.36 (KHTML, like Gecko) Chrome/124.0.0.0 Safari/537.36","WebKit","Chrome","124.0.0.0","Windows","10.0","https://hz8g1ckzuq.cognition.run/","en-US,en;q=0.9","xshpm584nj8s3y8","28","[""White""]","No","Prefer not to say","1508526.5","","","","","","","","","","","","","","","","","","","","","","","","","",""
"true","","","","","","fullscreen","1","38921","0.0-1.0","198","1","2025-04-14 14:47:30","bb671e3ae32f654b8954ea4c4635f915","","Mozilla/5.0 (Windows NT 10.0; Win64; x64) AppleWebKit/537.36 (KHTML, like Gecko) Chrome/124.0.0.0 Safari/537.36","WebKit","Chrome","124.0.0.0","Windows","10.0","https://hz8g1ckzuq.cognition.run/","en-US,en;q=0.9","xshpm584nj8s3y8","28","[""White""]","No","Prefer not to say","1508526.5","34605","","","","","","","","","","","","","","","","","","","","","","","","",""
"","","","","","","instructions","2","115813","0.0-2.0","198","1","2025-04-14 14:47:30","bb671e3ae32f654b8954ea4c4635f915","","Mozilla/5.0 (Windows NT 10.0; Win64; x64) AppleWebKit/537.36 (KHTML, like Gecko) Chrome/124.0.0.0 Safari/537.36","WebKit","Chrome","124.0.0.0","Windows","10.0","https://hz8g1ckzuq.cognition.run/","en-US,en;q=0.9","xshpm584nj8s3y8","28","[""White""]","No","Prefer not to say","1508526.5","76891","[{""page_index"":0,""viewing_time"":2963},{""page_index"":1,""viewing_time"":2742},{""page_index"":2,""viewing_time"":2531},{""page_index"":3,""viewing_time"":5728},{""page_index"":4,""viewing_time"":11560},{""page_index"":5,""viewing_time"":5691},{""page_index"":6,""viewing_time"":11509},{""page_index"":7,""viewing_time"":12802},{""page_index"":8,""viewing_time"":12452},{""page_index"":9,""viewing_time"":8911}]","","","","","","","","","","","","","","","","","","","","","","","",""
"","","","","","rating_trial_setup","html-keyboard-response","3","116117","0.0-3.0-0.0","198","1","2025-04-14 14:47:30","bb671e3ae32f654b8954ea4c4635f915","","Mozilla/5.0 (Windows NT 10.0; Win64; x64) AppleWebKit/537.36 (KHTML, like Gecko) Chrome/124.0.0.0 Safari/537.36","WebKit","Chrome","124.0.0.0","Windows","10.0","https://hz8g1ckzuq.cognition.run/","en-US,en;q=0.9","xshpm584nj8s3y8","28","[""White""]","No","Prefer not to say","1508526.5","null","","<p></p>","null","rating","wwb","catch","null","washing machines","80","90","25","40","5","40","2","","","","","","","","","",""
"","","","","","rating_trial","survey-html-form","4","160852","0.0-3.0-1.0","198","1","2025-04-14 14:47:30","bb671e3ae32f654b8954ea4c4635f915","","Mozilla/5.0 (Windows NT 10.0; Win64; x64) AppleWebKit/537.36 (KHTML, like Gecko) Chrome/124.0.0.0 Safari/537.36","WebKit","Chrome","124.0.0.0","Windows","10.0","https://hz8g1ckzuq.cognition.run/","en-US,en;q=0.9","xshpm584nj8s3y8","28","[""White""]","No","Prefer not to say","1508526.5","44730","","","{""price_1"":""20"",""price_2"":""40"",""price_3"":""60""}","rating","wwb","catch","null","washing machines","80","90","25","40","5","40","2","null","null","null","null","null","null","Average lifespan","Energy savings","",""
"","","","","","rating_trial_setup","html-keyboard-response","5","161158","0.0-3.0-0.1","198","1","2025-04-14 14:47:30","bb671e3ae32f654b8954ea4c4635f915","","Mozilla/5.0 (Windows NT 10.0; Win64; x64) AppleWebKit/537.36 (KHTML, like Gecko) Chrome/124.0.0.0 Safari/537.36","WebKit","Chrome","124.0.0.0","Windows","10.0","https://hz8g1ckzuq.cognition.run/","en-US,en;q=0.9","xshpm584nj8s3y8","28","[""White""]","No","Prefer not to say","1508526.5","null","","<p></p>","null","rating","bww","catch","null","microwave ovens","85","55","20","30","30","10","2","","","","","","","","","",""
"","","","","","rating_trial","survey-html-form","6","196612","0.0-3.0-1.1","198","1","2025-04-14 14:47:30","bb671e3ae32f654b8954ea4c4635f915","","Mozilla/5.0 (Windows NT 10.0; Win64; x64) AppleWebKit/537.36 (KHTML, like Gecko) Chrome/124.0.0.0 Safari/537.36","WebKit","Chrome","124.0.0.0","Windows","10.0","https://hz8g1ckzuq.cognition.run/","en-US,en;q=0.9","xshpm584nj8s3y8","28","[""White""]","No","Prefer not to say","1508526.5","35448","","","{""price_1"":""80"",""price_2"":""30"",""price_3"":""30""}","rating","bww","catch","null","microwave ovens","85","55","20","30","30","10","2","null","null","null","null","null","null","Warranty","Cooking power","",""
"","","","","","rating_trial_setup","html-keyboard-response","7","196925","0.0-3.0-0.2","198","1","2025-04-14 14:47:30","bb671e3ae32f654b8954ea4c4635f915","","Mozilla/5.0 (Windows NT 10.0; Win64; x64) AppleWebKit/537.36 (KHTML, like Gecko) Chrome/124.0.0.0 Safari/537.36","WebKit","Chrome","124.0.0.0","Windows","10.0","https://hz8g1ckzuq.cognition.run/","en-US,en;q=0.9","xshpm584nj8s3y8","28","[""White""]","No","Prefer not to say","1508526.5","null","","<p></p>","null","rating","wbw","catch","null","televisions","50","75","5","30","30","45","1","","","","","","","","","",""
"","","","","","rating_trial","survey-html-form","8","270625","0.0-3.0-1.2","198","1","2025-04-14 14:47:30","bb671e3ae32f654b8954ea4c4635f915","","Mozilla/5.0 (Windows NT 10.0; Win64; x64) AppleWebKit/537.36 (KHTML, like Gecko) Chrome/124.0.0.0 Safari/537.36","WebKit","Chrome","124.0.0.0","Windows","10.0","https://hz8g1ckzuq.cognition.run/","en-US,en;q=0.9","xshpm584nj8s3y8","28","[""White""]","No","Prefer not to say","1508526.5","73695","","","{""price_1"":""50"",""price_2"":""100"",""price_3"":""70""}","rating","wbw","catch","null","televisions","50","75","5","30","30","45","1","null","null","null","null","null","null","Screen size","Average lifespan","",""
"","","","","","rating_trial_setup","html-keyboard-response","9","270937","0.0-3.0-0.3","198","1","2025-04-14 14:47:30","bb671e3ae32f654b8954ea4c4635f915","","Mozilla/5.0 (Windows NT 10.0; Win64; x64) AppleWebKit/537.36 (KHTML, like Gecko) Chrome/124.0.0.0 Safari/537.36","WebKit","Chrome","124.0.0.0","Windows","10.0","https://hz8g1ckzuq.cognition.run/","en-US,en;q=0.9","xshpm584nj8s3y8","28","[""White""]","No","Prefer not to say","1508526.5","null","","<p></p>","null","rating","dtc","attraction_1","1","microwave ovens","null","null","null","null","null","null","2","","","","","","","","","",""
"","","","","","rating_trial","survey-html-form","10","285948","0.0-3.0-1.3","198","1","2025-04-14 14:47:30","bb671e3ae32f654b8954ea4c4635f915","","Mozilla/5.0 (Windows NT 10.0; Win64; x64) AppleWebKit/537.36 (KHTML, like Gecko) Chrome/124.0.0.0 Safari/537.36","WebKit","Chrome","124.0.0.0","Windows","10.0","https://hz8g1ckzuq.cognition.run/","en-US,en;q=0.9","xshpm584nj8s3y8","28","[""White""]","No","Prefer not to say","1508526.5","15005","","","{""price_1"":""80"",""price_2"":""80"",""price_3"":""120""}","rating","dtc","attraction_1","1","microwave ovens","null","null","null","null","null","null","2","60","50","60","50","60","45","Warranty","Cooking power","",""
"","","","","","rating_trial_setup","html-keyboard-response","11","286263","0.0-3.0-0.4","198","1","2025-04-14 14:47:30","bb671e3ae32f654b8954ea4c4635f915","","Mozilla/5.0 (Windows NT 10.0; Win64; x64) AppleWebKit/537.36 (KHTML, like Gecko) Chrome/124.0.0.0 Safari/537.36","WebKit","Chrome","124.0.0.0","Windows","10.0","https://hz8g1ckzuq.cognition.run/","en-US,en;q=0.9","xshpm584nj8s3y8","28","[""White""]","No","Prefer not to say","1508526.5","null","","<p></p>","null","rating","dtc","repulsion_1","2","televisions","null","null","null","null","null","null","2","","","","","","","","","",""
"","","","","","rating_trial","survey-html-form","12","302653","0.0-3.0-1.4","198","1","2025-04-14 14:47:30","bb671e3ae32f654b8954ea4c4635f915","","Mozilla/5.0 (Windows NT 10.0; Win64; x64) AppleWebKit/537.36 (KHTML, like Gecko) Chrome/124.0.0.0 Safari/537.36","WebKit","Chrome","124.0.0.0","Windows","10.0","https://hz8g1ckzuq.cognition.run/","en-US,en;q=0.9","xshpm584nj8s3y8","28","[""White""]","No","Prefer not to say","1508526.5","16385","","","{""price_1"":""150"",""price_2"":""140"",""price_3"":""100""}","rating","dtc","repulsion_1","2","televisions","null","null","null","null","null","null","2","30","40","25","100","90","100","Screen size","Average lifespan","",""
"","","","","","rating_trial_setup","html-keyboard-response","13","302958","0.0-3.0-0.5","198","1","2025-04-14 14:47:30","bb671e3ae32f654b8954ea4c4635f915","","Mozilla/5.0 (Windows NT 10.0; Win64; x64) AppleWebKit/537.36 (KHTML, like Gecko) Chrome/124.0.0.0 Safari/537.36","WebKit","Chrome","124.0.0.0","Windows","10.0","https://hz8g1ckzuq.cognition.run/","en-US,en;q=0.9","xshpm584nj8s3y8","28","[""White""]","No","Prefer not to say","1508526.5","null","","<p></p>","null","rating","tcd","attraction_2","1","televisions","null","null","null","null","null","null","1","","","","","","","","","",""
"","","","","","rating_trial","survey-html-form","14","318682","0.0-3.0-1.5","198","1","2025-04-14 14:47:30","bb671e3ae32f654b8954ea4c4635f915","","Mozilla/5.0 (Windows NT 10.0; Win64; x64) AppleWebKit/537.36 (KHTML, like Gecko) Chrome/124.0.0.0 Safari/537.36","WebKit","Chrome","124.0.0.0","Windows","10.0","https://hz8g1ckzuq.cognition.run/","en-US,en;q=0.9","xshpm584nj8s3y8","28","[""White""]","No","Prefer not to say","1508526.5","15720","","","{""price_1"":""100"",""price_2"":""110"",""price_3"":""100""}","rating","tcd","attraction_2","1","televisions","null","null","null","null","null","null","1","60","50","60","50","60","40","Screen size","Average lifespan","",""
"","","","","","rating_trial_setup","html-keyboard-response","15","318989","0.0-3.0-0.6","198","1","2025-04-14 14:47:30","bb671e3ae32f654b8954ea4c4635f915","","Mozilla/5.0 (Windows NT 10.0; Win64; x64) AppleWebKit/537.36 (KHTML, like Gecko) Chrome/124.0.0.0 Safari/537.36","WebKit","Chrome","124.0.0.0","Windows","10.0","https://hz8g1ckzuq.cognition.run/","en-US,en;q=0.9","xshpm584nj8s3y8","28","[""White""]","No","Prefer not to say","1508526.5","null","","<p></p>","null","rating","dct","attraction_2","1","washing machines","null","null","null","null","null","null","2","","","","","","","","","",""
"","","","","","rating_trial","survey-html-form","16","335551","0.0-3.0-1.6","198","1","2025-04-14 14:47:30","bb671e3ae32f654b8954ea4c4635f915","","Mozilla/5.0 (Windows NT 10.0; Win64; x64) AppleWebKit/537.36 (KHTML, like Gecko) Chrome/124.0.0.0 Safari/537.36","WebKit","Chrome","124.0.0.0","Windows","10.0","https://hz8g1ckzuq.cognition.run/","en-US,en;q=0.9","xshpm584nj8s3y8","28","[""White""]","No","Prefer not to say","1508526.5","16558","","","{""price_1"":""80"",""price_2"":""75"",""price_3"":""80""}","rating","dct","attraction_2","1","washing machines","null","null","null","null","null","null","2","60","50","60","50","60","40","Average lifespan","Energy savings","",""
"","","","","","rating_trial_setup","html-keyboard-response","17","335860","0.0-3.0-0.7","198","1","2025-04-14 14:47:30","bb671e3ae32f654b8954ea4c4635f915","","Mozilla/5.0 (Windows NT 10.0; Win64; x64) AppleWebKit/537.36 (KHTML, like Gecko) Chrome/124.0.0.0 Safari/537.36","WebKit","Chrome","124.0.0.0","Windows","10.0","https://hz8g1ckzuq.cognition.run/","en-US,en;q=0.9","xshpm584nj8s3y8","28","[""White""]","No","Prefer not to say","1508526.5","null","","<p></p>","null","rating","dtc","repulsion_2","2","televisions","null","null","null","null","null","null","1","","","","","","","","","",""
"","","","","","rating_trial","survey-html-form","18","347985","0.0-3.0-1.7","198","1","2025-04-14 14:47:30","bb671e3ae32f654b8954ea4c4635f915","","Mozilla/5.0 (Windows NT 10.0; Win64; x64) AppleWebKit/537.36 (KHTML, like Gecko) Chrome/124.0.0.0 Safari/537.36","WebKit","Chrome","124.0.0.0","Windows","10.0","https://hz8g1ckzuq.cognition.run/","en-US,en;q=0.9","xshpm584nj8s3y8","28","[""White""]","No","Prefer not to say","1508526.5","12123","","","{""price_1"":""120"",""price_2"":""130"",""price_3"":""100""}","rating","dtc","repulsion_2","2","televisions","null","null","null","null","null","null","1","30","40","20","100","90","100","Screen size","Average lifespan","",""
"","","","","","rating_trial_setup","html-keyboard-response","19","348292","0.0-3.0-0.8","198","1","2025-04-14 14:47:30","bb671e3ae32f654b8954ea4c4635f915","","Mozilla/5.0 (Windows NT 10.0; Win64; x64) AppleWebKit/537.36 (KHTML, like Gecko) Chrome/124.0.0.0 Safari/537.36","WebKit","Chrome","124.0.0.0","Windows","10.0","https://hz8g1ckzuq.cognition.run/","en-US,en;q=0.9","xshpm584nj8s3y8","28","[""White""]","No","Prefer not to say","1508526.5","null","","<p></p>","null","rating","wwb","catch","null","laptops","60","75","50","10","50","20","2","","","","","","","","","",""
"","","","","","rating_trial","survey-html-form","20","376429","0.0-3.0-1.8","198","1","2025-04-14 14:47:30","bb671e3ae32f654b8954ea4c4635f915","","Mozilla/5.0 (Windows NT 10.0; Win64; x64) AppleWebKit/537.36 (KHTML, like Gecko) Chrome/124.0.0.0 Safari/537.36","WebKit","Chrome","124.0.0.0","Windows","10.0","https://hz8g1ckzuq.cognition.run/","en-US,en;q=0.9","xshpm584nj8s3y8","28","[""White""]","No","Prefer not to say","1508526.5","28134","","","{""price_1"":""100"",""price_2"":""120"",""price_3"":""160""}","rating","wwb","catch","null","laptops","60","75","50","10","50","20","2","null","null","null","null","null","null","Processing speed","Memory (RAM)","",""
"","","","","","rating_trial_setup","html-keyboard-response","21","376740","0.0-3.0-0.9","198","1","2025-04-14 14:47:30","bb671e3ae32f654b8954ea4c4635f915","","Mozilla/5.0 (Windows NT 10.0; Win64; x64) AppleWebKit/537.36 (KHTML, like Gecko) Chrome/124.0.0.0 Safari/537.36","WebKit","Chrome","124.0.0.0","Windows","10.0","https://hz8g1ckzuq.cognition.run/","en-US,en;q=0.9","xshpm584nj8s3y8","28","[""White""]","No","Prefer not to say","1508526.5","null","","<p></p>","null","rating","ctd","attraction_2","2","laptops","null","null","null","null","null","null","2","","","","","","","","","",""
"","","","","","rating_trial","survey-html-form","22","401202","0.0-3.0-1.9","198","1","2025-04-14 14:47:30","bb671e3ae32f654b8954ea4c4635f915","","Mozilla/5.0 (Windows NT 10.0; Win64; x64) AppleWebKit/537.36 (KHTML, like Gecko) Chrome/124.0.0.0 Safari/537.36","WebKit","Chrome","124.0.0.0","Windows","10.0","https://hz8g1ckzuq.cognition.run/","en-US,en;q=0.9","xshpm584nj8s3y8","28","[""White""]","No","Prefer not to say","1508526.5","24456","","","{""price_1"":""140"",""price_2"":""140"",""price_3"":""140""}","rating","ctd","attraction_2","2","laptops","null","null","null","null","null","null","2","50","60","40","60","50","60","Processing speed","Memory (RAM)","",""
"","","","","","rating_trial_setup","html-keyboard-response","23","401515","0.0-3.0-0.10","198","1","2025-04-14 14:47:30","bb671e3ae32f654b8954ea4c4635f915","","Mozilla/5.0 (Windows NT 10.0; Win64; x64) AppleWebKit/537.36 (KHTML, like Gecko) Chrome/124.0.0.0 Safari/537.36","WebKit","Chrome","124.0.0.0","Windows","10.0","https://hz8g1ckzuq.cognition.run/","en-US,en;q=0.9","xshpm584nj8s3y8","28","[""White""]","No","Prefer not to say","1508526.5","null","","<p></p>","null","rating","tdc","attraction_1","2","laptops","null","null","null","null","null","null","2","","","","","","","","","",""
"","","","","","rating_trial","survey-html-form","24","428960","0.0-3.0-1.10","198","1","2025-04-14 14:47:30","bb671e3ae32f654b8954ea4c4635f915","","Mozilla/5.0 (Windows NT 10.0; Win64; x64) AppleWebKit/537.36 (KHTML, like Gecko) Chrome/124.0.0.0 Safari/537.36","WebKit","Chrome","124.0.0.0","Windows","10.0","https://hz8g1ckzuq.cognition.run/","en-US,en;q=0.9","xshpm584nj8s3y8","28","[""White""]","No","Prefer not to say","1508526.5","27441","","","{""price_1"":""150"",""price_2"":""140"",""price_3"":""160""}","rating","tdc","attraction_1","2","laptops","null","null","null","null","null","null","2","50","60","45","60","50","60","Processing speed","Memory (RAM)","",""
"","","","","","rating_trial_setup","html-keyboard-response","25","429265","0.0-3.0-0.11","198","1","2025-04-14 14:47:30","bb671e3ae32f654b8954ea4c4635f915","","Mozilla/5.0 (Windows NT 10.0; Win64; x64) AppleWebKit/537.36 (KHTML, like Gecko) Chrome/124.0.0.0 Safari/537.36","WebKit","Chrome","124.0.0.0","Windows","10.0","https://hz8g1ckzuq.cognition.run/","en-US,en;q=0.9","xshpm584nj8s3y8","28","[""White""]","No","Prefer not to say","1508526.5","null","","<p></p>","null","rating","dtc","attraction_1","1","washing machines","null","null","null","null","null","null","2","","","","","","","","","",""
"","","","","","rating_trial","survey-html-form","26","446082","0.0-3.0-1.11","198","1","2025-04-14 14:47:30","bb671e3ae32f654b8954ea4c4635f915","","Mozilla/5.0 (Windows NT 10.0; Win64; x64) AppleWebKit/537.36 (KHTML, like Gecko) Chrome/124.0.0.0 Safari/537.36","WebKit","Chrome","124.0.0.0","Windows","10.0","https://hz8g1ckzuq.cognition.run/","en-US,en;q=0.9","xshpm584nj8s3y8","28","[""White""]","No","Prefer not to say","1508526.5","16813","","","{""price_1"":""100"",""price_2"":""120"",""price_3"":""150""}","rating","dtc","attraction_1","1","washing machines","null","null","null","null","null","null","2","60","50","60","50","60","45","Average lifespan","Energy savings","",""
"","","","","","rating_trial_setup","html-keyboard-response","27","446388","0.0-3.0-0.12","198","1","2025-04-14 14:47:30","bb671e3ae32f654b8954ea4c4635f915","","Mozilla/5.0 (Windows NT 10.0; Win64; x64) AppleWebKit/537.36 (KHTML, like Gecko) Chrome/124.0.0.0 Safari/537.36","WebKit","Chrome","124.0.0.0","Windows","10.0","https://hz8g1ckzuq.cognition.run/","en-US,en;q=0.9","xshpm584nj8s3y8","28","[""White""]","No","Prefer not to say","1508526.5","null","","<p></p>","null","rating","dct","repulsion_2","1","microwave ovens","null","null","null","null","null","null","1","","","","","","","","","",""
"","","","","","rating_trial","survey-html-form","28","466749","0.0-3.0-1.12","198","1","2025-04-14 14:47:30","bb671e3ae32f654b8954ea4c4635f915","","Mozilla/5.0 (Windows NT 10.0; Win64; x64) AppleWebKit/537.36 (KHTML, like Gecko) Chrome/124.0.0.0 Safari/537.36","WebKit","Chrome","124.0.0.0","Windows","10.0","https://hz8g1ckzuq.cognition.run/","en-US,en;q=0.9","xshpm584nj8s3y8","28","[""White""]","No","Prefer not to say","1508526.5","20357","","","{""price_1"":""100"",""price_2"":""120"",""price_3"":""140""}","rating","dct","repulsion_2","1","microwave ovens","null","null","null","null","null","null","1","100","90","100","30","40","20","Warranty","Cooking power","",""
"","","","","","rating_trial_setup","html-keyboard-response","29","467055","0.0-3.0-0.13","198","1","2025-04-14 14:47:30","bb671e3ae32f654b8954ea4c4635f915","","Mozilla/5.0 (Windows NT 10.0; Win64; x64) AppleWebKit/537.36 (KHTML, like Gecko) Chrome/124.0.0.0 Safari/537.36","WebKit","Chrome","124.0.0.0","Windows","10.0","https://hz8g1ckzuq.cognition.run/","en-US,en;q=0.9","xshpm584nj8s3y8","28","[""White""]","No","Prefer not to say","1508526.5","null","","<p></p>","null","rating","ctd","repulsion_1","1","washing machines","null","null","null","null","null","null","1","","","","","","","","","",""
"","","","","","rating_trial","survey-html-form","30","493403","0.0-3.0-1.13","198","1","2025-04-14 14:47:30","bb671e3ae32f654b8954ea4c4635f915","","Mozilla/5.0 (Windows NT 10.0; Win64; x64) AppleWebKit/537.36 (KHTML, like Gecko) Chrome/124.0.0.0 Safari/537.36","WebKit","Chrome","124.0.0.0","Windows","10.0","https://hz8g1ckzuq.cognition.run/","en-US,en;q=0.9","xshpm584nj8s3y8","28","[""White""]","No","Prefer not to say","1508526.5","26341","","","{""price_1"":""100"",""price_2"":""110"",""price_3"":""90""}","rating","ctd","repulsion_1","1","washing machines","null","null","null","null","null","null","1","100","90","100","30","40","25","Average lifespan","Energy savings","",""
"","","","","","rating_trial_setup","html-keyboard-response","31","493710","0.0-3.0-0.14","198","1","2025-04-14 14:47:30","bb671e3ae32f654b8954ea4c4635f915","","Mozilla/5.0 (Windows NT 10.0; Win64; x64) AppleWebKit/537.36 (KHTML, like Gecko) Chrome/124.0.0.0 Safari/537.36","WebKit","Chrome","124.0.0.0","Windows","10.0","https://hz8g1ckzuq.cognition.run/","en-US,en;q=0.9","xshpm584nj8s3y8","28","[""White""]","No","Prefer not to say","1508526.5","null","","<p></p>","null","rating","cdt","attraction_2","2","televisions","null","null","null","null","null","null","1","","","","","","","","","",""
"","","","","","rating_trial","survey-html-form","32","522135","0.0-3.0-1.14","198","1","2025-04-14 14:47:30","bb671e3ae32f654b8954ea4c4635f915","","Mozilla/5.0 (Windows NT 10.0; Win64; x64) AppleWebKit/537.36 (KHTML, like Gecko) Chrome/124.0.0.0 Safari/537.36","WebKit","Chrome","124.0.0.0","Windows","10.0","https://hz8g1ckzuq.cognition.run/","en-US,en;q=0.9","xshpm584nj8s3y8","28","[""White""]","No","Prefer not to say","1508526.5","28420","","","{""price_1"":""120"",""price_2"":""110"",""price_3"":""130""}","rating","cdt","attraction_2","2","televisions","null","null","null","null","null","null","1","50","60","40","60","50","60","Screen size","Average lifespan","",""
"","","","","","rating_trial_setup","html-keyboard-response","33","522449","0.0-3.0-0.15","198","1","2025-04-14 14:47:30","bb671e3ae32f654b8954ea4c4635f915","","Mozilla/5.0 (Windows NT 10.0; Win64; x64) AppleWebKit/537.36 (KHTML, like Gecko) Chrome/124.0.0.0 Safari/537.36","WebKit","Chrome","124.0.0.0","Windows","10.0","https://hz8g1ckzuq.cognition.run/","en-US,en;q=0.9","xshpm584nj8s3y8","28","[""White""]","No","Prefer not to say","1508526.5","null","","<p></p>","null","rating","tcd","attraction_1","2","televisions","null","null","null","null","null","null","2","","","","","","","","","",""
"","","","","","rating_trial","survey-html-form","34","541014","0.0-3.0-1.15","198","1","2025-04-14 14:47:30","bb671e3ae32f654b8954ea4c4635f915","","Mozilla/5.0 (Windows NT 10.0; Win64; x64) AppleWebKit/537.36 (KHTML, like Gecko) Chrome/124.0.0.0 Safari/537.36","WebKit","Chrome","124.0.0.0","Windows","10.0","https://hz8g1ckzuq.cognition.run/","en-US,en;q=0.9","xshpm584nj8s3y8","28","[""White""]","No","Prefer not to say","1508526.5","18560","","","{""price_1"":""100"",""price_2"":""90"",""price_3"":""100""}","rating","tcd","attraction_1","2","televisions","null","null","null","null","null","null","2","50","60","45","60","50","60","Screen size","Average lifespan","",""
"","","","","","rating_trial_setup","html-keyboard-response","35","541321","0.0-3.0-0.16","198","1","2025-04-14 14:47:30","bb671e3ae32f654b8954ea4c4635f915","","Mozilla/5.0 (Windows NT 10.0; Win64; x64) AppleWebKit/537.36 (KHTML, like Gecko) Chrome/124.0.0.0 Safari/537.36","WebKit","Chrome","124.0.0.0","Windows","10.0","https://hz8g1ckzuq.cognition.run/","en-US,en;q=0.9","xshpm584nj8s3y8","28","[""White""]","No","Prefer not to say","1508526.5","null","","<p></p>","null","rating","tdc","attraction_1","1","laptops","null","null","null","null","null","null","2","","","","","","","","","",""
"","","","","","rating_trial","survey-html-form","36","567841","0.0-3.0-1.16","198","1","2025-04-14 14:47:30","bb671e3ae32f654b8954ea4c4635f915","","Mozilla/5.0 (Windows NT 10.0; Win64; x64) AppleWebKit/537.36 (KHTML, like Gecko) Chrome/124.0.0.0 Safari/537.36","WebKit","Chrome","124.0.0.0","Windows","10.0","https://hz8g1ckzuq.cognition.run/","en-US,en;q=0.9","xshpm584nj8s3y8","28","[""White""]","No","Prefer not to say","1508526.5","26514","","","{""price_1"":""120"",""price_2"":""110"",""price_3"":""130""}","rating","tdc","attraction_1","1","laptops","null","null","null","null","null","null","2","60","50","60","50","60","45","Processing speed","Memory (RAM)","",""
"","","","","","rating_trial_setup","html-keyboard-response","37","568148","0.0-3.0-0.17","198","1","2025-04-14 14:47:30","bb671e3ae32f654b8954ea4c4635f915","","Mozilla/5.0 (Windows NT 10.0; Win64; x64) AppleWebKit/537.36 (KHTML, like Gecko) Chrome/124.0.0.0 Safari/537.36","WebKit","Chrome","124.0.0.0","Windows","10.0","https://hz8g1ckzuq.cognition.run/","en-US,en;q=0.9","xshpm584nj8s3y8","28","[""White""]","No","Prefer not to say","1508526.5","null","","<p></p>","null","rating","wwb","catch","null","washing machines","50","55","40","35","45","40","2","","","","","","","","","",""
"","","","","","rating_trial","survey-html-form","38","589789","0.0-3.0-1.17","198","1","2025-04-14 14:47:30","bb671e3ae32f654b8954ea4c4635f915","","Mozilla/5.0 (Windows NT 10.0; Win64; x64) AppleWebKit/537.36 (KHTML, like Gecko) Chrome/124.0.0.0 Safari/537.36","WebKit","Chrome","124.0.0.0","Windows","10.0","https://hz8g1ckzuq.cognition.run/","en-US,en;q=0.9","xshpm584nj8s3y8","28","[""White""]","No","Prefer not to say","1508526.5","21635","","","{""price_1"":""100"",""price_2"":""120"",""price_3"":""130""}","rating","wwb","catch","null","washing machines","50","55","40","35","45","40","2","null","null","null","null","null","null","Average lifespan","Energy savings","",""
"","","","","","rating_trial_setup","html-keyboard-response","39","590095","0.0-3.0-0.18","198","1","2025-04-14 14:47:30","bb671e3ae32f654b8954ea4c4635f915","","Mozilla/5.0 (Windows NT 10.0; Win64; x64) AppleWebKit/537.36 (KHTML, like Gecko) Chrome/124.0.0.0 Safari/537.36","WebKit","Chrome","124.0.0.0","Windows","10.0","https://hz8g1ckzuq.cognition.run/","en-US,en;q=0.9","xshpm584nj8s3y8","28","[""White""]","No","Prefer not to say","1508526.5","null","","<p></p>","null","rating","wwb","catch","null","microwave ovens","80","70","20","30","50","30","1","","","","","","","","","",""
"","","","","","rating_trial","survey-html-form","40","606177","0.0-3.0-1.18","198","1","2025-04-14 14:47:30","bb671e3ae32f654b8954ea4c4635f915","","Mozilla/5.0 (Windows NT 10.0; Win64; x64) AppleWebKit/537.36 (KHTML, like Gecko) Chrome/124.0.0.0 Safari/537.36","WebKit","Chrome","124.0.0.0","Windows","10.0","https://hz8g1ckzuq.cognition.run/","en-US,en;q=0.9","xshpm584nj8s3y8","28","[""White""]","No","Prefer not to say","1508526.5","16077","","","{""price_1"":""80"",""price_2"":""100"",""price_3"":""200""}","rating","wwb","catch","null","microwave ovens","80","70","20","30","50","30","1","null","null","null","null","null","null","Warranty","Cooking power","",""
"","","","","","rating_trial_setup","html-keyboard-response","41","606486","0.0-3.0-0.19","198","1","2025-04-14 14:47:30","bb671e3ae32f654b8954ea4c4635f915","","Mozilla/5.0 (Windows NT 10.0; Win64; x64) AppleWebKit/537.36 (KHTML, like Gecko) Chrome/124.0.0.0 Safari/537.36","WebKit","Chrome","124.0.0.0","Windows","10.0","https://hz8g1ckzuq.cognition.run/","en-US,en;q=0.9","xshpm584nj8s3y8","28","[""White""]","No","Prefer not to say","1508526.5","null","","<p></p>","null","rating","cdt","repulsion_2","2","washing machines","null","null","null","null","null","null","2","","","","","","","","","",""
"","","","","","rating_trial","survey-html-form","42","657652","0.0-3.0-1.19","198","1","2025-04-14 14:47:30","bb671e3ae32f654b8954ea4c4635f915","","Mozilla/5.0 (Windows NT 10.0; Win64; x64) AppleWebKit/537.36 (KHTML, like Gecko) Chrome/124.0.0.0 Safari/537.36","WebKit","Chrome","124.0.0.0","Windows","10.0","https://hz8g1ckzuq.cognition.run/","en-US,en;q=0.9","xshpm584nj8s3y8","28","[""White""]","No","Prefer not to say","1508526.5","51160","","","{""price_1"":""100"",""price_2"":""120"",""price_3"":""130""}","rating","cdt","repulsion_2","2","washing machines","null","null","null","null","null","null","2","30","40","20","100","90","100","Average lifespan","Energy savings","",""
"","","","","","rating_trial_setup","html-keyboard-response","43","657956","0.0-3.0-0.20","198","1","2025-04-14 14:47:30","bb671e3ae32f654b8954ea4c4635f915","","Mozilla/5.0 (Windows NT 10.0; Win64; x64) AppleWebKit/537.36 (KHTML, like Gecko) Chrome/124.0.0.0 Safari/537.36","WebKit","Chrome","124.0.0.0","Windows","10.0","https://hz8g1ckzuq.cognition.run/","en-US,en;q=0.9","xshpm584nj8s3y8","28","[""White""]","No","Prefer not to say","1508526.5","null","","<p></p>","null","rating","cdt","repulsion_2","1","washing machines","null","null","null","null","null","null","1","","","","","","","","","",""
"","","","","","rating_trial","survey-html-form","44","679021","0.0-3.0-1.20","198","1","2025-04-14 14:47:30","bb671e3ae32f654b8954ea4c4635f915","","Mozilla/5.0 (Windows NT 10.0; Win64; x64) AppleWebKit/537.36 (KHTML, like Gecko) Chrome/124.0.0.0 Safari/537.36","WebKit","Chrome","124.0.0.0","Windows","10.0","https://hz8g1ckzuq.cognition.run/","en-US,en;q=0.9","xshpm584nj8s3y8","28","[""White""]","No","Prefer not to say","1508526.5","21060","","","{""price_1"":""100"",""price_2"":""90"",""price_3"":""80""}","rating","cdt","repulsion_2","1","washing machines","null","null","null","null","null","null","1","100","90","100","30","40","20","Average lifespan","Energy savings","",""
"","","","","","rating_trial_setup","html-keyboard-response","45","679327","0.0-3.0-0.21","198","1","2025-04-14 14:47:30","bb671e3ae32f654b8954ea4c4635f915","","Mozilla/5.0 (Windows NT 10.0; Win64; x64) AppleWebKit/537.36 (KHTML, like Gecko) Chrome/124.0.0.0 Safari/537.36","WebKit","Chrome","124.0.0.0","Windows","10.0","https://hz8g1ckzuq.cognition.run/","en-US,en;q=0.9","xshpm584nj8s3y8","28","[""White""]","No","Prefer not to say","1508526.5","null","","<p></p>","null","rating","cdt","repulsion_1","1","televisions","null","null","null","null","null","null","2","","","","","","","","","",""
"","","","","","rating_trial","survey-html-form","46","706493","0.0-3.0-1.21","198","1","2025-04-14 14:47:30","bb671e3ae32f654b8954ea4c4635f915","","Mozilla/5.0 (Windows NT 10.0; Win64; x64) AppleWebKit/537.36 (KHTML, like Gecko) Chrome/124.0.0.0 Safari/537.36","WebKit","Chrome","124.0.0.0","Windows","10.0","https://hz8g1ckzuq.cognition.run/","en-US,en;q=0.9","xshpm584nj8s3y8","28","[""White""]","No","Prefer not to say","1508526.5","27159","","","{""price_1"":""120"",""price_2"":""100"",""price_3"":""110""}","rating","cdt","repulsion_1","1","televisions","null","null","null","null","null","null","2","100","90","100","30","40","25","Screen size","Average lifespan","",""
"","","","","","rating_trial_setup","html-keyboard-response","47","706805","0.0-3.0-0.22","198","1","2025-04-14 14:47:30","bb671e3ae32f654b8954ea4c4635f915","","Mozilla/5.0 (Windows NT 10.0; Win64; x64) AppleWebKit/537.36 (KHTML, like Gecko) Chrome/124.0.0.0 Safari/537.36","WebKit","Chrome","124.0.0.0","Windows","10.0","https://hz8g1ckzuq.cognition.run/","en-US,en;q=0.9","xshpm584nj8s3y8","28","[""White""]","No","Prefer not to say","1508526.5","null","","<p></p>","null","rating","ctd","attraction_2","2","microwave ovens","null","null","null","null","null","null","1","","","","","","","","","",""
"","","","","","rating_trial","survey-html-form","48","719092","0.0-3.0-1.22","198","1","2025-04-14 14:47:30","bb671e3ae32f654b8954ea4c4635f915","","Mozilla/5.0 (Windows NT 10.0; Win64; x64) AppleWebKit/537.36 (KHTML, like Gecko) Chrome/124.0.0.0 Safari/537.36","WebKit","Chrome","124.0.0.0","Windows","10.0","https://hz8g1ckzuq.cognition.run/","en-US,en;q=0.9","xshpm584nj8s3y8","28","[""White""]","No","Prefer not to say","1508526.5","12281","","","{""price_1"":""120"",""price_2"":""110"",""price_3"":""100""}","rating","ctd","attraction_2","2","microwave ovens","null","null","null","null","null","null","1","50","60","40","60","50","60","Warranty","Cooking power","",""
"","","","","","rating_trial_setup","html-keyboard-response","49","719398","0.0-3.0-0.23","198","1","2025-04-14 14:47:30","bb671e3ae32f654b8954ea4c4635f915","","Mozilla/5.0 (Windows NT 10.0; Win64; x64) AppleWebKit/537.36 (KHTML, like Gecko) Chrome/124.0.0.0 Safari/537.36","WebKit","Chrome","124.0.0.0","Windows","10.0","https://hz8g1ckzuq.cognition.run/","en-US,en;q=0.9","xshpm584nj8s3y8","28","[""White""]","No","Prefer not to say","1508526.5","null","","<p></p>","null","rating","tcd","repulsion_2","1","televisions","null","null","null","null","null","null","2","","","","","","","","","",""
"","","","","","rating_trial","survey-html-form","50","745033","0.0-3.0-1.23","198","1","2025-04-14 14:47:30","bb671e3ae32f654b8954ea4c4635f915","","Mozilla/5.0 (Windows NT 10.0; Win64; x64) AppleWebKit/537.36 (KHTML, like Gecko) Chrome/124.0.0.0 Safari/537.36","WebKit","Chrome","124.0.0.0","Windows","10.0","https://hz8g1ckzuq.cognition.run/","en-US,en;q=0.9","xshpm584nj8s3y8","28","[""White""]","No","Prefer not to say","1508526.5","25630","","","{""price_1"":""120"",""price_2"":""90"",""price_3"":""100""}","rating","tcd","repulsion_2","1","televisions","null","null","null","null","null","null","2","100","90","100","30","40","20","Screen size","Average lifespan","",""
"","","","","","rating_trial_setup","html-keyboard-response","51","745351","0.0-3.0-0.24","198","1","2025-04-14 14:47:30","bb671e3ae32f654b8954ea4c4635f915","","Mozilla/5.0 (Windows NT 10.0; Win64; x64) AppleWebKit/537.36 (KHTML, like Gecko) Chrome/124.0.0.0 Safari/537.36","WebKit","Chrome","124.0.0.0","Windows","10.0","https://hz8g1ckzuq.cognition.run/","en-US,en;q=0.9","xshpm584nj8s3y8","28","[""White""]","No","Prefer not to say","1508526.5","null","","<p></p>","null","rating","dtc","attraction_2","2","washing machines","null","null","null","null","null","null","1","","","","","","","","","",""
"","","","","","rating_trial","survey-html-form","52","764657","0.0-3.0-1.24","198","1","2025-04-14 14:47:30","bb671e3ae32f654b8954ea4c4635f915","","Mozilla/5.0 (Windows NT 10.0; Win64; x64) AppleWebKit/537.36 (KHTML, like Gecko) Chrome/124.0.0.0 Safari/537.36","WebKit","Chrome","124.0.0.0","Windows","10.0","https://hz8g1ckzuq.cognition.run/","en-US,en;q=0.9","xshpm584nj8s3y8","28","[""White""]","No","Prefer not to say","1508526.5","19299","","","{""price_1"":""100"",""price_2"":""110"",""price_3"":""120""}","rating","dtc","attraction_2","2","washing machines","null","null","null","null","null","null","1","50","60","40","60","50","60","Average lifespan","Energy savings","",""
"","","","","","rating_trial_setup","html-keyboard-response","53","764963","0.0-3.0-0.25","198","1","2025-04-14 14:47:30","bb671e3ae32f654b8954ea4c4635f915","","Mozilla/5.0 (Windows NT 10.0; Win64; x64) AppleWebKit/537.36 (KHTML, like Gecko) Chrome/124.0.0.0 Safari/537.36","WebKit","Chrome","124.0.0.0","Windows","10.0","https://hz8g1ckzuq.cognition.run/","en-US,en;q=0.9","xshpm584nj8s3y8","28","[""White""]","No","Prefer not to say","1508526.5","null","","<p></p>","null","rating","dtc","repulsion_1","1","microwave ovens","null","null","null","null","null","null","1","","","","","","","","","",""
"","","","","","rating_trial","survey-html-form","54","826009","0.0-3.0-1.25","198","1","2025-04-14 14:47:30","bb671e3ae32f654b8954ea4c4635f915","","Mozilla/5.0 (Windows NT 10.0; Win64; x64) AppleWebKit/537.36 (KHTML, like Gecko) Chrome/124.0.0.0 Safari/537.36","WebKit","Chrome","124.0.0.0","Windows","10.0","https://hz8g1ckzuq.cognition.run/","en-US,en;q=0.9","xshpm584nj8s3y8","28","[""White""]","No","Prefer not to say","1508526.5","61041","","","{""price_1"":""130"",""price_2"":""140"",""price_3"":""100""}","rating","dtc","repulsion_1","1","microwave ovens","null","null","null","null","null","null","1","100","90","100","30","40","25","Warranty","Cooking power","",""
"","","","","","rating_trial_setup","html-keyboard-response","55","826314","0.0-3.0-0.26","198","1","2025-04-14 14:47:30","bb671e3ae32f654b8954ea4c4635f915","","Mozilla/5.0 (Windows NT 10.0; Win64; x64) AppleWebKit/537.36 (KHTML, like Gecko) Chrome/124.0.0.0 Safari/537.36","WebKit","Chrome","124.0.0.0","Windows","10.0","https://hz8g1ckzuq.cognition.run/","en-US,en;q=0.9","xshpm584nj8s3y8","28","[""White""]","No","Prefer not to say","1508526.5","null","","<p></p>","null","rating","tdc","attraction_1","2","microwave ovens","null","null","null","null","null","null","1","","","","","","","","","",""
"","","","","","rating_trial","survey-html-form","56","844871","0.0-3.0-1.26","198","1","2025-04-14 14:47:30","bb671e3ae32f654b8954ea4c4635f915","","Mozilla/5.0 (Windows NT 10.0; Win64; x64) AppleWebKit/537.36 (KHTML, like Gecko) Chrome/124.0.0.0 Safari/537.36","WebKit","Chrome","124.0.0.0","Windows","10.0","https://hz8g1ckzuq.cognition.run/","en-US,en;q=0.9","xshpm584nj8s3y8","28","[""White""]","No","Prefer not to say","1508526.5","18550","","","{""price_1"":""100"",""price_2"":""90"",""price_3"":""120""}","rating","tdc","attraction_1","2","microwave ovens","null","null","null","null","null","null","1","50","60","45","60","50","60","Warranty","Cooking power","",""
"","","","","","rating_trial_setup","html-keyboard-response","57","845175","0.0-3.0-0.27","198","1","2025-04-14 14:47:30","bb671e3ae32f654b8954ea4c4635f915","","Mozilla/5.0 (Windows NT 10.0; Win64; x64) AppleWebKit/537.36 (KHTML, like Gecko) Chrome/124.0.0.0 Safari/537.36","WebKit","Chrome","124.0.0.0","Windows","10.0","https://hz8g1ckzuq.cognition.run/","en-US,en;q=0.9","xshpm584nj8s3y8","28","[""White""]","No","Prefer not to say","1508526.5","null","","<p></p>","null","rating","cdt","repulsion_1","2","washing machines","null","null","null","null","null","null","1","","","","","","","","","",""
"","","","","","rating_trial","survey-html-form","58","863909","0.0-3.0-1.27","198","1","2025-04-14 14:47:30","bb671e3ae32f654b8954ea4c4635f915","","Mozilla/5.0 (Windows NT 10.0; Win64; x64) AppleWebKit/537.36 (KHTML, like Gecko) Chrome/124.0.0.0 Safari/537.36","WebKit","Chrome","124.0.0.0","Windows","10.0","https://hz8g1ckzuq.cognition.run/","en-US,en;q=0.9","xshpm584nj8s3y8","28","[""White""]","No","Prefer not to say","1508526.5","18726","","","{""price_1"":""120"",""price_2"":""80"",""price_3"":""100""}","rating","cdt","repulsion_1","2","washing machines","null","null","null","null","null","null","1","30","40","25","100","90","100","Average lifespan","Energy savings","",""
"","","","","","rating_trial_setup","html-keyboard-response","59","864214","0.0-3.0-0.28","198","1","2025-04-14 14:47:30","bb671e3ae32f654b8954ea4c4635f915","","Mozilla/5.0 (Windows NT 10.0; Win64; x64) AppleWebKit/537.36 (KHTML, like Gecko) Chrome/124.0.0.0 Safari/537.36","WebKit","Chrome","124.0.0.0","Windows","10.0","https://hz8g1ckzuq.cognition.run/","en-US,en;q=0.9","xshpm584nj8s3y8","28","[""White""]","No","Prefer not to say","1508526.5","null","","<p></p>","null","rating","wwb","catch","null","laptops","50","95","50","5","50","30","2","","","","","","","","","",""
"","","","","","rating_trial","survey-html-form","60","881669","0.0-3.0-1.28","198","1","2025-04-14 14:47:30","bb671e3ae32f654b8954ea4c4635f915","","Mozilla/5.0 (Windows NT 10.0; Win64; x64) AppleWebKit/537.36 (KHTML, like Gecko) Chrome/124.0.0.0 Safari/537.36","WebKit","Chrome","124.0.0.0","Windows","10.0","https://hz8g1ckzuq.cognition.run/","en-US,en;q=0.9","xshpm584nj8s3y8","28","[""White""]","No","Prefer not to say","1508526.5","17450","","","{""price_1"":""100"",""price_2"":""120"",""price_3"":""150""}","rating","wwb","catch","null","laptops","50","95","50","5","50","30","2","null","null","null","null","null","null","Processing speed","Memory (RAM)","",""
"","","","","","rating_trial_setup","html-keyboard-response","61","881975","0.0-3.0-0.29","198","1","2025-04-14 14:47:30","bb671e3ae32f654b8954ea4c4635f915","","Mozilla/5.0 (Windows NT 10.0; Win64; x64) AppleWebKit/537.36 (KHTML, like Gecko) Chrome/124.0.0.0 Safari/537.36","WebKit","Chrome","124.0.0.0","Windows","10.0","https://hz8g1ckzuq.cognition.run/","en-US,en;q=0.9","xshpm584nj8s3y8","28","[""White""]","No","Prefer not to say","1508526.5","null","","<p></p>","null","rating","dtc","repulsion_1","2","microwave ovens","null","null","null","null","null","null","2","","","","","","","","","",""
"","","","","","rating_trial","survey-html-form","62","904537","0.0-3.0-1.29","198","1","2025-04-14 14:47:30","bb671e3ae32f654b8954ea4c4635f915","","Mozilla/5.0 (Windows NT 10.0; Win64; x64) AppleWebKit/537.36 (KHTML, like Gecko) Chrome/124.0.0.0 Safari/537.36","WebKit","Chrome","124.0.0.0","Windows","10.0","https://hz8g1ckzuq.cognition.run/","en-US,en;q=0.9","xshpm584nj8s3y8","28","[""White""]","No","Prefer not to say","1508526.5","22556","","","{""price_1"":""100"",""price_2"":""110"",""price_3"":""90""}","rating","dtc","repulsion_1","2","microwave ovens","null","null","null","null","null","null","2","30","40","25","100","90","100","Warranty","Cooking power","",""
"","","","","","rating_trial_setup","html-keyboard-response","63","904843","0.0-3.0-0.30","198","1","2025-04-14 14:47:30","bb671e3ae32f654b8954ea4c4635f915","","Mozilla/5.0 (Windows NT 10.0; Win64; x64) AppleWebKit/537.36 (KHTML, like Gecko) Chrome/124.0.0.0 Safari/537.36","WebKit","Chrome","124.0.0.0","Windows","10.0","https://hz8g1ckzuq.cognition.run/","en-US,en;q=0.9","xshpm584nj8s3y8","28","[""White""]","No","Prefer not to say","1508526.5","null","","<p></p>","null","rating","dtc","repulsion_2","2","microwave ovens","null","null","null","null","null","null","2","","","","","","","","","",""
"","","","","","rating_trial","survey-html-form","64","949767","0.0-3.0-1.30","198","1","2025-04-14 14:47:30","bb671e3ae32f654b8954ea4c4635f915","","Mozilla/5.0 (Windows NT 10.0; Win64; x64) AppleWebKit/537.36 (KHTML, like Gecko) Chrome/124.0.0.0 Safari/537.36","WebKit","Chrome","124.0.0.0","Windows","10.0","https://hz8g1ckzuq.cognition.run/","en-US,en;q=0.9","xshpm584nj8s3y8","28","[""White""]","No","Prefer not to say","1508526.5","44920","","","{""price_1"":""100"",""price_2"":""120"",""price_3"":""90""}","rating","dtc","repulsion_2","2","microwave ovens","null","null","null","null","null","null","2","30","40","20","100","90","100","Warranty","Cooking power","",""
"","","","","","rating_trial_setup","html-keyboard-response","65","950072","0.0-3.0-0.31","198","1","2025-04-14 14:47:30","bb671e3ae32f654b8954ea4c4635f915","","Mozilla/5.0 (Windows NT 10.0; Win64; x64) AppleWebKit/537.36 (KHTML, like Gecko) Chrome/124.0.0.0 Safari/537.36","WebKit","Chrome","124.0.0.0","Windows","10.0","https://hz8g1ckzuq.cognition.run/","en-US,en;q=0.9","xshpm584nj8s3y8","28","[""White""]","No","Prefer not to say","1508526.5","null","","<p></p>","null","rating","cdt","repulsion_1","1","laptops","null","null","null","null","null","null","2","","","","","","","","","",""
"","","","","","rating_trial","survey-html-form","66","970444","0.0-3.0-1.31","198","1","2025-04-14 14:47:30","bb671e3ae32f654b8954ea4c4635f915","","Mozilla/5.0 (Windows NT 10.0; Win64; x64) AppleWebKit/537.36 (KHTML, like Gecko) Chrome/124.0.0.0 Safari/537.36","WebKit","Chrome","124.0.0.0","Windows","10.0","https://hz8g1ckzuq.cognition.run/","en-US,en;q=0.9","xshpm584nj8s3y8","28","[""White""]","No","Prefer not to say","1508526.5","20366","","","{""price_1"":""120"",""price_2"":""100"",""price_3"":""110""}","rating","cdt","repulsion_1","1","laptops","null","null","null","null","null","null","2","100","90","100","30","40","25","Processing speed","Memory (RAM)","",""
"","","","","","rating_trial_setup","html-keyboard-response","67","970750","0.0-3.0-0.32","198","1","2025-04-14 14:47:30","bb671e3ae32f654b8954ea4c4635f915","","Mozilla/5.0 (Windows NT 10.0; Win64; x64) AppleWebKit/537.36 (KHTML, like Gecko) Chrome/124.0.0.0 Safari/537.36","WebKit","Chrome","124.0.0.0","Windows","10.0","https://hz8g1ckzuq.cognition.run/","en-US,en;q=0.9","xshpm584nj8s3y8","28","[""White""]","No","Prefer not to say","1508526.5","null","","<p></p>","null","rating","tcd","repulsion_2","2","laptops","null","null","null","null","null","null","2","","","","","","","","","",""
"","","","","","rating_trial","survey-html-form","68","984620","0.0-3.0-1.32","198","1","2025-04-14 14:47:30","bb671e3ae32f654b8954ea4c4635f915","","Mozilla/5.0 (Windows NT 10.0; Win64; x64) AppleWebKit/537.36 (KHTML, like Gecko) Chrome/124.0.0.0 Safari/537.36","WebKit","Chrome","124.0.0.0","Windows","10.0","https://hz8g1ckzuq.cognition.run/","en-US,en;q=0.9","xshpm584nj8s3y8","28","[""White""]","No","Prefer not to say","1508526.5","13865","","","{""price_1"":""130"",""price_2"":""110"",""price_3"":""100""}","rating","tcd","repulsion_2","2","laptops","null","null","null","null","null","null","2","30","40","20","100","90","100","Processing speed","Memory (RAM)","",""
"","","","","","rating_trial_setup","html-keyboard-response","69","984923","0.0-3.0-0.33","198","1","2025-04-14 14:47:30","bb671e3ae32f654b8954ea4c4635f915","","Mozilla/5.0 (Windows NT 10.0; Win64; x64) AppleWebKit/537.36 (KHTML, like Gecko) Chrome/124.0.0.0 Safari/537.36","WebKit","Chrome","124.0.0.0","Windows","10.0","https://hz8g1ckzuq.cognition.run/","en-US,en;q=0.9","xshpm584nj8s3y8","28","[""White""]","No","Prefer not to say","1508526.5","null","","<p></p>","null","rating","wwb","catch","null","televisions","70","70","30","30","20","15","2","","","","","","","","","",""
"","","","","","rating_trial","survey-html-form","70","1003327","0.0-3.0-1.33","198","1","2025-04-14 14:47:30","bb671e3ae32f654b8954ea4c4635f915","","Mozilla/5.0 (Windows NT 10.0; Win64; x64) AppleWebKit/537.36 (KHTML, like Gecko) Chrome/124.0.0.0 Safari/537.36","WebKit","Chrome","124.0.0.0","Windows","10.0","https://hz8g1ckzuq.cognition.run/","en-US,en;q=0.9","xshpm584nj8s3y8","28","[""White""]","No","Prefer not to say","1508526.5","18398","","","{""price_1"":""100"",""price_2"":""80"",""price_3"":""130""}","rating","wwb","catch","null","televisions","70","70","30","30","20","15","2","null","null","null","null","null","null","Screen size","Average lifespan","",""
"","","","","","rating_trial_setup","html-keyboard-response","71","1003634","0.0-3.0-0.34","198","1","2025-04-14 14:47:30","bb671e3ae32f654b8954ea4c4635f915","","Mozilla/5.0 (Windows NT 10.0; Win64; x64) AppleWebKit/537.36 (KHTML, like Gecko) Chrome/124.0.0.0 Safari/537.36","WebKit","Chrome","124.0.0.0","Windows","10.0","https://hz8g1ckzuq.cognition.run/","en-US,en;q=0.9","xshpm584nj8s3y8","28","[""White""]","No","Prefer not to say","1508526.5","null","","<p></p>","null","rating","tdc","attraction_1","2","washing machines","null","null","null","null","null","null","2","","","","","","","","","",""
"","","","","","rating_trial","survey-html-form","72","1038797","0.0-3.0-1.34","198","1","2025-04-14 14:47:30","bb671e3ae32f654b8954ea4c4635f915","","Mozilla/5.0 (Windows NT 10.0; Win64; x64) AppleWebKit/537.36 (KHTML, like Gecko) Chrome/124.0.0.0 Safari/537.36","WebKit","Chrome","124.0.0.0","Windows","10.0","https://hz8g1ckzuq.cognition.run/","en-US,en;q=0.9","xshpm584nj8s3y8","28","[""White""]","No","Prefer not to say","1508526.5","35156","","","{""price_1"":""100"",""price_2"":""95"",""price_3"":""110""}","rating","tdc","attraction_1","2","washing machines","null","null","null","null","null","null","2","50","60","45","60","50","60","Average lifespan","Energy savings","",""
"","","","","","rating_trial_setup","html-keyboard-response","73","1039100","0.0-3.0-0.35","198","1","2025-04-14 14:47:30","bb671e3ae32f654b8954ea4c4635f915","","Mozilla/5.0 (Windows NT 10.0; Win64; x64) AppleWebKit/537.36 (KHTML, like Gecko) Chrome/124.0.0.0 Safari/537.36","WebKit","Chrome","124.0.0.0","Windows","10.0","https://hz8g1ckzuq.cognition.run/","en-US,en;q=0.9","xshpm584nj8s3y8","28","[""White""]","No","Prefer not to say","1508526.5","null","","<p></p>","null","rating","dtc","attraction_2","1","laptops","null","null","null","null","null","null","2","","","","","","","","","",""
"","","","","","rating_trial","survey-html-form","74","1062739","0.0-3.0-1.35","198","1","2025-04-14 14:47:30","bb671e3ae32f654b8954ea4c4635f915","","Mozilla/5.0 (Windows NT 10.0; Win64; x64) AppleWebKit/537.36 (KHTML, like Gecko) Chrome/124.0.0.0 Safari/537.36","WebKit","Chrome","124.0.0.0","Windows","10.0","https://hz8g1ckzuq.cognition.run/","en-US,en;q=0.9","xshpm584nj8s3y8","28","[""White""]","No","Prefer not to say","1508526.5","23631","","","{""price_1"":""100"",""price_2"":""110"",""price_3"":""130""}","rating","dtc","attraction_2","1","laptops","null","null","null","null","null","null","2","60","50","60","50","60","40","Processing speed","Memory (RAM)","",""
"","","","","","rating_trial_setup","html-keyboard-response","75","1063045","0.0-3.0-0.36","198","1","2025-04-14 14:47:30","bb671e3ae32f654b8954ea4c4635f915","","Mozilla/5.0 (Windows NT 10.0; Win64; x64) AppleWebKit/537.36 (KHTML, like Gecko) Chrome/124.0.0.0 Safari/537.36","WebKit","Chrome","124.0.0.0","Windows","10.0","https://hz8g1ckzuq.cognition.run/","en-US,en;q=0.9","xshpm584nj8s3y8","28","[""White""]","No","Prefer not to say","1508526.5","null","","<p></p>","null","rating","cdt","attraction_2","1","microwave ovens","null","null","null","null","null","null","1","","","","","","","","","",""
"","","","","","rating_trial","survey-html-form","76","1080172","0.0-3.0-1.36","198","1","2025-04-14 14:47:30","bb671e3ae32f654b8954ea4c4635f915","","Mozilla/5.0 (Windows NT 10.0; Win64; x64) AppleWebKit/537.36 (KHTML, like Gecko) Chrome/124.0.0.0 Safari/537.36","WebKit","Chrome","124.0.0.0","Windows","10.0","https://hz8g1ckzuq.cognition.run/","en-US,en;q=0.9","xshpm584nj8s3y8","28","[""White""]","No","Prefer not to say","1508526.5","17119","","","{""price_1"":""100"",""price_2"":""110"",""price_3"":""120""}","rating","cdt","attraction_2","1","microwave ovens","null","null","null","null","null","null","1","60","50","60","50","60","40","Warranty","Cooking power","",""
"","","","","","rating_trial_setup","html-keyboard-response","77","1080478","0.0-3.0-0.37","198","1","2025-04-14 14:47:30","bb671e3ae32f654b8954ea4c4635f915","","Mozilla/5.0 (Windows NT 10.0; Win64; x64) AppleWebKit/537.36 (KHTML, like Gecko) Chrome/124.0.0.0 Safari/537.36","WebKit","Chrome","124.0.0.0","Windows","10.0","https://hz8g1ckzuq.cognition.run/","en-US,en;q=0.9","xshpm584nj8s3y8","28","[""White""]","No","Prefer not to say","1508526.5","null","","<p></p>","null","rating","tdc","attraction_1","1","televisions","null","null","null","null","null","null","2","","","","","","","","","",""
"","","","","","rating_trial","survey-html-form","78","1117017","0.0-3.0-1.37","198","1","2025-04-14 14:47:30","bb671e3ae32f654b8954ea4c4635f915","","Mozilla/5.0 (Windows NT 10.0; Win64; x64) AppleWebKit/537.36 (KHTML, like Gecko) Chrome/124.0.0.0 Safari/537.36","WebKit","Chrome","124.0.0.0","Windows","10.0","https://hz8g1ckzuq.cognition.run/","en-US,en;q=0.9","xshpm584nj8s3y8","28","[""White""]","No","Prefer not to say","1508526.5","36533","","","{""price_1"":""100"",""price_2"":""90"",""price_3"":""120""}","rating","tdc","attraction_1","1","televisions","null","null","null","null","null","null","2","60","50","60","50","60","45","Screen size","Average lifespan","",""
"","","","","","rating_trial_setup","html-keyboard-response","79","1117322","0.0-3.0-0.38","198","1","2025-04-14 14:47:30","bb671e3ae32f654b8954ea4c4635f915","","Mozilla/5.0 (Windows NT 10.0; Win64; x64) AppleWebKit/537.36 (KHTML, like Gecko) Chrome/124.0.0.0 Safari/537.36","WebKit","Chrome","124.0.0.0","Windows","10.0","https://hz8g1ckzuq.cognition.run/","en-US,en;q=0.9","xshpm584nj8s3y8","28","[""White""]","No","Prefer not to say","1508526.5","null","","<p></p>","null","rating","ctd","repulsion_1","2","laptops","null","null","null","null","null","null","2","","","","","","","","","",""
"","","","","","rating_trial","survey-html-form","80","1136956","0.0-3.0-1.38","198","1","2025-04-14 14:47:30","bb671e3ae32f654b8954ea4c4635f915","","Mozilla/5.0 (Windows NT 10.0; Win64; x64) AppleWebKit/537.36 (KHTML, like Gecko) Chrome/124.0.0.0 Safari/537.36","WebKit","Chrome","124.0.0.0","Windows","10.0","https://hz8g1ckzuq.cognition.run/","en-US,en;q=0.9","xshpm584nj8s3y8","28","[""White""]","No","Prefer not to say","1508526.5","19627","","","{""price_1"":""100"",""price_2"":""110"",""price_3"":""120""}","rating","ctd","repulsion_1","2","laptops","null","null","null","null","null","null","2","30","40","25","100","90","100","Processing speed","Memory (RAM)","",""
"","","","","","rating_trial_setup","html-keyboard-response","81","1137262","0.0-3.0-0.39","198","1","2025-04-14 14:47:30","bb671e3ae32f654b8954ea4c4635f915","","Mozilla/5.0 (Windows NT 10.0; Win64; x64) AppleWebKit/537.36 (KHTML, like Gecko) Chrome/124.0.0.0 Safari/537.36","WebKit","Chrome","124.0.0.0","Windows","10.0","https://hz8g1ckzuq.cognition.run/","en-US,en;q=0.9","xshpm584nj8s3y8","28","[""White""]","No","Prefer not to say","1508526.5","null","","<p></p>","null","rating","cdt","repulsion_2","1","laptops","null","null","null","null","null","null","1","","","","","","","","","",""
"","","","","","rating_trial","survey-html-form","82","1150682","0.0-3.0-1.39","198","1","2025-04-14 14:47:30","bb671e3ae32f654b8954ea4c4635f915","","Mozilla/5.0 (Windows NT 10.0; Win64; x64) AppleWebKit/537.36 (KHTML, like Gecko) Chrome/124.0.0.0 Safari/537.36","WebKit","Chrome","124.0.0.0","Windows","10.0","https://hz8g1ckzuq.cognition.run/","en-US,en;q=0.9","xshpm584nj8s3y8","28","[""White""]","No","Prefer not to say","1508526.5","13413","","","{""price_1"":""120"",""price_2"":""100"",""price_3"":""110""}","rating","cdt","repulsion_2","1","laptops","null","null","null","null","null","null","1","100","90","100","30","40","20","Processing speed","Memory (RAM)","",""
"","","","","","","instructions","83","1200282","0.0-4.0","198","1","2025-04-14 14:47:30","bb671e3ae32f654b8954ea4c4635f915","","Mozilla/5.0 (Windows NT 10.0; Win64; x64) AppleWebKit/537.36 (KHTML, like Gecko) Chrome/124.0.0.0 Safari/537.36","WebKit","Chrome","124.0.0.0","Windows","10.0","https://hz8g1ckzuq.cognition.run/","en-US,en;q=0.9","xshpm584nj8s3y8","28","[""White""]","No","Prefer not to say","1508526.5","49595","[{""page_index"":0,""viewing_time"":4289},{""page_index"":1,""viewing_time"":2024},{""page_index"":2,""viewing_time"":5707},{""page_index"":3,""viewing_time"":4792},{""page_index"":4,""viewing_time"":7203},{""page_index"":5,""viewing_time"":2049},{""page_index"":6,""viewing_time"":13758},{""page_index"":7,""viewing_time"":9774}]","","","","","","","","","","","","","","","","","","","","","","","",""
"","","","","","choice_trial_setup","html-keyboard-response","84","1200587","0.0-5.0-0.0","198","1","2025-04-14 14:47:30","bb671e3ae32f654b8954ea4c4635f915","","Mozilla/5.0 (Windows NT 10.0; Win64; x64) AppleWebKit/537.36 (KHTML, like Gecko) Chrome/124.0.0.0 Safari/537.36","WebKit","Chrome","124.0.0.0","Windows","10.0","https://hz8g1ckzuq.cognition.run/","en-US,en;q=0.9","xshpm584nj8s3y8","28","[""White""]","No","Prefer not to say","1508526.5","null","","<p></p>","null","choice","wbw","catch","null","microwave ovens","50","85","15","45","35","30","1","","","","","","","","","",""
"","","","","","choice_trial","survey-html-form","85","1212176","0.0-5.0-1.0","198","1","2025-04-14 14:47:30","bb671e3ae32f654b8954ea4c4635f915","","Mozilla/5.0 (Windows NT 10.0; Win64; x64) AppleWebKit/537.36 (KHTML, like Gecko) Chrome/124.0.0.0 Safari/537.36","WebKit","Chrome","124.0.0.0","Windows","10.0","https://hz8g1ckzuq.cognition.run/","en-US,en;q=0.9","xshpm584nj8s3y8","28","[""White""]","No","Prefer not to say","1508526.5","11577","","","{""product_choice"":""B""}","choice","wbw","catch","null","microwave ovens","50","85","15","45","35","30","1","null","null","null","null","null","null","Warranty","Cooking power","",""
"","","","","","choice_trial_setup","html-keyboard-response","86","1212482","0.0-5.0-0.1","198","1","2025-04-14 14:47:30","bb671e3ae32f654b8954ea4c4635f915","","Mozilla/5.0 (Windows NT 10.0; Win64; x64) AppleWebKit/537.36 (KHTML, like Gecko) Chrome/124.0.0.0 Safari/537.36","WebKit","Chrome","124.0.0.0","Windows","10.0","https://hz8g1ckzuq.cognition.run/","en-US,en;q=0.9","xshpm584nj8s3y8","28","[""White""]","No","Prefer not to say","1508526.5","null","","<p></p>","null","choice","dtc","attraction_1","1","laptops","null","null","null","null","null","null","1","","","","","","","","","",""
"","","","","","choice_trial","survey-html-form","87","1222432","0.0-5.0-1.1","198","1","2025-04-14 14:47:30","bb671e3ae32f654b8954ea4c4635f915","","Mozilla/5.0 (Windows NT 10.0; Win64; x64) AppleWebKit/537.36 (KHTML, like Gecko) Chrome/124.0.0.0 Safari/537.36","WebKit","Chrome","124.0.0.0","Windows","10.0","https://hz8g1ckzuq.cognition.run/","en-US,en;q=0.9","xshpm584nj8s3y8","28","[""White""]","No","Prefer not to say","1508526.5","9944","","","{""product_choice"":""C""}","choice","dtc","attraction_1","1","laptops","null","null","null","null","null","null","1","60","50","60","50","60","45","Processing speed","Memory (RAM)","",""
"","","","","","choice_trial_setup","html-keyboard-response","88","1222739","0.0-5.0-0.2","198","1","2025-04-14 14:47:30","bb671e3ae32f654b8954ea4c4635f915","","Mozilla/5.0 (Windows NT 10.0; Win64; x64) AppleWebKit/537.36 (KHTML, like Gecko) Chrome/124.0.0.0 Safari/537.36","WebKit","Chrome","124.0.0.0","Windows","10.0","https://hz8g1ckzuq.cognition.run/","en-US,en;q=0.9","xshpm584nj8s3y8","28","[""White""]","No","Prefer not to say","1508526.5","null","","<p></p>","null","choice","tcd","attraction_2","1","televisions","null","null","null","null","null","null","1","","","","","","","","","",""
"","","","","","choice_trial","survey-html-form","89","1231756","0.0-5.0-1.2","198","1","2025-04-14 14:47:30","bb671e3ae32f654b8954ea4c4635f915","","Mozilla/5.0 (Windows NT 10.0; Win64; x64) AppleWebKit/537.36 (KHTML, like Gecko) Chrome/124.0.0.0 Safari/537.36","WebKit","Chrome","124.0.0.0","Windows","10.0","https://hz8g1ckzuq.cognition.run/","en-US,en;q=0.9","xshpm584nj8s3y8","28","[""White""]","No","Prefer not to say","1508526.5","9010","","","{""product_choice"":""A""}","choice","tcd","attraction_2","1","televisions","null","null","null","null","null","null","1","60","50","60","50","60","40","Screen size","Average lifespan","",""
"","","","","","choice_trial_setup","html-keyboard-response","90","1232061","0.0-5.0-0.3","198","1","2025-04-14 14:47:30","bb671e3ae32f654b8954ea4c4635f915","","Mozilla/5.0 (Windows NT 10.0; Win64; x64) AppleWebKit/537.36 (KHTML, like Gecko) Chrome/124.0.0.0 Safari/537.36","WebKit","Chrome","124.0.0.0","Windows","10.0","https://hz8g1ckzuq.cognition.run/","en-US,en;q=0.9","xshpm584nj8s3y8","28","[""White""]","No","Prefer not to say","1508526.5","null","","<p></p>","null","choice","dct","attraction_2","2","microwave ovens","null","null","null","null","null","null","1","","","","","","","","","",""
"","","","","","choice_trial","survey-html-form","91","1237367","0.0-5.0-1.3","198","1","2025-04-14 14:47:30","bb671e3ae32f654b8954ea4c4635f915","","Mozilla/5.0 (Windows NT 10.0; Win64; x64) AppleWebKit/537.36 (KHTML, like Gecko) Chrome/124.0.0.0 Safari/537.36","WebKit","Chrome","124.0.0.0","Windows","10.0","https://hz8g1ckzuq.cognition.run/","en-US,en;q=0.9","xshpm584nj8s3y8","28","[""White""]","No","Prefer not to say","1508526.5","5299","","","{""product_choice"":""B""}","choice","dct","attraction_2","2","microwave ovens","null","null","null","null","null","null","1","50","60","40","60","50","60","Warranty","Cooking power","",""
"","","","","","choice_trial_setup","html-keyboard-response","92","1237671","0.0-5.0-0.4","198","1","2025-04-14 14:47:30","bb671e3ae32f654b8954ea4c4635f915","","Mozilla/5.0 (Windows NT 10.0; Win64; x64) AppleWebKit/537.36 (KHTML, like Gecko) Chrome/124.0.0.0 Safari/537.36","WebKit","Chrome","124.0.0.0","Windows","10.0","https://hz8g1ckzuq.cognition.run/","en-US,en;q=0.9","xshpm584nj8s3y8","28","[""White""]","No","Prefer not to say","1508526.5","null","","<p></p>","null","choice","cdt","attraction_1","1","washing machines","null","null","null","null","null","null","1","","","","","","","","","",""
"","","","","","choice_trial","survey-html-form","93","1247841","0.0-5.0-1.4","198","1","2025-04-14 14:47:30","bb671e3ae32f654b8954ea4c4635f915","","Mozilla/5.0 (Windows NT 10.0; Win64; x64) AppleWebKit/537.36 (KHTML, like Gecko) Chrome/124.0.0.0 Safari/537.36","WebKit","Chrome","124.0.0.0","Windows","10.0","https://hz8g1ckzuq.cognition.run/","en-US,en;q=0.9","xshpm584nj8s3y8","28","[""White""]","No","Prefer not to say","1508526.5","10162","","","{""product_choice"":""C""}","choice","cdt","attraction_1","1","washing machines","null","null","null","null","null","null","1","60","50","60","50","60","45","Average lifespan","Energy savings","",""
"","","","","","choice_trial_setup","html-keyboard-response","94","1248147","0.0-5.0-0.5","198","1","2025-04-14 14:47:30","bb671e3ae32f654b8954ea4c4635f915","","Mozilla/5.0 (Windows NT 10.0; Win64; x64) AppleWebKit/537.36 (KHTML, like Gecko) Chrome/124.0.0.0 Safari/537.36","WebKit","Chrome","124.0.0.0","Windows","10.0","https://hz8g1ckzuq.cognition.run/","en-US,en;q=0.9","xshpm584nj8s3y8","28","[""White""]","No","Prefer not to say","1508526.5","null","","<p></p>","null","choice","tdc","attraction_2","1","laptops","null","null","null","null","null","null","1","","","","","","","","","",""
"","","","","","choice_trial","survey-html-form","95","1255620","0.0-5.0-1.5","198","1","2025-04-14 14:47:30","bb671e3ae32f654b8954ea4c4635f915","","Mozilla/5.0 (Windows NT 10.0; Win64; x64) AppleWebKit/537.36 (KHTML, like Gecko) Chrome/124.0.0.0 Safari/537.36","WebKit","Chrome","124.0.0.0","Windows","10.0","https://hz8g1ckzuq.cognition.run/","en-US,en;q=0.9","xshpm584nj8s3y8","28","[""White""]","No","Prefer not to say","1508526.5","7468","","","{""product_choice"":""A""}","choice","tdc","attraction_2","1","laptops","null","null","null","null","null","null","1","60","50","60","50","60","40","Processing speed","Memory (RAM)","",""
"","","","","","choice_trial_setup","html-keyboard-response","96","1255927","0.0-5.0-0.6","198","1","2025-04-14 14:47:30","bb671e3ae32f654b8954ea4c4635f915","","Mozilla/5.0 (Windows NT 10.0; Win64; x64) AppleWebKit/537.36 (KHTML, like Gecko) Chrome/124.0.0.0 Safari/537.36","WebKit","Chrome","124.0.0.0","Windows","10.0","https://hz8g1ckzuq.cognition.run/","en-US,en;q=0.9","xshpm584nj8s3y8","28","[""White""]","No","Prefer not to say","1508526.5","null","","<p></p>","null","choice","bww","catch","null","televisions","80","50","25","40","10","5","1","","","","","","","","","",""
"","","","","","choice_trial","survey-html-form","97","1261279","0.0-5.0-1.6","198","1","2025-04-14 14:47:30","bb671e3ae32f654b8954ea4c4635f915","","Mozilla/5.0 (Windows NT 10.0; Win64; x64) AppleWebKit/537.36 (KHTML, like Gecko) Chrome/124.0.0.0 Safari/537.36","WebKit","Chrome","124.0.0.0","Windows","10.0","https://hz8g1ckzuq.cognition.run/","en-US,en;q=0.9","xshpm584nj8s3y8","28","[""White""]","No","Prefer not to say","1508526.5","5342","","","{""product_choice"":""A""}","choice","bww","catch","null","televisions","80","50","25","40","10","5","1","null","null","null","null","null","null","Screen size","Average lifespan","",""
"","","","","","choice_trial_setup","html-keyboard-response","98","1261588","0.0-5.0-0.7","198","1","2025-04-14 14:47:30","bb671e3ae32f654b8954ea4c4635f915","","Mozilla/5.0 (Windows NT 10.0; Win64; x64) AppleWebKit/537.36 (KHTML, like Gecko) Chrome/124.0.0.0 Safari/537.36","WebKit","Chrome","124.0.0.0","Windows","10.0","https://hz8g1ckzuq.cognition.run/","en-US,en;q=0.9","xshpm584nj8s3y8","28","[""White""]","No","Prefer not to say","1508526.5","null","","<p></p>","null","choice","dtc","repulsion_2","1","washing machines","null","null","null","null","null","null","2","","","","","","","","","",""
"","","","","","choice_trial","survey-html-form","99","1269554","0.0-5.0-1.7","198","1","2025-04-14 14:47:30","bb671e3ae32f654b8954ea4c4635f915","","Mozilla/5.0 (Windows NT 10.0; Win64; x64) AppleWebKit/537.36 (KHTML, like Gecko) Chrome/124.0.0.0 Safari/537.36","WebKit","Chrome","124.0.0.0","Windows","10.0","https://hz8g1ckzuq.cognition.run/","en-US,en;q=0.9","xshpm584nj8s3y8","28","[""White""]","No","Prefer not to say","1508526.5","7959","","","{""product_choice"":""C""}","choice","dtc","repulsion_2","1","washing machines","null","null","null","null","null","null","2","100","90","100","30","40","20","Average lifespan","Energy savings","",""
"","","","","","choice_trial_setup","html-keyboard-response","100","1269860","0.0-5.0-0.8","198","1","2025-04-14 14:47:30","bb671e3ae32f654b8954ea4c4635f915","","Mozilla/5.0 (Windows NT 10.0; Win64; x64) AppleWebKit/537.36 (KHTML, like Gecko) Chrome/124.0.0.0 Safari/537.36","WebKit","Chrome","124.0.0.0","Windows","10.0","https://hz8g1ckzuq.cognition.run/","en-US,en;q=0.9","xshpm584nj8s3y8","28","[""White""]","No","Prefer not to say","1508526.5","null","","<p></p>","null","choice","wwb","catch","null","washing machines","55","75","30","30","5","5","1","","","","","","","","","",""
"","","","","","choice_trial","survey-html-form","101","1274318","0.0-5.0-1.8","198","1","2025-04-14 14:47:30","bb671e3ae32f654b8954ea4c4635f915","","Mozilla/5.0 (Windows NT 10.0; Win64; x64) AppleWebKit/537.36 (KHTML, like Gecko) Chrome/124.0.0.0 Safari/537.36","WebKit","Chrome","124.0.0.0","Windows","10.0","https://hz8g1ckzuq.cognition.run/","en-US,en;q=0.9","xshpm584nj8s3y8","28","[""White""]","No","Prefer not to say","1508526.5","4448","","","{""product_choice"":""C""}","choice","wwb","catch","null","washing machines","55","75","30","30","5","5","1","null","null","null","null","null","null","Average lifespan","Energy savings","",""
"","","","","","choice_trial_setup","html-keyboard-response","102","1274626","0.0-5.0-0.9","198","1","2025-04-14 14:47:30","bb671e3ae32f654b8954ea4c4635f915","","Mozilla/5.0 (Windows NT 10.0; Win64; x64) AppleWebKit/537.36 (KHTML, like Gecko) Chrome/124.0.0.0 Safari/537.36","WebKit","Chrome","124.0.0.0","Windows","10.0","https://hz8g1ckzuq.cognition.run/","en-US,en;q=0.9","xshpm584nj8s3y8","28","[""White""]","No","Prefer not to say","1508526.5","null","","<p></p>","null","choice","cdt","attraction_2","1","washing machines","null","null","null","null","null","null","1","","","","","","","","","",""
"","","","","","choice_trial","survey-html-form","103","1278938","0.0-5.0-1.9","198","1","2025-04-14 14:47:30","bb671e3ae32f654b8954ea4c4635f915","","Mozilla/5.0 (Windows NT 10.0; Win64; x64) AppleWebKit/537.36 (KHTML, like Gecko) Chrome/124.0.0.0 Safari/537.36","WebKit","Chrome","124.0.0.0","Windows","10.0","https://hz8g1ckzuq.cognition.run/","en-US,en;q=0.9","xshpm584nj8s3y8","28","[""White""]","No","Prefer not to say","1508526.5","4305","","","{""product_choice"":""A""}","choice","cdt","attraction_2","1","washing machines","null","null","null","null","null","null","1","60","50","60","50","60","40","Average lifespan","Energy savings","",""
"","","","","","choice_trial_setup","html-keyboard-response","104","1279246","0.0-5.0-0.10","198","1","2025-04-14 14:47:30","bb671e3ae32f654b8954ea4c4635f915","","Mozilla/5.0 (Windows NT 10.0; Win64; x64) AppleWebKit/537.36 (KHTML, like Gecko) Chrome/124.0.0.0 Safari/537.36","WebKit","Chrome","124.0.0.0","Windows","10.0","https://hz8g1ckzuq.cognition.run/","en-US,en;q=0.9","xshpm584nj8s3y8","28","[""White""]","No","Prefer not to say","1508526.5","null","","<p></p>","null","choice","cdt","repulsion_1","2","televisions","null","null","null","null","null","null","1","","","","","","","","","",""
"","","","","","choice_trial","survey-html-form","105","1282597","0.0-5.0-1.10","198","1","2025-04-14 14:47:30","bb671e3ae32f654b8954ea4c4635f915","","Mozilla/5.0 (Windows NT 10.0; Win64; x64) AppleWebKit/537.36 (KHTML, like Gecko) Chrome/124.0.0.0 Safari/537.36","WebKit","Chrome","124.0.0.0","Windows","10.0","https://hz8g1ckzuq.cognition.run/","en-US,en;q=0.9","xshpm584nj8s3y8","28","[""White""]","No","Prefer not to say","1508526.5","3344","","","{""product_choice"":""A""}","choice","cdt","repulsion_1","2","televisions","null","null","null","null","null","null","1","30","40","25","100","90","100","Screen size","Average lifespan","",""
"","","","","","choice_trial_setup","html-keyboard-response","106","1282904","0.0-5.0-0.11","198","1","2025-04-14 14:47:30","bb671e3ae32f654b8954ea4c4635f915","","Mozilla/5.0 (Windows NT 10.0; Win64; x64) AppleWebKit/537.36 (KHTML, like Gecko) Chrome/124.0.0.0 Safari/537.36","WebKit","Chrome","124.0.0.0","Windows","10.0","https://hz8g1ckzuq.cognition.run/","en-US,en;q=0.9","xshpm584nj8s3y8","28","[""White""]","No","Prefer not to say","1508526.5","null","","<p></p>","null","choice","dtc","attraction_2","2","laptops","null","null","null","null","null","null","1","","","","","","","","","",""
"","","","","","choice_trial","survey-html-form","107","1288293","0.0-5.0-1.11","198","1","2025-04-14 14:47:30","bb671e3ae32f654b8954ea4c4635f915","","Mozilla/5.0 (Windows NT 10.0; Win64; x64) AppleWebKit/537.36 (KHTML, like Gecko) Chrome/124.0.0.0 Safari/537.36","WebKit","Chrome","124.0.0.0","Windows","10.0","https://hz8g1ckzuq.cognition.run/","en-US,en;q=0.9","xshpm584nj8s3y8","28","[""White""]","No","Prefer not to say","1508526.5","5382","","","{""product_choice"":""C""}","choice","dtc","attraction_2","2","laptops","null","null","null","null","null","null","1","50","60","40","60","50","60","Processing speed","Memory (RAM)","",""
"","","","","","choice_trial_setup","html-keyboard-response","108","1288599","0.0-5.0-0.12","198","1","2025-04-14 14:47:30","bb671e3ae32f654b8954ea4c4635f915","","Mozilla/5.0 (Windows NT 10.0; Win64; x64) AppleWebKit/537.36 (KHTML, like Gecko) Chrome/124.0.0.0 Safari/537.36","WebKit","Chrome","124.0.0.0","Windows","10.0","https://hz8g1ckzuq.cognition.run/","en-US,en;q=0.9","xshpm584nj8s3y8","28","[""White""]","No","Prefer not to say","1508526.5","null","","<p></p>","null","choice","dtc","repulsion_1","1","laptops","null","null","null","null","null","null","2","","","","","","","","","",""
"","","","","","choice_trial","survey-html-form","109","1296082","0.0-5.0-1.12","198","1","2025-04-14 14:47:30","bb671e3ae32f654b8954ea4c4635f915","","Mozilla/5.0 (Windows NT 10.0; Win64; x64) AppleWebKit/537.36 (KHTML, like Gecko) Chrome/124.0.0.0 Safari/537.36","WebKit","Chrome","124.0.0.0","Windows","10.0","https://hz8g1ckzuq.cognition.run/","en-US,en;q=0.9","xshpm584nj8s3y8","28","[""White""]","No","Prefer not to say","1508526.5","7475","","","{""product_choice"":""C""}","choice","dtc","repulsion_1","1","laptops","null","null","null","null","null","null","2","100","90","100","30","40","25","Processing speed","Memory (RAM)","",""
"","","","","","choice_trial_setup","html-keyboard-response","110","1296387","0.0-5.0-0.13","198","1","2025-04-14 14:47:30","bb671e3ae32f654b8954ea4c4635f915","","Mozilla/5.0 (Windows NT 10.0; Win64; x64) AppleWebKit/537.36 (KHTML, like Gecko) Chrome/124.0.0.0 Safari/537.36","WebKit","Chrome","124.0.0.0","Windows","10.0","https://hz8g1ckzuq.cognition.run/","en-US,en;q=0.9","xshpm584nj8s3y8","28","[""White""]","No","Prefer not to say","1508526.5","null","","<p></p>","null","choice","dct","attraction_1","1","microwave ovens","null","null","null","null","null","null","1","","","","","","","","","",""
"","","","","","choice_trial","survey-html-form","111","1301127","0.0-5.0-1.13","198","1","2025-04-14 14:47:30","bb671e3ae32f654b8954ea4c4635f915","","Mozilla/5.0 (Windows NT 10.0; Win64; x64) AppleWebKit/537.36 (KHTML, like Gecko) Chrome/124.0.0.0 Safari/537.36","WebKit","Chrome","124.0.0.0","Windows","10.0","https://hz8g1ckzuq.cognition.run/","en-US,en;q=0.9","xshpm584nj8s3y8","28","[""White""]","No","Prefer not to say","1508526.5","4732","","","{""product_choice"":""C""}","choice","dct","attraction_1","1","microwave ovens","null","null","null","null","null","null","1","60","50","60","50","60","45","Warranty","Cooking power","",""
"","","","","","choice_trial_setup","html-keyboard-response","112","1301434","0.0-5.0-0.14","198","1","2025-04-14 14:47:30","bb671e3ae32f654b8954ea4c4635f915","","Mozilla/5.0 (Windows NT 10.0; Win64; x64) AppleWebKit/537.36 (KHTML, like Gecko) Chrome/124.0.0.0 Safari/537.36","WebKit","Chrome","124.0.0.0","Windows","10.0","https://hz8g1ckzuq.cognition.run/","en-US,en;q=0.9","xshpm584nj8s3y8","28","[""White""]","No","Prefer not to say","1508526.5","null","","<p></p>","null","choice","tdc","repulsion_2","2","televisions","null","null","null","null","null","null","2","","","","","","","","","",""
"","","","","","choice_trial","survey-html-form","113","1307142","0.0-5.0-1.14","198","1","2025-04-14 14:47:30","bb671e3ae32f654b8954ea4c4635f915","","Mozilla/5.0 (Windows NT 10.0; Win64; x64) AppleWebKit/537.36 (KHTML, like Gecko) Chrome/124.0.0.0 Safari/537.36","WebKit","Chrome","124.0.0.0","Windows","10.0","https://hz8g1ckzuq.cognition.run/","en-US,en;q=0.9","xshpm584nj8s3y8","28","[""White""]","No","Prefer not to say","1508526.5","5701","","","{""product_choice"":""C""}","choice","tdc","repulsion_2","2","televisions","null","null","null","null","null","null","2","30","40","20","100","90","100","Screen size","Average lifespan","",""
"","","","","","choice_trial_setup","html-keyboard-response","114","1307450","0.0-5.0-0.15","198","1","2025-04-14 14:47:30","bb671e3ae32f654b8954ea4c4635f915","","Mozilla/5.0 (Windows NT 10.0; Win64; x64) AppleWebKit/537.36 (KHTML, like Gecko) Chrome/124.0.0.0 Safari/537.36","WebKit","Chrome","124.0.0.0","Windows","10.0","https://hz8g1ckzuq.cognition.run/","en-US,en;q=0.9","xshpm584nj8s3y8","28","[""White""]","No","Prefer not to say","1508526.5","null","","<p></p>","null","choice","cdt","repulsion_2","2","washing machines","null","null","null","null","null","null","2","","","","","","","","","",""
"","","","","","choice_trial","survey-html-form","115","1313619","0.0-5.0-1.15","198","1","2025-04-14 14:47:30","bb671e3ae32f654b8954ea4c4635f915","","Mozilla/5.0 (Windows NT 10.0; Win64; x64) AppleWebKit/537.36 (KHTML, like Gecko) Chrome/124.0.0.0 Safari/537.36","WebKit","Chrome","124.0.0.0","Windows","10.0","https://hz8g1ckzuq.cognition.run/","en-US,en;q=0.9","xshpm584nj8s3y8","28","[""White""]","No","Prefer not to say","1508526.5","6162","","","{""product_choice"":""A""}","choice","cdt","repulsion_2","2","washing machines","null","null","null","null","null","null","2","30","40","20","100","90","100","Average lifespan","Energy savings","",""
"","","","","","choice_trial_setup","html-keyboard-response","116","1313927","0.0-5.0-0.16","198","1","2025-04-14 14:47:30","bb671e3ae32f654b8954ea4c4635f915","","Mozilla/5.0 (Windows NT 10.0; Win64; x64) AppleWebKit/537.36 (KHTML, like Gecko) Chrome/124.0.0.0 Safari/537.36","WebKit","Chrome","124.0.0.0","Windows","10.0","https://hz8g1ckzuq.cognition.run/","en-US,en;q=0.9","xshpm584nj8s3y8","28","[""White""]","No","Prefer not to say","1508526.5","null","","<p></p>","null","choice","tcd","attraction_1","2","microwave ovens","null","null","null","null","null","null","2","","","","","","","","","",""
"","","","","","choice_trial","survey-html-form","117","1322314","0.0-5.0-1.16","198","1","2025-04-14 14:47:30","bb671e3ae32f654b8954ea4c4635f915","","Mozilla/5.0 (Windows NT 10.0; Win64; x64) AppleWebKit/537.36 (KHTML, like Gecko) Chrome/124.0.0.0 Safari/537.36","WebKit","Chrome","124.0.0.0","Windows","10.0","https://hz8g1ckzuq.cognition.run/","en-US,en;q=0.9","xshpm584nj8s3y8","28","[""White""]","No","Prefer not to say","1508526.5","8379","","","{""product_choice"":""A""}","choice","tcd","attraction_1","2","microwave ovens","null","null","null","null","null","null","2","50","60","45","60","50","60","Warranty","Cooking power","",""
"","","","","","choice_trial_setup","html-keyboard-response","118","1322618","0.0-5.0-0.17","198","1","2025-04-14 14:47:30","bb671e3ae32f654b8954ea4c4635f915","","Mozilla/5.0 (Windows NT 10.0; Win64; x64) AppleWebKit/537.36 (KHTML, like Gecko) Chrome/124.0.0.0 Safari/537.36","WebKit","Chrome","124.0.0.0","Windows","10.0","https://hz8g1ckzuq.cognition.run/","en-US,en;q=0.9","xshpm584nj8s3y8","28","[""White""]","No","Prefer not to say","1508526.5","null","","<p></p>","null","choice","cdt","attraction_1","2","televisions","null","null","null","null","null","null","1","","","","","","","","","",""
"","","","","","choice_trial","survey-html-form","119","1329811","0.0-5.0-1.17","198","1","2025-04-14 14:47:30","bb671e3ae32f654b8954ea4c4635f915","","Mozilla/5.0 (Windows NT 10.0; Win64; x64) AppleWebKit/537.36 (KHTML, like Gecko) Chrome/124.0.0.0 Safari/537.36","WebKit","Chrome","124.0.0.0","Windows","10.0","https://hz8g1ckzuq.cognition.run/","en-US,en;q=0.9","xshpm584nj8s3y8","28","[""White""]","No","Prefer not to say","1508526.5","7185","","","{""product_choice"":""A""}","choice","cdt","attraction_1","2","televisions","null","null","null","null","null","null","1","50","60","45","60","50","60","Screen size","Average lifespan","",""
"","","","","","choice_trial_setup","html-keyboard-response","120","1330120","0.0-5.0-0.18","198","1","2025-04-14 14:47:30","bb671e3ae32f654b8954ea4c4635f915","","Mozilla/5.0 (Windows NT 10.0; Win64; x64) AppleWebKit/537.36 (KHTML, like Gecko) Chrome/124.0.0.0 Safari/537.36","WebKit","Chrome","124.0.0.0","Windows","10.0","https://hz8g1ckzuq.cognition.run/","en-US,en;q=0.9","xshpm584nj8s3y8","28","[""White""]","No","Prefer not to say","1508526.5","null","","<p></p>","null","choice","wwb","catch","null","laptops","55","90","10","5","45","45","1","","","","","","","","","",""
"","","","","","choice_trial","survey-html-form","121","1335769","0.0-5.0-1.18","198","1","2025-04-14 14:47:30","bb671e3ae32f654b8954ea4c4635f915","","Mozilla/5.0 (Windows NT 10.0; Win64; x64) AppleWebKit/537.36 (KHTML, like Gecko) Chrome/124.0.0.0 Safari/537.36","WebKit","Chrome","124.0.0.0","Windows","10.0","https://hz8g1ckzuq.cognition.run/","en-US,en;q=0.9","xshpm584nj8s3y8","28","[""White""]","No","Prefer not to say","1508526.5","5641","","","{""product_choice"":""C""}","choice","wwb","catch","null","laptops","55","90","10","5","45","45","1","null","null","null","null","null","null","Processing speed","Memory (RAM)","",""
"","","","","","choice_trial_setup","html-keyboard-response","122","1336075","0.0-5.0-0.19","198","1","2025-04-14 14:47:30","bb671e3ae32f654b8954ea4c4635f915","","Mozilla/5.0 (Windows NT 10.0; Win64; x64) AppleWebKit/537.36 (KHTML, like Gecko) Chrome/124.0.0.0 Safari/537.36","WebKit","Chrome","124.0.0.0","Windows","10.0","https://hz8g1ckzuq.cognition.run/","en-US,en;q=0.9","xshpm584nj8s3y8","28","[""White""]","No","Prefer not to say","1508526.5","null","","<p></p>","null","choice","tdc","attraction_1","2","laptops","null","null","null","null","null","null","2","","","","","","","","","",""
"","","","","","choice_trial","survey-html-form","123","1340970","0.0-5.0-1.19","198","1","2025-04-14 14:47:30","bb671e3ae32f654b8954ea4c4635f915","","Mozilla/5.0 (Windows NT 10.0; Win64; x64) AppleWebKit/537.36 (KHTML, like Gecko) Chrome/124.0.0.0 Safari/537.36","WebKit","Chrome","124.0.0.0","Windows","10.0","https://hz8g1ckzuq.cognition.run/","en-US,en;q=0.9","xshpm584nj8s3y8","28","[""White""]","No","Prefer not to say","1508526.5","4889","","","{""product_choice"":""C""}","choice","tdc","attraction_1","2","laptops","null","null","null","null","null","null","2","50","60","45","60","50","60","Processing speed","Memory (RAM)","",""
"","","","","","choice_trial_setup","html-keyboard-response","124","1341276","0.0-5.0-0.20","198","1","2025-04-14 14:47:30","bb671e3ae32f654b8954ea4c4635f915","","Mozilla/5.0 (Windows NT 10.0; Win64; x64) AppleWebKit/537.36 (KHTML, like Gecko) Chrome/124.0.0.0 Safari/537.36","WebKit","Chrome","124.0.0.0","Windows","10.0","https://hz8g1ckzuq.cognition.run/","en-US,en;q=0.9","xshpm584nj8s3y8","28","[""White""]","No","Prefer not to say","1508526.5","null","","<p></p>","null","choice","ctd","repulsion_2","1","microwave ovens","null","null","null","null","null","null","1","","","","","","","","","",""
"","","","","","choice_trial","survey-html-form","125","1345240","0.0-5.0-1.20","198","1","2025-04-14 14:47:30","bb671e3ae32f654b8954ea4c4635f915","","Mozilla/5.0 (Windows NT 10.0; Win64; x64) AppleWebKit/537.36 (KHTML, like Gecko) Chrome/124.0.0.0 Safari/537.36","WebKit","Chrome","124.0.0.0","Windows","10.0","https://hz8g1ckzuq.cognition.run/","en-US,en;q=0.9","xshpm584nj8s3y8","28","[""White""]","No","Prefer not to say","1508526.5","3956","","","{""product_choice"":""A""}","choice","ctd","repulsion_2","1","microwave ovens","null","null","null","null","null","null","1","100","90","100","30","40","20","Warranty","Cooking power","",""
"","","","","","choice_trial_setup","html-keyboard-response","126","1345548","0.0-5.0-0.21","198","1","2025-04-14 14:47:30","bb671e3ae32f654b8954ea4c4635f915","","Mozilla/5.0 (Windows NT 10.0; Win64; x64) AppleWebKit/537.36 (KHTML, like Gecko) Chrome/124.0.0.0 Safari/537.36","WebKit","Chrome","124.0.0.0","Windows","10.0","https://hz8g1ckzuq.cognition.run/","en-US,en;q=0.9","xshpm584nj8s3y8","28","[""White""]","No","Prefer not to say","1508526.5","null","","<p></p>","null","choice","cdt","repulsion_2","2","laptops","null","null","null","null","null","null","2","","","","","","","","","",""
"","","","","","choice_trial","survey-html-form","127","1350822","0.0-5.0-1.21","198","1","2025-04-14 14:47:30","bb671e3ae32f654b8954ea4c4635f915","","Mozilla/5.0 (Windows NT 10.0; Win64; x64) AppleWebKit/537.36 (KHTML, like Gecko) Chrome/124.0.0.0 Safari/537.36","WebKit","Chrome","124.0.0.0","Windows","10.0","https://hz8g1ckzuq.cognition.run/","en-US,en;q=0.9","xshpm584nj8s3y8","28","[""White""]","No","Prefer not to say","1508526.5","5264","","","{""product_choice"":""A""}","choice","cdt","repulsion_2","2","laptops","null","null","null","null","null","null","2","30","40","20","100","90","100","Processing speed","Memory (RAM)","",""
"","","","","","choice_trial_setup","html-keyboard-response","128","1351131","0.0-5.0-0.22","198","1","2025-04-14 14:47:30","bb671e3ae32f654b8954ea4c4635f915","","Mozilla/5.0 (Windows NT 10.0; Win64; x64) AppleWebKit/537.36 (KHTML, like Gecko) Chrome/124.0.0.0 Safari/537.36","WebKit","Chrome","124.0.0.0","Windows","10.0","https://hz8g1ckzuq.cognition.run/","en-US,en;q=0.9","xshpm584nj8s3y8","28","[""White""]","No","Prefer not to say","1508526.5","null","","<p></p>","null","choice","cdt","attraction_2","1","microwave ovens","null","null","null","null","null","null","1","","","","","","","","","",""
"","","","","","choice_trial","survey-html-form","129","1355851","0.0-5.0-1.22","198","1","2025-04-14 14:47:30","bb671e3ae32f654b8954ea4c4635f915","","Mozilla/5.0 (Windows NT 10.0; Win64; x64) AppleWebKit/537.36 (KHTML, like Gecko) Chrome/124.0.0.0 Safari/537.36","WebKit","Chrome","124.0.0.0","Windows","10.0","https://hz8g1ckzuq.cognition.run/","en-US,en;q=0.9","xshpm584nj8s3y8","28","[""White""]","No","Prefer not to say","1508526.5","4712","","","{""product_choice"":""C""}","choice","cdt","attraction_2","1","microwave ovens","null","null","null","null","null","null","1","60","50","60","50","60","40","Warranty","Cooking power","",""
"","","","","","choice_trial_setup","html-keyboard-response","130","1356159","0.0-5.0-0.23","198","1","2025-04-14 14:47:30","bb671e3ae32f654b8954ea4c4635f915","","Mozilla/5.0 (Windows NT 10.0; Win64; x64) AppleWebKit/537.36 (KHTML, like Gecko) Chrome/124.0.0.0 Safari/537.36","WebKit","Chrome","124.0.0.0","Windows","10.0","https://hz8g1ckzuq.cognition.run/","en-US,en;q=0.9","xshpm584nj8s3y8","28","[""White""]","No","Prefer not to say","1508526.5","null","","<p></p>","null","choice","tdc","attraction_1","1","televisions","null","null","null","null","null","null","2","","","","","","","","","",""
"","","","","","choice_trial","survey-html-form","131","1360395","0.0-5.0-1.23","198","1","2025-04-14 14:47:30","bb671e3ae32f654b8954ea4c4635f915","","Mozilla/5.0 (Windows NT 10.0; Win64; x64) AppleWebKit/537.36 (KHTML, like Gecko) Chrome/124.0.0.0 Safari/537.36","WebKit","Chrome","124.0.0.0","Windows","10.0","https://hz8g1ckzuq.cognition.run/","en-US,en;q=0.9","xshpm584nj8s3y8","28","[""White""]","No","Prefer not to say","1508526.5","4229","","","{""product_choice"":""C""}","choice","tdc","attraction_1","1","televisions","null","null","null","null","null","null","2","60","50","60","50","60","45","Screen size","Average lifespan","",""
"","","","","","choice_trial_setup","html-keyboard-response","132","1360700","0.0-5.0-0.24","198","1","2025-04-14 14:47:30","bb671e3ae32f654b8954ea4c4635f915","","Mozilla/5.0 (Windows NT 10.0; Win64; x64) AppleWebKit/537.36 (KHTML, like Gecko) Chrome/124.0.0.0 Safari/537.36","WebKit","Chrome","124.0.0.0","Windows","10.0","https://hz8g1ckzuq.cognition.run/","en-US,en;q=0.9","xshpm584nj8s3y8","28","[""White""]","No","Prefer not to say","1508526.5","null","","<p></p>","null","choice","tdc","repulsion_2","1","televisions","null","null","null","null","null","null","1","","","","","","","","","",""
"","","","","","choice_trial","survey-html-form","133","1364315","0.0-5.0-1.24","198","1","2025-04-14 14:47:30","bb671e3ae32f654b8954ea4c4635f915","","Mozilla/5.0 (Windows NT 10.0; Win64; x64) AppleWebKit/537.36 (KHTML, like Gecko) Chrome/124.0.0.0 Safari/537.36","WebKit","Chrome","124.0.0.0","Windows","10.0","https://hz8g1ckzuq.cognition.run/","en-US,en;q=0.9","xshpm584nj8s3y8","28","[""White""]","No","Prefer not to say","1508526.5","3606","","","{""product_choice"":""C""}","choice","tdc","repulsion_2","1","televisions","null","null","null","null","null","null","1","100","90","100","30","40","20","Screen size","Average lifespan","",""
"","","","","","choice_trial_setup","html-keyboard-response","134","1364624","0.0-5.0-0.25","198","1","2025-04-14 14:47:30","bb671e3ae32f654b8954ea4c4635f915","","Mozilla/5.0 (Windows NT 10.0; Win64; x64) AppleWebKit/537.36 (KHTML, like Gecko) Chrome/124.0.0.0 Safari/537.36","WebKit","Chrome","124.0.0.0","Windows","10.0","https://hz8g1ckzuq.cognition.run/","en-US,en;q=0.9","xshpm584nj8s3y8","28","[""White""]","No","Prefer not to say","1508526.5","null","","<p></p>","null","choice","dtc","attraction_2","2","televisions","null","null","null","null","null","null","2","","","","","","","","","",""
"","","","","","choice_trial","survey-html-form","135","1370393","0.0-5.0-1.25","198","1","2025-04-14 14:47:30","bb671e3ae32f654b8954ea4c4635f915","","Mozilla/5.0 (Windows NT 10.0; Win64; x64) AppleWebKit/537.36 (KHTML, like Gecko) Chrome/124.0.0.0 Safari/537.36","WebKit","Chrome","124.0.0.0","Windows","10.0","https://hz8g1ckzuq.cognition.run/","en-US,en;q=0.9","xshpm584nj8s3y8","28","[""White""]","No","Prefer not to say","1508526.5","5761","","","{""product_choice"":""B""}","choice","dtc","attraction_2","2","televisions","null","null","null","null","null","null","2","50","60","40","60","50","60","Screen size","Average lifespan","",""
"","","","","","choice_trial_setup","html-keyboard-response","136","1370702","0.0-5.0-0.26","198","1","2025-04-14 14:47:30","bb671e3ae32f654b8954ea4c4635f915","","Mozilla/5.0 (Windows NT 10.0; Win64; x64) AppleWebKit/537.36 (KHTML, like Gecko) Chrome/124.0.0.0 Safari/537.36","WebKit","Chrome","124.0.0.0","Windows","10.0","https://hz8g1ckzuq.cognition.run/","en-US,en;q=0.9","xshpm584nj8s3y8","28","[""White""]","No","Prefer not to say","1508526.5","null","","<p></p>","null","choice","wwb","catch","null","microwave ovens","50","90","25","10","30","20","2","","","","","","","","","",""
"","","","","","choice_trial","survey-html-form","137","1376316","0.0-5.0-1.26","198","1","2025-04-14 14:47:30","bb671e3ae32f654b8954ea4c4635f915","","Mozilla/5.0 (Windows NT 10.0; Win64; x64) AppleWebKit/537.36 (KHTML, like Gecko) Chrome/124.0.0.0 Safari/537.36","WebKit","Chrome","124.0.0.0","Windows","10.0","https://hz8g1ckzuq.cognition.run/","en-US,en;q=0.9","xshpm584nj8s3y8","28","[""White""]","No","Prefer not to say","1508526.5","5603","","","{""product_choice"":""C""}","choice","wwb","catch","null","microwave ovens","50","90","25","10","30","20","2","null","null","null","null","null","null","Warranty","Cooking power","",""
"","","","","","choice_trial_setup","html-keyboard-response","138","1376625","0.0-5.0-0.27","198","1","2025-04-14 14:47:30","bb671e3ae32f654b8954ea4c4635f915","","Mozilla/5.0 (Windows NT 10.0; Win64; x64) AppleWebKit/537.36 (KHTML, like Gecko) Chrome/124.0.0.0 Safari/537.36","WebKit","Chrome","124.0.0.0","Windows","10.0","https://hz8g1ckzuq.cognition.run/","en-US,en;q=0.9","xshpm584nj8s3y8","28","[""White""]","No","Prefer not to say","1508526.5","null","","<p></p>","null","choice","tdc","repulsion_1","1","washing machines","null","null","null","null","null","null","2","","","","","","","","","",""
"","","","","","choice_trial","survey-html-form","139","1381906","0.0-5.0-1.27","198","1","2025-04-14 14:47:30","bb671e3ae32f654b8954ea4c4635f915","","Mozilla/5.0 (Windows NT 10.0; Win64; x64) AppleWebKit/537.36 (KHTML, like Gecko) Chrome/124.0.0.0 Safari/537.36","WebKit","Chrome","124.0.0.0","Windows","10.0","https://hz8g1ckzuq.cognition.run/","en-US,en;q=0.9","xshpm584nj8s3y8","28","[""White""]","No","Prefer not to say","1508526.5","5275","","","{""product_choice"":""C""}","choice","tdc","repulsion_1","1","washing machines","null","null","null","null","null","null","2","100","90","100","30","40","25","Average lifespan","Energy savings","",""
"","","","","","choice_trial_setup","html-keyboard-response","140","1382230","0.0-5.0-0.28","198","1","2025-04-14 14:47:30","bb671e3ae32f654b8954ea4c4635f915","","Mozilla/5.0 (Windows NT 10.0; Win64; x64) AppleWebKit/537.36 (KHTML, like Gecko) Chrome/124.0.0.0 Safari/537.36","WebKit","Chrome","124.0.0.0","Windows","10.0","https://hz8g1ckzuq.cognition.run/","en-US,en;q=0.9","xshpm584nj8s3y8","28","[""White""]","No","Prefer not to say","1508526.5","null","","<p></p>","null","choice","bww","catch","null","laptops","95","90","40","35","15","5","1","","","","","","","","","",""
"","","","","","choice_trial","survey-html-form","141","1385906","0.0-5.0-1.28","198","1","2025-04-14 14:47:30","bb671e3ae32f654b8954ea4c4635f915","","Mozilla/5.0 (Windows NT 10.0; Win64; x64) AppleWebKit/537.36 (KHTML, like Gecko) Chrome/124.0.0.0 Safari/537.36","WebKit","Chrome","124.0.0.0","Windows","10.0","https://hz8g1ckzuq.cognition.run/","en-US,en;q=0.9","xshpm584nj8s3y8","28","[""White""]","No","Prefer not to say","1508526.5","3669","","","{""product_choice"":""A""}","choice","bww","catch","null","laptops","95","90","40","35","15","5","1","null","null","null","null","null","null","Processing speed","Memory (RAM)","",""
"","","","","","choice_trial_setup","html-keyboard-response","142","1386215","0.0-5.0-0.29","198","1","2025-04-14 14:47:30","bb671e3ae32f654b8954ea4c4635f915","","Mozilla/5.0 (Windows NT 10.0; Win64; x64) AppleWebKit/537.36 (KHTML, like Gecko) Chrome/124.0.0.0 Safari/537.36","WebKit","Chrome","124.0.0.0","Windows","10.0","https://hz8g1ckzuq.cognition.run/","en-US,en;q=0.9","xshpm584nj8s3y8","28","[""White""]","No","Prefer not to say","1508526.5","null","","<p></p>","null","choice","tcd","attraction_2","2","washing machines","null","null","null","null","null","null","2","","","","","","","","","",""
"","","","","","choice_trial","survey-html-form","143","1390080","0.0-5.0-1.29","198","1","2025-04-14 14:47:30","bb671e3ae32f654b8954ea4c4635f915","","Mozilla/5.0 (Windows NT 10.0; Win64; x64) AppleWebKit/537.36 (KHTML, like Gecko) Chrome/124.0.0.0 Safari/537.36","WebKit","Chrome","124.0.0.0","Windows","10.0","https://hz8g1ckzuq.cognition.run/","en-US,en;q=0.9","xshpm584nj8s3y8","28","[""White""]","No","Prefer not to say","1508526.5","3857","","","{""product_choice"":""B""}","choice","tcd","attraction_2","2","washing machines","null","null","null","null","null","null","2","50","60","40","60","50","60","Average lifespan","Energy savings","",""
"","","","","","choice_trial_setup","html-keyboard-response","144","1390390","0.0-5.0-0.30","198","1","2025-04-14 14:47:30","bb671e3ae32f654b8954ea4c4635f915","","Mozilla/5.0 (Windows NT 10.0; Win64; x64) AppleWebKit/537.36 (KHTML, like Gecko) Chrome/124.0.0.0 Safari/537.36","WebKit","Chrome","124.0.0.0","Windows","10.0","https://hz8g1ckzuq.cognition.run/","en-US,en;q=0.9","xshpm584nj8s3y8","28","[""White""]","No","Prefer not to say","1508526.5","null","","<p></p>","null","choice","wbw","catch","null","televisions","90","90","35","35","35","35","2","","","","","","","","","",""
"","","","","","choice_trial","survey-html-form","145","1394141","0.0-5.0-1.30","198","1","2025-04-14 14:47:30","bb671e3ae32f654b8954ea4c4635f915","","Mozilla/5.0 (Windows NT 10.0; Win64; x64) AppleWebKit/537.36 (KHTML, like Gecko) Chrome/124.0.0.0 Safari/537.36","WebKit","Chrome","124.0.0.0","Windows","10.0","https://hz8g1ckzuq.cognition.run/","en-US,en;q=0.9","xshpm584nj8s3y8","28","[""White""]","No","Prefer not to say","1508526.5","3742","","","{""product_choice"":""B""}","choice","wbw","catch","null","televisions","90","90","35","35","35","35","2","null","null","null","null","null","null","Screen size","Average lifespan","",""
"","","","","","choice_trial_setup","html-keyboard-response","146","1394450","0.0-5.0-0.31","198","1","2025-04-14 14:47:30","bb671e3ae32f654b8954ea4c4635f915","","Mozilla/5.0 (Windows NT 10.0; Win64; x64) AppleWebKit/537.36 (KHTML, like Gecko) Chrome/124.0.0.0 Safari/537.36","WebKit","Chrome","124.0.0.0","Windows","10.0","https://hz8g1ckzuq.cognition.run/","en-US,en;q=0.9","xshpm584nj8s3y8","28","[""White""]","No","Prefer not to say","1508526.5","null","","<p></p>","null","choice","cdt","repulsion_1","2","washing machines","null","null","null","null","null","null","2","","","","","","","","","",""
"","","","","","choice_trial","survey-html-form","147","1399533","0.0-5.0-1.31","198","1","2025-04-14 14:47:30","bb671e3ae32f654b8954ea4c4635f915","","Mozilla/5.0 (Windows NT 10.0; Win64; x64) AppleWebKit/537.36 (KHTML, like Gecko) Chrome/124.0.0.0 Safari/537.36","WebKit","Chrome","124.0.0.0","Windows","10.0","https://hz8g1ckzuq.cognition.run/","en-US,en;q=0.9","xshpm584nj8s3y8","28","[""White""]","No","Prefer not to say","1508526.5","5074","","","{""product_choice"":""A""}","choice","cdt","repulsion_1","2","washing machines","null","null","null","null","null","null","2","30","40","25","100","90","100","Average lifespan","Energy savings","",""
"","","","","","choice_trial_setup","html-keyboard-response","148","1399842","0.0-5.0-0.32","198","1","2025-04-14 14:47:30","bb671e3ae32f654b8954ea4c4635f915","","Mozilla/5.0 (Windows NT 10.0; Win64; x64) AppleWebKit/537.36 (KHTML, like Gecko) Chrome/124.0.0.0 Safari/537.36","WebKit","Chrome","124.0.0.0","Windows","10.0","https://hz8g1ckzuq.cognition.run/","en-US,en;q=0.9","xshpm584nj8s3y8","28","[""White""]","No","Prefer not to say","1508526.5","null","","<p></p>","null","choice","tdc","repulsion_1","1","microwave ovens","null","null","null","null","null","null","1","","","","","","","","","",""
"","","","","","choice_trial","survey-html-form","149","1406539","0.0-5.0-1.32","198","1","2025-04-14 14:47:30","bb671e3ae32f654b8954ea4c4635f915","","Mozilla/5.0 (Windows NT 10.0; Win64; x64) AppleWebKit/537.36 (KHTML, like Gecko) Chrome/124.0.0.0 Safari/537.36","WebKit","Chrome","124.0.0.0","Windows","10.0","https://hz8g1ckzuq.cognition.run/","en-US,en;q=0.9","xshpm584nj8s3y8","28","[""White""]","No","Prefer not to say","1508526.5","6689","","","{""product_choice"":""C""}","choice","tdc","repulsion_1","1","microwave ovens","null","null","null","null","null","null","1","100","90","100","30","40","25","Warranty","Cooking power","",""
"","","","","","choice_trial_setup","html-keyboard-response","150","1406849","0.0-5.0-0.33","198","1","2025-04-14 14:47:30","bb671e3ae32f654b8954ea4c4635f915","","Mozilla/5.0 (Windows NT 10.0; Win64; x64) AppleWebKit/537.36 (KHTML, like Gecko) Chrome/124.0.0.0 Safari/537.36","WebKit","Chrome","124.0.0.0","Windows","10.0","https://hz8g1ckzuq.cognition.run/","en-US,en;q=0.9","xshpm584nj8s3y8","28","[""White""]","No","Prefer not to say","1508526.5","null","","<p></p>","null","choice","dct","attraction_1","2","washing machines","null","null","null","null","null","null","1","","","","","","","","","",""
"","","","","","choice_trial","survey-html-form","151","1413854","0.0-5.0-1.33","198","1","2025-04-14 14:47:30","bb671e3ae32f654b8954ea4c4635f915","","Mozilla/5.0 (Windows NT 10.0; Win64; x64) AppleWebKit/537.36 (KHTML, like Gecko) Chrome/124.0.0.0 Safari/537.36","WebKit","Chrome","124.0.0.0","Windows","10.0","https://hz8g1ckzuq.cognition.run/","en-US,en;q=0.9","xshpm584nj8s3y8","28","[""White""]","No","Prefer not to say","1508526.5","6995","","","{""product_choice"":""C""}","choice","dct","attraction_1","2","washing machines","null","null","null","null","null","null","1","50","60","45","60","50","60","Average lifespan","Energy savings","",""
"","","","","","choice_trial_setup","html-keyboard-response","152","1414162","0.0-5.0-0.34","198","1","2025-04-14 14:47:30","bb671e3ae32f654b8954ea4c4635f915","","Mozilla/5.0 (Windows NT 10.0; Win64; x64) AppleWebKit/537.36 (KHTML, like Gecko) Chrome/124.0.0.0 Safari/537.36","WebKit","Chrome","124.0.0.0","Windows","10.0","https://hz8g1ckzuq.cognition.run/","en-US,en;q=0.9","xshpm584nj8s3y8","28","[""White""]","No","Prefer not to say","1508526.5","null","","<p></p>","null","choice","tcd","repulsion_2","2","microwave ovens","null","null","null","null","null","null","1","","","","","","","","","",""
"","","","","","choice_trial","survey-html-form","153","1419583","0.0-5.0-1.34","198","1","2025-04-14 14:47:30","bb671e3ae32f654b8954ea4c4635f915","","Mozilla/5.0 (Windows NT 10.0; Win64; x64) AppleWebKit/537.36 (KHTML, like Gecko) Chrome/124.0.0.0 Safari/537.36","WebKit","Chrome","124.0.0.0","Windows","10.0","https://hz8g1ckzuq.cognition.run/","en-US,en;q=0.9","xshpm584nj8s3y8","28","[""White""]","No","Prefer not to say","1508526.5","5412","","","{""product_choice"":""B""}","choice","tcd","repulsion_2","2","microwave ovens","null","null","null","null","null","null","1","30","40","20","100","90","100","Warranty","Cooking power","",""
"","","","","","choice_trial_setup","html-keyboard-response","154","1419891","0.0-5.0-0.35","198","1","2025-04-14 14:47:30","bb671e3ae32f654b8954ea4c4635f915","","Mozilla/5.0 (Windows NT 10.0; Win64; x64) AppleWebKit/537.36 (KHTML, like Gecko) Chrome/124.0.0.0 Safari/537.36","WebKit","Chrome","124.0.0.0","Windows","10.0","https://hz8g1ckzuq.cognition.run/","en-US,en;q=0.9","xshpm584nj8s3y8","28","[""White""]","No","Prefer not to say","1508526.5","null","","<p></p>","null","choice","cdt","repulsion_1","2","laptops","null","null","null","null","null","null","2","","","","","","","","","",""
"","","","","","choice_trial","survey-html-form","155","1423542","0.0-5.0-1.35","198","1","2025-04-14 14:47:30","bb671e3ae32f654b8954ea4c4635f915","","Mozilla/5.0 (Windows NT 10.0; Win64; x64) AppleWebKit/537.36 (KHTML, like Gecko) Chrome/124.0.0.0 Safari/537.36","WebKit","Chrome","124.0.0.0","Windows","10.0","https://hz8g1ckzuq.cognition.run/","en-US,en;q=0.9","xshpm584nj8s3y8","28","[""White""]","No","Prefer not to say","1508526.5","3645","","","{""product_choice"":""A""}","choice","cdt","repulsion_1","2","laptops","null","null","null","null","null","null","2","30","40","25","100","90","100","Processing speed","Memory (RAM)","",""
"","","","","","choice_trial_setup","html-keyboard-response","156","1423852","0.0-5.0-0.36","198","1","2025-04-14 14:47:30","bb671e3ae32f654b8954ea4c4635f915","","Mozilla/5.0 (Windows NT 10.0; Win64; x64) AppleWebKit/537.36 (KHTML, like Gecko) Chrome/124.0.0.0 Safari/537.36","WebKit","Chrome","124.0.0.0","Windows","10.0","https://hz8g1ckzuq.cognition.run/","en-US,en;q=0.9","xshpm584nj8s3y8","28","[""White""]","No","Prefer not to say","1508526.5","null","","<p></p>","null","choice","dct","repulsion_2","1","laptops","null","null","null","null","null","null","1","","","","","","","","","",""
