"success","timeout","failed_images","failed_audio","failed_video","screen_id","trial_type","trial_index","time_elapsed","internal_node_id","run_id","condition","recorded_at","source_code_version","ip","user_agent","device","browser","browser_version","platform","platform_version","referer","accept_language","ppt_id","age","race","ethnicity","gender","exp_duration","rt","view_history","stimulus","response","phase","order","effect","t_high","category","d1_best","d2_best","d1_worst1","d2_worst1","d1_worst2","d2_worst2","first_dim","d1_t","d1_c","d1_d","d2_t","d2_c","d2_d","d1_name","d2_name","strategy_response","question_order"
"true","false","[]","[]","[]","img preload","preload","0","2922","0.0-0.0","200","1","2025-04-14 14:51:55","bb671e3ae32f654b8954ea4c4635f915","","Mozilla/5.0 (Windows NT 10.0; Win64; x64; rv:137.0) Gecko/20100101 Firefox/137.0","","Firefox","137.0","Windows","10.0","https://hz8g1ckzuq.cognition.run/","en-US,en;q=0.5","pxbrxxhmrubg7gt","45","[""White""]","No","Female","1367062","","","","","","","","","","","","","","","","","","","","","","","","","",""
"true","","","","","","fullscreen","1","6655","0.0-1.0","200","1","2025-04-14 14:51:55","bb671e3ae32f654b8954ea4c4635f915","","Mozilla/5.0 (Windows NT 10.0; Win64; x64; rv:137.0) Gecko/20100101 Firefox/137.0","","Firefox","137.0","Windows","10.0","https://hz8g1ckzuq.cognition.run/","en-US,en;q=0.5","pxbrxxhmrubg7gt","45","[""White""]","No","Female","1367062","2683","","","","","","","","","","","","","","","","","","","","","","","","",""
"","","","","","","instructions","2","118447","0.0-2.0","200","1","2025-04-14 14:51:55","bb671e3ae32f654b8954ea4c4635f915","","Mozilla/5.0 (Windows NT 10.0; Win64; x64; rv:137.0) Gecko/20100101 Firefox/137.0","","Firefox","137.0","Windows","10.0","https://hz8g1ckzuq.cognition.run/","en-US,en;q=0.5","pxbrxxhmrubg7gt","45","[""White""]","No","Female","1367062","111784","[{""page_index"":0,""viewing_time"":2100},{""page_index"":1,""viewing_time"":2987},{""page_index"":2,""viewing_time"":3848},{""page_index"":3,""viewing_time"":3577},{""page_index"":4,""viewing_time"":10160},{""page_index"":5,""viewing_time"":4175},{""page_index"":6,""viewing_time"":7253},{""page_index"":7,""viewing_time"":34793},{""page_index"":8,""viewing_time"":21927},{""page_index"":7,""viewing_time"":15300},{""page_index"":8,""viewing_time"":1329},{""page_index"":9,""viewing_time"":4335}]","","","","","","","","","","","","","","","","","","","","","","","",""
"","","","","","rating_trial_setup","html-keyboard-response","3","118766","0.0-3.0-0.0","200","1","2025-04-14 14:51:55","bb671e3ae32f654b8954ea4c4635f915","","Mozilla/5.0 (Windows NT 10.0; Win64; x64; rv:137.0) Gecko/20100101 Firefox/137.0","","Firefox","137.0","Windows","10.0","https://hz8g1ckzuq.cognition.run/","en-US,en;q=0.5","pxbrxxhmrubg7gt","45","[""White""]","No","Female","1367062","null","","<p></p>","null","rating","cdt","attraction_2","1","laptops","null","null","null","null","null","null","1","","","","","","","","","",""
"","","","","","rating_trial","survey-html-form","4","160232","0.0-3.0-1.0","200","1","2025-04-14 14:51:55","bb671e3ae32f654b8954ea4c4635f915","","Mozilla/5.0 (Windows NT 10.0; Win64; x64; rv:137.0) Gecko/20100101 Firefox/137.0","","Firefox","137.0","Windows","10.0","https://hz8g1ckzuq.cognition.run/","en-US,en;q=0.5","pxbrxxhmrubg7gt","45","[""White""]","No","Female","1367062","41462","","","{""price_1"":""25"",""price_2"":""25"",""price_3"":""25""}","rating","cdt","attraction_2","1","laptops","null","null","null","null","null","null","1","60","50","60","50","60","40","Processing speed","Memory (RAM)","",""
"","","","","","rating_trial_setup","html-keyboard-response","5","160538","0.0-3.0-0.1","200","1","2025-04-14 14:51:55","bb671e3ae32f654b8954ea4c4635f915","","Mozilla/5.0 (Windows NT 10.0; Win64; x64; rv:137.0) Gecko/20100101 Firefox/137.0","","Firefox","137.0","Windows","10.0","https://hz8g1ckzuq.cognition.run/","en-US,en;q=0.5","pxbrxxhmrubg7gt","45","[""White""]","No","Female","1367062","null","","<p></p>","null","rating","dtc","attraction_1","1","microwave ovens","null","null","null","null","null","null","2","","","","","","","","","",""
"","","","","","rating_trial","survey-html-form","6","185410","0.0-3.0-1.1","200","1","2025-04-14 14:51:55","bb671e3ae32f654b8954ea4c4635f915","","Mozilla/5.0 (Windows NT 10.0; Win64; x64; rv:137.0) Gecko/20100101 Firefox/137.0","","Firefox","137.0","Windows","10.0","https://hz8g1ckzuq.cognition.run/","en-US,en;q=0.5","pxbrxxhmrubg7gt","45","[""White""]","No","Female","1367062","24867","","","{""price_1"":""50"",""price_2"":""50"",""price_3"":""50""}","rating","dtc","attraction_1","1","microwave ovens","null","null","null","null","null","null","2","60","50","60","50","60","45","Warranty","Cooking power","",""
"","","","","","rating_trial_setup","html-keyboard-response","7","185721","0.0-3.0-0.2","200","1","2025-04-14 14:51:55","bb671e3ae32f654b8954ea4c4635f915","","Mozilla/5.0 (Windows NT 10.0; Win64; x64; rv:137.0) Gecko/20100101 Firefox/137.0","","Firefox","137.0","Windows","10.0","https://hz8g1ckzuq.cognition.run/","en-US,en;q=0.5","pxbrxxhmrubg7gt","45","[""White""]","No","Female","1367062","null","","<p></p>","null","rating","wwb","catch","null","microwave ovens","60","85","25","10","30","20","1","","","","","","","","","",""
"","","","","","rating_trial","survey-html-form","8","215795","0.0-3.0-1.2","200","1","2025-04-14 14:51:55","bb671e3ae32f654b8954ea4c4635f915","","Mozilla/5.0 (Windows NT 10.0; Win64; x64; rv:137.0) Gecko/20100101 Firefox/137.0","","Firefox","137.0","Windows","10.0","https://hz8g1ckzuq.cognition.run/","en-US,en;q=0.5","pxbrxxhmrubg7gt","45","[""White""]","No","Female","1367062","30069","","","{""price_1"":""10"",""price_2"":""12"",""price_3"":""22""}","rating","wwb","catch","null","microwave ovens","60","85","25","10","30","20","1","null","null","null","null","null","null","Warranty","Cooking power","",""
"","","","","","rating_trial_setup","html-keyboard-response","9","216108","0.0-3.0-0.3","200","1","2025-04-14 14:51:55","bb671e3ae32f654b8954ea4c4635f915","","Mozilla/5.0 (Windows NT 10.0; Win64; x64; rv:137.0) Gecko/20100101 Firefox/137.0","","Firefox","137.0","Windows","10.0","https://hz8g1ckzuq.cognition.run/","en-US,en;q=0.5","pxbrxxhmrubg7gt","45","[""White""]","No","Female","1367062","null","","<p></p>","null","rating","dtc","attraction_1","1","laptops","null","null","null","null","null","null","2","","","","","","","","","",""
"","","","","","rating_trial","survey-html-form","10","232995","0.0-3.0-1.3","200","1","2025-04-14 14:51:55","bb671e3ae32f654b8954ea4c4635f915","","Mozilla/5.0 (Windows NT 10.0; Win64; x64; rv:137.0) Gecko/20100101 Firefox/137.0","","Firefox","137.0","Windows","10.0","https://hz8g1ckzuq.cognition.run/","en-US,en;q=0.5","pxbrxxhmrubg7gt","45","[""White""]","No","Female","1367062","16882","","","{""price_1"":""20"",""price_2"":""25"",""price_3"":""25""}","rating","dtc","attraction_1","1","laptops","null","null","null","null","null","null","2","60","50","60","50","60","45","Processing speed","Memory (RAM)","",""
"","","","","","rating_trial_setup","html-keyboard-response","11","233303","0.0-3.0-0.4","200","1","2025-04-14 14:51:55","bb671e3ae32f654b8954ea4c4635f915","","Mozilla/5.0 (Windows NT 10.0; Win64; x64; rv:137.0) Gecko/20100101 Firefox/137.0","","Firefox","137.0","Windows","10.0","https://hz8g1ckzuq.cognition.run/","en-US,en;q=0.5","pxbrxxhmrubg7gt","45","[""White""]","No","Female","1367062","null","","<p></p>","null","rating","dtc","repulsion_1","2","microwave ovens","null","null","null","null","null","null","1","","","","","","","","","",""
"","","","","","rating_trial","survey-html-form","12","256766","0.0-3.0-1.4","200","1","2025-04-14 14:51:55","bb671e3ae32f654b8954ea4c4635f915","","Mozilla/5.0 (Windows NT 10.0; Win64; x64; rv:137.0) Gecko/20100101 Firefox/137.0","","Firefox","137.0","Windows","10.0","https://hz8g1ckzuq.cognition.run/","en-US,en;q=0.5","pxbrxxhmrubg7gt","45","[""White""]","No","Female","1367062","23460","","","{""price_1"":""30"",""price_2"":""30"",""price_3"":""30""}","rating","dtc","repulsion_1","2","microwave ovens","null","null","null","null","null","null","1","30","40","25","100","90","100","Warranty","Cooking power","",""
"","","","","","rating_trial_setup","html-keyboard-response","13","257069","0.0-3.0-0.5","200","1","2025-04-14 14:51:55","bb671e3ae32f654b8954ea4c4635f915","","Mozilla/5.0 (Windows NT 10.0; Win64; x64; rv:137.0) Gecko/20100101 Firefox/137.0","","Firefox","137.0","Windows","10.0","https://hz8g1ckzuq.cognition.run/","en-US,en;q=0.5","pxbrxxhmrubg7gt","45","[""White""]","No","Female","1367062","null","","<p></p>","null","rating","tdc","repulsion_1","1","washing machines","null","null","null","null","null","null","2","","","","","","","","","",""
"","","","","","rating_trial","survey-html-form","14","284872","0.0-3.0-1.5","200","1","2025-04-14 14:51:55","bb671e3ae32f654b8954ea4c4635f915","","Mozilla/5.0 (Windows NT 10.0; Win64; x64; rv:137.0) Gecko/20100101 Firefox/137.0","","Firefox","137.0","Windows","10.0","https://hz8g1ckzuq.cognition.run/","en-US,en;q=0.5","pxbrxxhmrubg7gt","45","[""White""]","No","Female","1367062","27797","","","{""price_1"":""25"",""price_2"":""25"",""price_3"":""17""}","rating","tdc","repulsion_1","1","washing machines","null","null","null","null","null","null","2","100","90","100","30","40","25","Average lifespan","Energy savings","",""
"","","","","","rating_trial_setup","html-keyboard-response","15","285175","0.0-3.0-0.6","200","1","2025-04-14 14:51:55","bb671e3ae32f654b8954ea4c4635f915","","Mozilla/5.0 (Windows NT 10.0; Win64; x64; rv:137.0) Gecko/20100101 Firefox/137.0","","Firefox","137.0","Windows","10.0","https://hz8g1ckzuq.cognition.run/","en-US,en;q=0.5","pxbrxxhmrubg7gt","45","[""White""]","No","Female","1367062","null","","<p></p>","null","rating","tdc","attraction_2","1","washing machines","null","null","null","null","null","null","2","","","","","","","","","",""
"","","","","","rating_trial","survey-html-form","16","300531","0.0-3.0-1.6","200","1","2025-04-14 14:51:55","bb671e3ae32f654b8954ea4c4635f915","","Mozilla/5.0 (Windows NT 10.0; Win64; x64; rv:137.0) Gecko/20100101 Firefox/137.0","","Firefox","137.0","Windows","10.0","https://hz8g1ckzuq.cognition.run/","en-US,en;q=0.5","pxbrxxhmrubg7gt","45","[""White""]","No","Female","1367062","15352","","","{""price_1"":""25"",""price_2"":""25"",""price_3"":""25""}","rating","tdc","attraction_2","1","washing machines","null","null","null","null","null","null","2","60","50","60","50","60","40","Average lifespan","Energy savings","",""
"","","","","","rating_trial_setup","html-keyboard-response","17","301133","0.0-3.0-0.7","200","1","2025-04-14 14:51:55","bb671e3ae32f654b8954ea4c4635f915","","Mozilla/5.0 (Windows NT 10.0; Win64; x64; rv:137.0) Gecko/20100101 Firefox/137.0","","Firefox","137.0","Windows","10.0","https://hz8g1ckzuq.cognition.run/","en-US,en;q=0.5","pxbrxxhmrubg7gt","45","[""White""]","No","Female","1367062","null","","<p></p>","null","rating","dct","repulsion_1","2","televisions","null","null","null","null","null","null","2","","","","","","","","","",""
"","","","","","rating_trial","survey-html-form","18","326975","0.0-3.0-1.7","200","1","2025-04-14 14:51:55","bb671e3ae32f654b8954ea4c4635f915","","Mozilla/5.0 (Windows NT 10.0; Win64; x64; rv:137.0) Gecko/20100101 Firefox/137.0","","Firefox","137.0","Windows","10.0","https://hz8g1ckzuq.cognition.run/","en-US,en;q=0.5","pxbrxxhmrubg7gt","45","[""White""]","No","Female","1367062","25840","","","{""price_1"":""25"",""price_2"":""25"",""price_3"":""30""}","rating","dct","repulsion_1","2","televisions","null","null","null","null","null","null","2","30","40","25","100","90","100","Screen size","Average lifespan","",""
"","","","","","rating_trial_setup","html-keyboard-response","19","327292","0.0-3.0-0.8","200","1","2025-04-14 14:51:55","bb671e3ae32f654b8954ea4c4635f915","","Mozilla/5.0 (Windows NT 10.0; Win64; x64; rv:137.0) Gecko/20100101 Firefox/137.0","","Firefox","137.0","Windows","10.0","https://hz8g1ckzuq.cognition.run/","en-US,en;q=0.5","pxbrxxhmrubg7gt","45","[""White""]","No","Female","1367062","null","","<p></p>","null","rating","cdt","attraction_1","2","microwave ovens","null","null","null","null","null","null","1","","","","","","","","","",""
"","","","","","rating_trial","survey-html-form","20","347003","0.0-3.0-1.8","200","1","2025-04-14 14:51:55","bb671e3ae32f654b8954ea4c4635f915","","Mozilla/5.0 (Windows NT 10.0; Win64; x64; rv:137.0) Gecko/20100101 Firefox/137.0","","Firefox","137.0","Windows","10.0","https://hz8g1ckzuq.cognition.run/","en-US,en;q=0.5","pxbrxxhmrubg7gt","45","[""White""]","No","Female","1367062","19701","","","{""price_1"":""25"",""price_2"":""20"",""price_3"":""23""}","rating","cdt","attraction_1","2","microwave ovens","null","null","null","null","null","null","1","50","60","45","60","50","60","Warranty","Cooking power","",""
"","","","","","rating_trial_setup","html-keyboard-response","21","347312","0.0-3.0-0.9","200","1","2025-04-14 14:51:55","bb671e3ae32f654b8954ea4c4635f915","","Mozilla/5.0 (Windows NT 10.0; Win64; x64; rv:137.0) Gecko/20100101 Firefox/137.0","","Firefox","137.0","Windows","10.0","https://hz8g1ckzuq.cognition.run/","en-US,en;q=0.5","pxbrxxhmrubg7gt","45","[""White""]","No","Female","1367062","null","","<p></p>","null","rating","dtc","repulsion_2","2","washing machines","null","null","null","null","null","null","1","","","","","","","","","",""
"","","","","","rating_trial","survey-html-form","22","391811","0.0-3.0-1.9","200","1","2025-04-14 14:51:55","bb671e3ae32f654b8954ea4c4635f915","","Mozilla/5.0 (Windows NT 10.0; Win64; x64; rv:137.0) Gecko/20100101 Firefox/137.0","","Firefox","137.0","Windows","10.0","https://hz8g1ckzuq.cognition.run/","en-US,en;q=0.5","pxbrxxhmrubg7gt","45","[""White""]","No","Female","1367062","44491","","","{""price_1"":""145"",""price_2"":""150"",""price_3"":""155""}","rating","dtc","repulsion_2","2","washing machines","null","null","null","null","null","null","1","30","40","20","100","90","100","Average lifespan","Energy savings","",""
"","","","","","rating_trial_setup","html-keyboard-response","23","392121","0.0-3.0-0.10","200","1","2025-04-14 14:51:55","bb671e3ae32f654b8954ea4c4635f915","","Mozilla/5.0 (Windows NT 10.0; Win64; x64; rv:137.0) Gecko/20100101 Firefox/137.0","","Firefox","137.0","Windows","10.0","https://hz8g1ckzuq.cognition.run/","en-US,en;q=0.5","pxbrxxhmrubg7gt","45","[""White""]","No","Female","1367062","null","","<p></p>","null","rating","dtc","repulsion_1","1","laptops","null","null","null","null","null","null","2","","","","","","","","","",""
"","","","","","rating_trial","survey-html-form","24","427052","0.0-3.0-1.10","200","1","2025-04-14 14:51:55","bb671e3ae32f654b8954ea4c4635f915","","Mozilla/5.0 (Windows NT 10.0; Win64; x64; rv:137.0) Gecko/20100101 Firefox/137.0","","Firefox","137.0","Windows","10.0","https://hz8g1ckzuq.cognition.run/","en-US,en;q=0.5","pxbrxxhmrubg7gt","45","[""White""]","No","Female","1367062","34927","","","{""price_1"":""100"",""price_2"":""100"",""price_3"":""95""}","rating","dtc","repulsion_1","1","laptops","null","null","null","null","null","null","2","100","90","100","30","40","25","Processing speed","Memory (RAM)","",""
"","","","","","rating_trial_setup","html-keyboard-response","25","427359","0.0-3.0-0.11","200","1","2025-04-14 14:51:55","bb671e3ae32f654b8954ea4c4635f915","","Mozilla/5.0 (Windows NT 10.0; Win64; x64; rv:137.0) Gecko/20100101 Firefox/137.0","","Firefox","137.0","Windows","10.0","https://hz8g1ckzuq.cognition.run/","en-US,en;q=0.5","pxbrxxhmrubg7gt","45","[""White""]","No","Female","1367062","null","","<p></p>","null","rating","tcd","attraction_1","1","televisions","null","null","null","null","null","null","2","","","","","","","","","",""
"","","","","","rating_trial","survey-html-form","26","473702","0.0-3.0-1.11","200","1","2025-04-14 14:51:55","bb671e3ae32f654b8954ea4c4635f915","","Mozilla/5.0 (Windows NT 10.0; Win64; x64; rv:137.0) Gecko/20100101 Firefox/137.0","","Firefox","137.0","Windows","10.0","https://hz8g1ckzuq.cognition.run/","en-US,en;q=0.5","pxbrxxhmrubg7gt","45","[""White""]","No","Female","1367062","46338","","","{""price_1"":""100"",""price_2"":""100"",""price_3"":""100""}","rating","tcd","attraction_1","1","televisions","null","null","null","null","null","null","2","60","50","60","50","60","45","Screen size","Average lifespan","",""
"","","","","","rating_trial_setup","html-keyboard-response","27","474019","0.0-3.0-0.12","200","1","2025-04-14 14:51:55","bb671e3ae32f654b8954ea4c4635f915","","Mozilla/5.0 (Windows NT 10.0; Win64; x64; rv:137.0) Gecko/20100101 Firefox/137.0","","Firefox","137.0","Windows","10.0","https://hz8g1ckzuq.cognition.run/","en-US,en;q=0.5","pxbrxxhmrubg7gt","45","[""White""]","No","Female","1367062","null","","<p></p>","null","rating","tcd","repulsion_2","2","laptops","null","null","null","null","null","null","2","","","","","","","","","",""
"","","","","","rating_trial","survey-html-form","28","598210","0.0-3.0-1.12","200","1","2025-04-14 14:51:55","bb671e3ae32f654b8954ea4c4635f915","","Mozilla/5.0 (Windows NT 10.0; Win64; x64; rv:137.0) Gecko/20100101 Firefox/137.0","","Firefox","137.0","Windows","10.0","https://hz8g1ckzuq.cognition.run/","en-US,en;q=0.5","pxbrxxhmrubg7gt","45","[""White""]","No","Female","1367062","124187","","","{""price_1"":""25"",""price_2"":""25"",""price_3"":""25""}","rating","tcd","repulsion_2","2","laptops","null","null","null","null","null","null","2","30","40","20","100","90","100","Processing speed","Memory (RAM)","",""
"","","","","","rating_trial_setup","html-keyboard-response","29","598533","0.0-3.0-0.13","200","1","2025-04-14 14:51:55","bb671e3ae32f654b8954ea4c4635f915","","Mozilla/5.0 (Windows NT 10.0; Win64; x64; rv:137.0) Gecko/20100101 Firefox/137.0","","Firefox","137.0","Windows","10.0","https://hz8g1ckzuq.cognition.run/","en-US,en;q=0.5","pxbrxxhmrubg7gt","45","[""White""]","No","Female","1367062","null","","<p></p>","null","rating","bww","catch","null","microwave ovens","55","85","45","15","15","45","1","","","","","","","","","",""
"","","","","","rating_trial","survey-html-form","30","614343","0.0-3.0-1.13","200","1","2025-04-14 14:51:55","bb671e3ae32f654b8954ea4c4635f915","","Mozilla/5.0 (Windows NT 10.0; Win64; x64; rv:137.0) Gecko/20100101 Firefox/137.0","","Firefox","137.0","Windows","10.0","https://hz8g1ckzuq.cognition.run/","en-US,en;q=0.5","pxbrxxhmrubg7gt","45","[""White""]","No","Female","1367062","15805","","","{""price_1"":""25"",""price_2"":""12"",""price_3"":""12""}","rating","bww","catch","null","microwave ovens","55","85","45","15","15","45","1","null","null","null","null","null","null","Warranty","Cooking power","",""
"","","","","","rating_trial_setup","html-keyboard-response","31","614663","0.0-3.0-0.14","200","1","2025-04-14 14:51:55","bb671e3ae32f654b8954ea4c4635f915","","Mozilla/5.0 (Windows NT 10.0; Win64; x64; rv:137.0) Gecko/20100101 Firefox/137.0","","Firefox","137.0","Windows","10.0","https://hz8g1ckzuq.cognition.run/","en-US,en;q=0.5","pxbrxxhmrubg7gt","45","[""White""]","No","Female","1367062","null","","<p></p>","null","rating","ctd","attraction_2","1","microwave ovens","null","null","null","null","null","null","1","","","","","","","","","",""
"","","","","","rating_trial","survey-html-form","32","633050","0.0-3.0-1.14","200","1","2025-04-14 14:51:55","bb671e3ae32f654b8954ea4c4635f915","","Mozilla/5.0 (Windows NT 10.0; Win64; x64; rv:137.0) Gecko/20100101 Firefox/137.0","","Firefox","137.0","Windows","10.0","https://hz8g1ckzuq.cognition.run/","en-US,en;q=0.5","pxbrxxhmrubg7gt","45","[""White""]","No","Female","1367062","18380","","","{""price_1"":""21"",""price_2"":""25"",""price_3"":""28""}","rating","ctd","attraction_2","1","microwave ovens","null","null","null","null","null","null","1","60","50","60","50","60","40","Warranty","Cooking power","",""
"","","","","","rating_trial_setup","html-keyboard-response","33","633367","0.0-3.0-0.15","200","1","2025-04-14 14:51:55","bb671e3ae32f654b8954ea4c4635f915","","Mozilla/5.0 (Windows NT 10.0; Win64; x64; rv:137.0) Gecko/20100101 Firefox/137.0","","Firefox","137.0","Windows","10.0","https://hz8g1ckzuq.cognition.run/","en-US,en;q=0.5","pxbrxxhmrubg7gt","45","[""White""]","No","Female","1367062","null","","<p></p>","null","rating","bww","catch","null","laptops","60","65","30","10","45","45","2","","","","","","","","","",""
"","","","","","rating_trial","survey-html-form","34","658519","0.0-3.0-1.15","200","1","2025-04-14 14:51:55","bb671e3ae32f654b8954ea4c4635f915","","Mozilla/5.0 (Windows NT 10.0; Win64; x64; rv:137.0) Gecko/20100101 Firefox/137.0","","Firefox","137.0","Windows","10.0","https://hz8g1ckzuq.cognition.run/","en-US,en;q=0.5","pxbrxxhmrubg7gt","45","[""White""]","No","Female","1367062","25148","","","{""price_1"":""50"",""price_2"":""20"",""price_3"":""25""}","rating","bww","catch","null","laptops","60","65","30","10","45","45","2","null","null","null","null","null","null","Processing speed","Memory (RAM)","",""
"","","","","","rating_trial_setup","html-keyboard-response","35","658829","0.0-3.0-0.16","200","1","2025-04-14 14:51:55","bb671e3ae32f654b8954ea4c4635f915","","Mozilla/5.0 (Windows NT 10.0; Win64; x64; rv:137.0) Gecko/20100101 Firefox/137.0","","Firefox","137.0","Windows","10.0","https://hz8g1ckzuq.cognition.run/","en-US,en;q=0.5","pxbrxxhmrubg7gt","45","[""White""]","No","Female","1367062","null","","<p></p>","null","rating","bww","catch","null","washing machines","85","80","35","20","35","45","1","","","","","","","","","",""
"","","","","","rating_trial","survey-html-form","36","684595","0.0-3.0-1.16","200","1","2025-04-14 14:51:55","bb671e3ae32f654b8954ea4c4635f915","","Mozilla/5.0 (Windows NT 10.0; Win64; x64; rv:137.0) Gecko/20100101 Firefox/137.0","","Firefox","137.0","Windows","10.0","https://hz8g1ckzuq.cognition.run/","en-US,en;q=0.5","pxbrxxhmrubg7gt","45","[""White""]","No","Female","1367062","25760","","","{""price_1"":""50"",""price_2"":""25"",""price_3"":""25""}","rating","bww","catch","null","washing machines","85","80","35","20","35","45","1","null","null","null","null","null","null","Average lifespan","Energy savings","",""
"","","","","","rating_trial_setup","html-keyboard-response","37","684912","0.0-3.0-0.17","200","1","2025-04-14 14:51:55","bb671e3ae32f654b8954ea4c4635f915","","Mozilla/5.0 (Windows NT 10.0; Win64; x64; rv:137.0) Gecko/20100101 Firefox/137.0","","Firefox","137.0","Windows","10.0","https://hz8g1ckzuq.cognition.run/","en-US,en;q=0.5","pxbrxxhmrubg7gt","45","[""White""]","No","Female","1367062","null","","<p></p>","null","rating","tdc","repulsion_2","1","televisions","null","null","null","null","null","null","2","","","","","","","","","",""
"","","","","","rating_trial","survey-html-form","38","707368","0.0-3.0-1.17","200","1","2025-04-14 14:51:55","bb671e3ae32f654b8954ea4c4635f915","","Mozilla/5.0 (Windows NT 10.0; Win64; x64; rv:137.0) Gecko/20100101 Firefox/137.0","","Firefox","137.0","Windows","10.0","https://hz8g1ckzuq.cognition.run/","en-US,en;q=0.5","pxbrxxhmrubg7gt","45","[""White""]","No","Female","1367062","22449","","","{""price_1"":""33"",""price_2"":""27"",""price_3"":""13""}","rating","tdc","repulsion_2","1","televisions","null","null","null","null","null","null","2","100","90","100","30","40","20","Screen size","Average lifespan","",""
"","","","","","rating_trial_setup","html-keyboard-response","39","707675","0.0-3.0-0.18","200","1","2025-04-14 14:51:55","bb671e3ae32f654b8954ea4c4635f915","","Mozilla/5.0 (Windows NT 10.0; Win64; x64; rv:137.0) Gecko/20100101 Firefox/137.0","","Firefox","137.0","Windows","10.0","https://hz8g1ckzuq.cognition.run/","en-US,en;q=0.5","pxbrxxhmrubg7gt","45","[""White""]","No","Female","1367062","null","","<p></p>","null","rating","tcd","repulsion_1","2","laptops","null","null","null","null","null","null","1","","","","","","","","","",""
"","","","","","rating_trial","survey-html-form","40","721411","0.0-3.0-1.18","200","1","2025-04-14 14:51:55","bb671e3ae32f654b8954ea4c4635f915","","Mozilla/5.0 (Windows NT 10.0; Win64; x64; rv:137.0) Gecko/20100101 Firefox/137.0","","Firefox","137.0","Windows","10.0","https://hz8g1ckzuq.cognition.run/","en-US,en;q=0.5","pxbrxxhmrubg7gt","45","[""White""]","No","Female","1367062","13719","","","{""price_1"":""35"",""price_2"":""37"",""price_3"":""26""}","rating","tcd","repulsion_1","2","laptops","null","null","null","null","null","null","1","30","40","25","100","90","100","Processing speed","Memory (RAM)","",""
"","","","","","rating_trial_setup","html-keyboard-response","41","721720","0.0-3.0-0.19","200","1","2025-04-14 14:51:55","bb671e3ae32f654b8954ea4c4635f915","","Mozilla/5.0 (Windows NT 10.0; Win64; x64; rv:137.0) Gecko/20100101 Firefox/137.0","","Firefox","137.0","Windows","10.0","https://hz8g1ckzuq.cognition.run/","en-US,en;q=0.5","pxbrxxhmrubg7gt","45","[""White""]","No","Female","1367062","null","","<p></p>","null","rating","ctd","attraction_2","2","laptops","null","null","null","null","null","null","2","","","","","","","","","",""
"","","","","","rating_trial","survey-html-form","42","736423","0.0-3.0-1.19","200","1","2025-04-14 14:51:55","bb671e3ae32f654b8954ea4c4635f915","","Mozilla/5.0 (Windows NT 10.0; Win64; x64; rv:137.0) Gecko/20100101 Firefox/137.0","","Firefox","137.0","Windows","10.0","https://hz8g1ckzuq.cognition.run/","en-US,en;q=0.5","pxbrxxhmrubg7gt","45","[""White""]","No","Female","1367062","14695","","","{""price_1"":""30"",""price_2"":""34"",""price_3"":""37""}","rating","ctd","attraction_2","2","laptops","null","null","null","null","null","null","2","50","60","40","60","50","60","Processing speed","Memory (RAM)","",""
"","","","","","rating_trial_setup","html-keyboard-response","43","736740","0.0-3.0-0.20","200","1","2025-04-14 14:51:55","bb671e3ae32f654b8954ea4c4635f915","","Mozilla/5.0 (Windows NT 10.0; Win64; x64; rv:137.0) Gecko/20100101 Firefox/137.0","","Firefox","137.0","Windows","10.0","https://hz8g1ckzuq.cognition.run/","en-US,en;q=0.5","pxbrxxhmrubg7gt","45","[""White""]","No","Female","1367062","null","","<p></p>","null","rating","tcd","repulsion_2","2","televisions","null","null","null","null","null","null","2","","","","","","","","","",""
"","","","","","rating_trial","survey-html-form","44","759872","0.0-3.0-1.20","200","1","2025-04-14 14:51:55","bb671e3ae32f654b8954ea4c4635f915","","Mozilla/5.0 (Windows NT 10.0; Win64; x64; rv:137.0) Gecko/20100101 Firefox/137.0","","Firefox","137.0","Windows","10.0","https://hz8g1ckzuq.cognition.run/","en-US,en;q=0.5","pxbrxxhmrubg7gt","45","[""White""]","No","Female","1367062","23128","","","{""price_1"":""45"",""price_2"":""49"",""price_3"":""55""}","rating","tcd","repulsion_2","2","televisions","null","null","null","null","null","null","2","30","40","20","100","90","100","Screen size","Average lifespan","",""
"","","","","","rating_trial_setup","html-keyboard-response","45","760191","0.0-3.0-0.21","200","1","2025-04-14 14:51:55","bb671e3ae32f654b8954ea4c4635f915","","Mozilla/5.0 (Windows NT 10.0; Win64; x64; rv:137.0) Gecko/20100101 Firefox/137.0","","Firefox","137.0","Windows","10.0","https://hz8g1ckzuq.cognition.run/","en-US,en;q=0.5","pxbrxxhmrubg7gt","45","[""White""]","No","Female","1367062","null","","<p></p>","null","rating","tcd","repulsion_1","1","televisions","null","null","null","null","null","null","2","","","","","","","","","",""
"","","","","","rating_trial","survey-html-form","46","776708","0.0-3.0-1.21","200","1","2025-04-14 14:51:55","bb671e3ae32f654b8954ea4c4635f915","","Mozilla/5.0 (Windows NT 10.0; Win64; x64; rv:137.0) Gecko/20100101 Firefox/137.0","","Firefox","137.0","Windows","10.0","https://hz8g1ckzuq.cognition.run/","en-US,en;q=0.5","pxbrxxhmrubg7gt","45","[""White""]","No","Female","1367062","16506","","","{""price_1"":""35"",""price_2"":""35"",""price_3"":""30""}","rating","tcd","repulsion_1","1","televisions","null","null","null","null","null","null","2","100","90","100","30","40","25","Screen size","Average lifespan","",""
"","","","","","rating_trial_setup","html-keyboard-response","47","777030","0.0-3.0-0.22","200","1","2025-04-14 14:51:55","bb671e3ae32f654b8954ea4c4635f915","","Mozilla/5.0 (Windows NT 10.0; Win64; x64; rv:137.0) Gecko/20100101 Firefox/137.0","","Firefox","137.0","Windows","10.0","https://hz8g1ckzuq.cognition.run/","en-US,en;q=0.5","pxbrxxhmrubg7gt","45","[""White""]","No","Female","1367062","null","","<p></p>","null","rating","ctd","repulsion_1","2","washing machines","null","null","null","null","null","null","2","","","","","","","","","",""
"","","","","","rating_trial","survey-html-form","48","801847","0.0-3.0-1.22","200","1","2025-04-14 14:51:55","bb671e3ae32f654b8954ea4c4635f915","","Mozilla/5.0 (Windows NT 10.0; Win64; x64; rv:137.0) Gecko/20100101 Firefox/137.0","","Firefox","137.0","Windows","10.0","https://hz8g1ckzuq.cognition.run/","en-US,en;q=0.5","pxbrxxhmrubg7gt","45","[""White""]","No","Female","1367062","24808","","","{""price_1"":""50"",""price_2"":""50"",""price_3"":""50""}","rating","ctd","repulsion_1","2","washing machines","null","null","null","null","null","null","2","30","40","25","100","90","100","Average lifespan","Energy savings","",""
"","","","","","rating_trial_setup","html-keyboard-response","49","802164","0.0-3.0-0.23","200","1","2025-04-14 14:51:55","bb671e3ae32f654b8954ea4c4635f915","","Mozilla/5.0 (Windows NT 10.0; Win64; x64; rv:137.0) Gecko/20100101 Firefox/137.0","","Firefox","137.0","Windows","10.0","https://hz8g1ckzuq.cognition.run/","en-US,en;q=0.5","pxbrxxhmrubg7gt","45","[""White""]","No","Female","1367062","null","","<p></p>","null","rating","ctd","repulsion_1","1","microwave ovens","null","null","null","null","null","null","2","","","","","","","","","",""
"","","","","","rating_trial","survey-html-form","50","816435","0.0-3.0-1.23","200","1","2025-04-14 14:51:55","bb671e3ae32f654b8954ea4c4635f915","","Mozilla/5.0 (Windows NT 10.0; Win64; x64; rv:137.0) Gecko/20100101 Firefox/137.0","","Firefox","137.0","Windows","10.0","https://hz8g1ckzuq.cognition.run/","en-US,en;q=0.5","pxbrxxhmrubg7gt","45","[""White""]","No","Female","1367062","14268","","","{""price_1"":""15"",""price_2"":""15"",""price_3"":""15""}","rating","ctd","repulsion_1","1","microwave ovens","null","null","null","null","null","null","2","100","90","100","30","40","25","Warranty","Cooking power","",""
"","","","","","rating_trial_setup","html-keyboard-response","51","816743","0.0-3.0-0.24","200","1","2025-04-14 14:51:55","bb671e3ae32f654b8954ea4c4635f915","","Mozilla/5.0 (Windows NT 10.0; Win64; x64; rv:137.0) Gecko/20100101 Firefox/137.0","","Firefox","137.0","Windows","10.0","https://hz8g1ckzuq.cognition.run/","en-US,en;q=0.5","pxbrxxhmrubg7gt","45","[""White""]","No","Female","1367062","null","","<p></p>","null","rating","dct","attraction_2","2","washing machines","null","null","null","null","null","null","1","","","","","","","","","",""
"","","","","","rating_trial","survey-html-form","52","832568","0.0-3.0-1.24","200","1","2025-04-14 14:51:55","bb671e3ae32f654b8954ea4c4635f915","","Mozilla/5.0 (Windows NT 10.0; Win64; x64; rv:137.0) Gecko/20100101 Firefox/137.0","","Firefox","137.0","Windows","10.0","https://hz8g1ckzuq.cognition.run/","en-US,en;q=0.5","pxbrxxhmrubg7gt","45","[""White""]","No","Female","1367062","15814","","","{""price_1"":""20"",""price_2"":""25"",""price_3"":""30""}","rating","dct","attraction_2","2","washing machines","null","null","null","null","null","null","1","50","60","40","60","50","60","Average lifespan","Energy savings","",""
"","","","","","rating_trial_setup","html-keyboard-response","53","832880","0.0-3.0-0.25","200","1","2025-04-14 14:51:55","bb671e3ae32f654b8954ea4c4635f915","","Mozilla/5.0 (Windows NT 10.0; Win64; x64; rv:137.0) Gecko/20100101 Firefox/137.0","","Firefox","137.0","Windows","10.0","https://hz8g1ckzuq.cognition.run/","en-US,en;q=0.5","pxbrxxhmrubg7gt","45","[""White""]","No","Female","1367062","null","","<p></p>","null","rating","dct","attraction_1","2","washing machines","null","null","null","null","null","null","1","","","","","","","","","",""
"","","","","","rating_trial","survey-html-form","54","851403","0.0-3.0-1.25","200","1","2025-04-14 14:51:55","bb671e3ae32f654b8954ea4c4635f915","","Mozilla/5.0 (Windows NT 10.0; Win64; x64; rv:137.0) Gecko/20100101 Firefox/137.0","","Firefox","137.0","Windows","10.0","https://hz8g1ckzuq.cognition.run/","en-US,en;q=0.5","pxbrxxhmrubg7gt","45","[""White""]","No","Female","1367062","18512","","","{""price_1"":""20"",""price_2"":""27"",""price_3"":""30""}","rating","dct","attraction_1","2","washing machines","null","null","null","null","null","null","1","50","60","45","60","50","60","Average lifespan","Energy savings","",""
"","","","","","rating_trial_setup","html-keyboard-response","55","851721","0.0-3.0-0.26","200","1","2025-04-14 14:51:55","bb671e3ae32f654b8954ea4c4635f915","","Mozilla/5.0 (Windows NT 10.0; Win64; x64; rv:137.0) Gecko/20100101 Firefox/137.0","","Firefox","137.0","Windows","10.0","https://hz8g1ckzuq.cognition.run/","en-US,en;q=0.5","pxbrxxhmrubg7gt","45","[""White""]","No","Female","1367062","null","","<p></p>","null","rating","bww","catch","null","televisions","90","55","15","50","20","45","1","","","","","","","","","",""
"","","","","","rating_trial","survey-html-form","56","864108","0.0-3.0-1.26","200","1","2025-04-14 14:51:55","bb671e3ae32f654b8954ea4c4635f915","","Mozilla/5.0 (Windows NT 10.0; Win64; x64; rv:137.0) Gecko/20100101 Firefox/137.0","","Firefox","137.0","Windows","10.0","https://hz8g1ckzuq.cognition.run/","en-US,en;q=0.5","pxbrxxhmrubg7gt","45","[""White""]","No","Female","1367062","12376","","","{""price_1"":""21"",""price_2"":""25"",""price_3"":""22""}","rating","bww","catch","null","televisions","90","55","15","50","20","45","1","null","null","null","null","null","null","Screen size","Average lifespan","",""
"","","","","","rating_trial_setup","html-keyboard-response","57","864414","0.0-3.0-0.27","200","1","2025-04-14 14:51:55","bb671e3ae32f654b8954ea4c4635f915","","Mozilla/5.0 (Windows NT 10.0; Win64; x64; rv:137.0) Gecko/20100101 Firefox/137.0","","Firefox","137.0","Windows","10.0","https://hz8g1ckzuq.cognition.run/","en-US,en;q=0.5","pxbrxxhmrubg7gt","45","[""White""]","No","Female","1367062","null","","<p></p>","null","rating","dct","repulsion_2","1","microwave ovens","null","null","null","null","null","null","1","","","","","","","","","",""
"","","","","","rating_trial","survey-html-form","58","879288","0.0-3.0-1.27","200","1","2025-04-14 14:51:55","bb671e3ae32f654b8954ea4c4635f915","","Mozilla/5.0 (Windows NT 10.0; Win64; x64; rv:137.0) Gecko/20100101 Firefox/137.0","","Firefox","137.0","Windows","10.0","https://hz8g1ckzuq.cognition.run/","en-US,en;q=0.5","pxbrxxhmrubg7gt","45","[""White""]","No","Female","1367062","14866","","","{""price_1"":""10"",""price_2"":""10"",""price_3"":""10""}","rating","dct","repulsion_2","1","microwave ovens","null","null","null","null","null","null","1","100","90","100","30","40","20","Warranty","Cooking power","",""
"","","","","","rating_trial_setup","html-keyboard-response","59","879605","0.0-3.0-0.28","200","1","2025-04-14 14:51:55","bb671e3ae32f654b8954ea4c4635f915","","Mozilla/5.0 (Windows NT 10.0; Win64; x64; rv:137.0) Gecko/20100101 Firefox/137.0","","Firefox","137.0","Windows","10.0","https://hz8g1ckzuq.cognition.run/","en-US,en;q=0.5","pxbrxxhmrubg7gt","45","[""White""]","No","Female","1367062","null","","<p></p>","null","rating","dtc","attraction_1","1","washing machines","null","null","null","null","null","null","1","","","","","","","","","",""
"","","","","","rating_trial","survey-html-form","60","901224","0.0-3.0-1.28","200","1","2025-04-14 14:51:55","bb671e3ae32f654b8954ea4c4635f915","","Mozilla/5.0 (Windows NT 10.0; Win64; x64; rv:137.0) Gecko/20100101 Firefox/137.0","","Firefox","137.0","Windows","10.0","https://hz8g1ckzuq.cognition.run/","en-US,en;q=0.5","pxbrxxhmrubg7gt","45","[""White""]","No","Female","1367062","21613","","","{""price_1"":""50"",""price_2"":""50"",""price_3"":""50""}","rating","dtc","attraction_1","1","washing machines","null","null","null","null","null","null","1","60","50","60","50","60","45","Average lifespan","Energy savings","",""
"","","","","","rating_trial_setup","html-keyboard-response","61","901538","0.0-3.0-0.29","200","1","2025-04-14 14:51:55","bb671e3ae32f654b8954ea4c4635f915","","Mozilla/5.0 (Windows NT 10.0; Win64; x64; rv:137.0) Gecko/20100101 Firefox/137.0","","Firefox","137.0","Windows","10.0","https://hz8g1ckzuq.cognition.run/","en-US,en;q=0.5","pxbrxxhmrubg7gt","45","[""White""]","No","Female","1367062","null","","<p></p>","null","rating","ctd","repulsion_2","1","washing machines","null","null","null","null","null","null","2","","","","","","","","","",""
"","","","","","rating_trial","survey-html-form","62","913240","0.0-3.0-1.29","200","1","2025-04-14 14:51:55","bb671e3ae32f654b8954ea4c4635f915","","Mozilla/5.0 (Windows NT 10.0; Win64; x64; rv:137.0) Gecko/20100101 Firefox/137.0","","Firefox","137.0","Windows","10.0","https://hz8g1ckzuq.cognition.run/","en-US,en;q=0.5","pxbrxxhmrubg7gt","45","[""White""]","No","Female","1367062","11698","","","{""price_1"":""20"",""price_2"":""21"",""price_3"":""24""}","rating","ctd","repulsion_2","1","washing machines","null","null","null","null","null","null","2","100","90","100","30","40","20","Average lifespan","Energy savings","",""
"","","","","","rating_trial_setup","html-keyboard-response","63","913584","0.0-3.0-0.30","200","1","2025-04-14 14:51:55","bb671e3ae32f654b8954ea4c4635f915","","Mozilla/5.0 (Windows NT 10.0; Win64; x64; rv:137.0) Gecko/20100101 Firefox/137.0","","Firefox","137.0","Windows","10.0","https://hz8g1ckzuq.cognition.run/","en-US,en;q=0.5","pxbrxxhmrubg7gt","45","[""White""]","No","Female","1367062","null","","<p></p>","null","rating","tdc","attraction_2","2","microwave ovens","null","null","null","null","null","null","2","","","","","","","","","",""
"","","","","","rating_trial","survey-html-form","64","921764","0.0-3.0-1.30","200","1","2025-04-14 14:51:55","bb671e3ae32f654b8954ea4c4635f915","","Mozilla/5.0 (Windows NT 10.0; Win64; x64; rv:137.0) Gecko/20100101 Firefox/137.0","","Firefox","137.0","Windows","10.0","https://hz8g1ckzuq.cognition.run/","en-US,en;q=0.5","pxbrxxhmrubg7gt","45","[""White""]","No","Female","1367062","8171","","","{""price_1"":""5"",""price_2"":""6"",""price_3"":""6""}","rating","tdc","attraction_2","2","microwave ovens","null","null","null","null","null","null","2","50","60","40","60","50","60","Warranty","Cooking power","",""
"","","","","","rating_trial_setup","html-keyboard-response","65","922076","0.0-3.0-0.31","200","1","2025-04-14 14:51:55","bb671e3ae32f654b8954ea4c4635f915","","Mozilla/5.0 (Windows NT 10.0; Win64; x64; rv:137.0) Gecko/20100101 Firefox/137.0","","Firefox","137.0","Windows","10.0","https://hz8g1ckzuq.cognition.run/","en-US,en;q=0.5","pxbrxxhmrubg7gt","45","[""White""]","No","Female","1367062","null","","<p></p>","null","rating","cdt","attraction_2","2","televisions","null","null","null","null","null","null","1","","","","","","","","","",""
"","","","","","rating_trial","survey-html-form","66","934301","0.0-3.0-1.31","200","1","2025-04-14 14:51:55","bb671e3ae32f654b8954ea4c4635f915","","Mozilla/5.0 (Windows NT 10.0; Win64; x64; rv:137.0) Gecko/20100101 Firefox/137.0","","Firefox","137.0","Windows","10.0","https://hz8g1ckzuq.cognition.run/","en-US,en;q=0.5","pxbrxxhmrubg7gt","45","[""White""]","No","Female","1367062","12210","","","{""price_1"":""15"",""price_2"":""13"",""price_3"":""14""}","rating","cdt","attraction_2","2","televisions","null","null","null","null","null","null","1","50","60","40","60","50","60","Screen size","Average lifespan","",""
"","","","","","rating_trial_setup","html-keyboard-response","67","934612","0.0-3.0-0.32","200","1","2025-04-14 14:51:55","bb671e3ae32f654b8954ea4c4635f915","","Mozilla/5.0 (Windows NT 10.0; Win64; x64; rv:137.0) Gecko/20100101 Firefox/137.0","","Firefox","137.0","Windows","10.0","https://hz8g1ckzuq.cognition.run/","en-US,en;q=0.5","pxbrxxhmrubg7gt","45","[""White""]","No","Female","1367062","null","","<p></p>","null","rating","dct","repulsion_2","1","laptops","null","null","null","null","null","null","1","","","","","","","","","",""
"","","","","","rating_trial","survey-html-form","68","946212","0.0-3.0-1.32","200","1","2025-04-14 14:51:55","bb671e3ae32f654b8954ea4c4635f915","","Mozilla/5.0 (Windows NT 10.0; Win64; x64; rv:137.0) Gecko/20100101 Firefox/137.0","","Firefox","137.0","Windows","10.0","https://hz8g1ckzuq.cognition.run/","en-US,en;q=0.5","pxbrxxhmrubg7gt","45","[""White""]","No","Female","1367062","11592","","","{""price_1"":""21"",""price_2"":""22"",""price_3"":""25""}","rating","dct","repulsion_2","1","laptops","null","null","null","null","null","null","1","100","90","100","30","40","20","Processing speed","Memory (RAM)","",""
"","","","","","rating_trial_setup","html-keyboard-response","69","946520","0.0-3.0-0.33","200","1","2025-04-14 14:51:55","bb671e3ae32f654b8954ea4c4635f915","","Mozilla/5.0 (Windows NT 10.0; Win64; x64; rv:137.0) Gecko/20100101 Firefox/137.0","","Firefox","137.0","Windows","10.0","https://hz8g1ckzuq.cognition.run/","en-US,en;q=0.5","pxbrxxhmrubg7gt","45","[""White""]","No","Female","1367062","null","","<p></p>","null","rating","ctd","attraction_2","1","televisions","null","null","null","null","null","null","1","","","","","","","","","",""
"","","","","","rating_trial","survey-html-form","70","954737","0.0-3.0-1.33","200","1","2025-04-14 14:51:55","bb671e3ae32f654b8954ea4c4635f915","","Mozilla/5.0 (Windows NT 10.0; Win64; x64; rv:137.0) Gecko/20100101 Firefox/137.0","","Firefox","137.0","Windows","10.0","https://hz8g1ckzuq.cognition.run/","en-US,en;q=0.5","pxbrxxhmrubg7gt","45","[""White""]","No","Female","1367062","8209","","","{""price_1"":""9"",""price_2"":""14"",""price_3"":""13""}","rating","ctd","attraction_2","1","televisions","null","null","null","null","null","null","1","60","50","60","50","60","40","Screen size","Average lifespan","",""
"","","","","","rating_trial_setup","html-keyboard-response","71","955048","0.0-3.0-0.34","200","1","2025-04-14 14:51:55","bb671e3ae32f654b8954ea4c4635f915","","Mozilla/5.0 (Windows NT 10.0; Win64; x64; rv:137.0) Gecko/20100101 Firefox/137.0","","Firefox","137.0","Windows","10.0","https://hz8g1ckzuq.cognition.run/","en-US,en;q=0.5","pxbrxxhmrubg7gt","45","[""White""]","No","Female","1367062","null","","<p></p>","null","rating","ctd","attraction_1","2","televisions","null","null","null","null","null","null","1","","","","","","","","","",""
"","","","","","rating_trial","survey-html-form","72","966000","0.0-3.0-1.34","200","1","2025-04-14 14:51:55","bb671e3ae32f654b8954ea4c4635f915","","Mozilla/5.0 (Windows NT 10.0; Win64; x64; rv:137.0) Gecko/20100101 Firefox/137.0","","Firefox","137.0","Windows","10.0","https://hz8g1ckzuq.cognition.run/","en-US,en;q=0.5","pxbrxxhmrubg7gt","45","[""White""]","No","Female","1367062","10941","","","{""price_1"":""5"",""price_2"":""8"",""price_3"":""10""}","rating","ctd","attraction_1","2","televisions","null","null","null","null","null","null","1","50","60","45","60","50","60","Screen size","Average lifespan","",""
"","","","","","rating_trial_setup","html-keyboard-response","73","966315","0.0-3.0-0.35","200","1","2025-04-14 14:51:55","bb671e3ae32f654b8954ea4c4635f915","","Mozilla/5.0 (Windows NT 10.0; Win64; x64; rv:137.0) Gecko/20100101 Firefox/137.0","","Firefox","137.0","Windows","10.0","https://hz8g1ckzuq.cognition.run/","en-US,en;q=0.5","pxbrxxhmrubg7gt","45","[""White""]","No","Female","1367062","null","","<p></p>","null","rating","bww","catch","null","washing machines","70","70","30","20","10","35","1","","","","","","","","","",""
"","","","","","rating_trial","survey-html-form","74","978048","0.0-3.0-1.35","200","1","2025-04-14 14:51:55","bb671e3ae32f654b8954ea4c4635f915","","Mozilla/5.0 (Windows NT 10.0; Win64; x64; rv:137.0) Gecko/20100101 Firefox/137.0","","Firefox","137.0","Windows","10.0","https://hz8g1ckzuq.cognition.run/","en-US,en;q=0.5","pxbrxxhmrubg7gt","45","[""White""]","No","Female","1367062","11719","","","{""price_1"":""19"",""price_2"":""19"",""price_3"":""19""}","rating","bww","catch","null","washing machines","70","70","30","20","10","35","1","null","null","null","null","null","null","Average lifespan","Energy savings","",""
"","","","","","rating_trial_setup","html-keyboard-response","75","978366","0.0-3.0-0.36","200","1","2025-04-14 14:51:55","bb671e3ae32f654b8954ea4c4635f915","","Mozilla/5.0 (Windows NT 10.0; Win64; x64; rv:137.0) Gecko/20100101 Firefox/137.0","","Firefox","137.0","Windows","10.0","https://hz8g1ckzuq.cognition.run/","en-US,en;q=0.5","pxbrxxhmrubg7gt","45","[""White""]","No","Female","1367062","null","","<p></p>","null","rating","tdc","repulsion_2","2","microwave ovens","null","null","null","null","null","null","1","","","","","","","","","",""
"","","","","","rating_trial","survey-html-form","76","985929","0.0-3.0-1.36","200","1","2025-04-14 14:51:55","bb671e3ae32f654b8954ea4c4635f915","","Mozilla/5.0 (Windows NT 10.0; Win64; x64; rv:137.0) Gecko/20100101 Firefox/137.0","","Firefox","137.0","Windows","10.0","https://hz8g1ckzuq.cognition.run/","en-US,en;q=0.5","pxbrxxhmrubg7gt","45","[""White""]","No","Female","1367062","7559","","","{""price_1"":""5"",""price_2"":""6"",""price_3"":""5""}","rating","tdc","repulsion_2","2","microwave ovens","null","null","null","null","null","null","1","30","40","20","100","90","100","Warranty","Cooking power","",""
"","","","","","rating_trial_setup","html-keyboard-response","77","986248","0.0-3.0-0.37","200","1","2025-04-14 14:51:55","bb671e3ae32f654b8954ea4c4635f915","","Mozilla/5.0 (Windows NT 10.0; Win64; x64; rv:137.0) Gecko/20100101 Firefox/137.0","","Firefox","137.0","Windows","10.0","https://hz8g1ckzuq.cognition.run/","en-US,en;q=0.5","pxbrxxhmrubg7gt","45","[""White""]","No","Female","1367062","null","","<p></p>","null","rating","wbw","catch","null","laptops","95","80","35","50","5","40","2","","","","","","","","","",""
"","","","","","rating_trial","survey-html-form","78","996448","0.0-3.0-1.37","200","1","2025-04-14 14:51:55","bb671e3ae32f654b8954ea4c4635f915","","Mozilla/5.0 (Windows NT 10.0; Win64; x64; rv:137.0) Gecko/20100101 Firefox/137.0","","Firefox","137.0","Windows","10.0","https://hz8g1ckzuq.cognition.run/","en-US,en;q=0.5","pxbrxxhmrubg7gt","45","[""White""]","No","Female","1367062","10189","","","{""price_1"":""10"",""price_2"":""10"",""price_3"":""10""}","rating","wbw","catch","null","laptops","95","80","35","50","5","40","2","null","null","null","null","null","null","Processing speed","Memory (RAM)","",""
"","","","","","rating_trial_setup","html-keyboard-response","79","996764","0.0-3.0-0.38","200","1","2025-04-14 14:51:55","bb671e3ae32f654b8954ea4c4635f915","","Mozilla/5.0 (Windows NT 10.0; Win64; x64; rv:137.0) Gecko/20100101 Firefox/137.0","","Firefox","137.0","Windows","10.0","https://hz8g1ckzuq.cognition.run/","en-US,en;q=0.5","pxbrxxhmrubg7gt","45","[""White""]","No","Female","1367062","null","","<p></p>","null","rating","wbw","catch","null","televisions","95","60","25","35","35","15","2","","","","","","","","","",""
"","","","","","rating_trial","survey-html-form","80","1005372","0.0-3.0-1.38","200","1","2025-04-14 14:51:55","bb671e3ae32f654b8954ea4c4635f915","","Mozilla/5.0 (Windows NT 10.0; Win64; x64; rv:137.0) Gecko/20100101 Firefox/137.0","","Firefox","137.0","Windows","10.0","https://hz8g1ckzuq.cognition.run/","en-US,en;q=0.5","pxbrxxhmrubg7gt","45","[""White""]","No","Female","1367062","8602","","","{""price_1"":""17"",""price_2"":""17"",""price_3"":""22""}","rating","wbw","catch","null","televisions","95","60","25","35","35","15","2","null","null","null","null","null","null","Screen size","Average lifespan","",""
"","","","","","rating_trial_setup","html-keyboard-response","81","1005690","0.0-3.0-0.39","200","1","2025-04-14 14:51:55","bb671e3ae32f654b8954ea4c4635f915","","Mozilla/5.0 (Windows NT 10.0; Win64; x64; rv:137.0) Gecko/20100101 Firefox/137.0","","Firefox","137.0","Windows","10.0","https://hz8g1ckzuq.cognition.run/","en-US,en;q=0.5","pxbrxxhmrubg7gt","45","[""White""]","No","Female","1367062","null","","<p></p>","null","rating","tdc","attraction_1","2","laptops","null","null","null","null","null","null","2","","","","","","","","","",""
"","","","","","rating_trial","survey-html-form","82","1013803","0.0-3.0-1.39","200","1","2025-04-14 14:51:55","bb671e3ae32f654b8954ea4c4635f915","","Mozilla/5.0 (Windows NT 10.0; Win64; x64; rv:137.0) Gecko/20100101 Firefox/137.0","","Firefox","137.0","Windows","10.0","https://hz8g1ckzuq.cognition.run/","en-US,en;q=0.5","pxbrxxhmrubg7gt","45","[""White""]","No","Female","1367062","8097","","","{""price_1"":""19"",""price_2"":""20"",""price_3"":""24""}","rating","tdc","attraction_1","2","laptops","null","null","null","null","null","null","2","50","60","45","60","50","60","Processing speed","Memory (RAM)","",""
"","","","","","","instructions","83","1044200","0.0-4.0","200","1","2025-04-14 14:51:55","bb671e3ae32f654b8954ea4c4635f915","","Mozilla/5.0 (Windows NT 10.0; Win64; x64; rv:137.0) Gecko/20100101 Firefox/137.0","","Firefox","137.0","Windows","10.0","https://hz8g1ckzuq.cognition.run/","en-US,en;q=0.5","pxbrxxhmrubg7gt","45","[""White""]","No","Female","1367062","30393","[{""page_index"":0,""viewing_time"":1761},{""page_index"":1,""viewing_time"":1098},{""page_index"":2,""viewing_time"":2209},{""page_index"":3,""viewing_time"":3720},{""page_index"":4,""viewing_time"":5811},{""page_index"":5,""viewing_time"":3489},{""page_index"":6,""viewing_time"":5432},{""page_index"":7,""viewing_time"":6872}]","","","","","","","","","","","","","","","","","","","","","","","",""
"","","","","","choice_trial_setup","html-keyboard-response","84","1044516","0.0-5.0-0.0","200","1","2025-04-14 14:51:55","bb671e3ae32f654b8954ea4c4635f915","","Mozilla/5.0 (Windows NT 10.0; Win64; x64; rv:137.0) Gecko/20100101 Firefox/137.0","","Firefox","137.0","Windows","10.0","https://hz8g1ckzuq.cognition.run/","en-US,en;q=0.5","pxbrxxhmrubg7gt","45","[""White""]","No","Female","1367062","null","","<p></p>","null","choice","tdc","repulsion_1","1","televisions","null","null","null","null","null","null","2","","","","","","","","","",""
"","","","","","choice_trial","survey-html-form","85","1064156","0.0-5.0-1.0","200","1","2025-04-14 14:51:55","bb671e3ae32f654b8954ea4c4635f915","","Mozilla/5.0 (Windows NT 10.0; Win64; x64; rv:137.0) Gecko/20100101 Firefox/137.0","","Firefox","137.0","Windows","10.0","https://hz8g1ckzuq.cognition.run/","en-US,en;q=0.5","pxbrxxhmrubg7gt","45","[""White""]","No","Female","1367062","19631","","","{""product_choice"":""C""}","choice","tdc","repulsion_1","1","televisions","null","null","null","null","null","null","2","100","90","100","30","40","25","Screen size","Average lifespan","",""
"","","","","","choice_trial_setup","html-keyboard-response","86","1064460","0.0-5.0-0.1","200","1","2025-04-14 14:51:55","bb671e3ae32f654b8954ea4c4635f915","","Mozilla/5.0 (Windows NT 10.0; Win64; x64; rv:137.0) Gecko/20100101 Firefox/137.0","","Firefox","137.0","Windows","10.0","https://hz8g1ckzuq.cognition.run/","en-US,en;q=0.5","pxbrxxhmrubg7gt","45","[""White""]","No","Female","1367062","null","","<p></p>","null","choice","tdc","attraction_2","2","televisions","null","null","null","null","null","null","1","","","","","","","","","",""
"","","","","","choice_trial","survey-html-form","87","1077120","0.0-5.0-1.1","200","1","2025-04-14 14:51:55","bb671e3ae32f654b8954ea4c4635f915","","Mozilla/5.0 (Windows NT 10.0; Win64; x64; rv:137.0) Gecko/20100101 Firefox/137.0","","Firefox","137.0","Windows","10.0","https://hz8g1ckzuq.cognition.run/","en-US,en;q=0.5","pxbrxxhmrubg7gt","45","[""White""]","No","Female","1367062","12650","","","{""product_choice"":""C""}","choice","tdc","attraction_2","2","televisions","null","null","null","null","null","null","1","50","60","40","60","50","60","Screen size","Average lifespan","",""
"","","","","","choice_trial_setup","html-keyboard-response","88","1077426","0.0-5.0-0.2","200","1","2025-04-14 14:51:55","bb671e3ae32f654b8954ea4c4635f915","","Mozilla/5.0 (Windows NT 10.0; Win64; x64; rv:137.0) Gecko/20100101 Firefox/137.0","","Firefox","137.0","Windows","10.0","https://hz8g1ckzuq.cognition.run/","en-US,en;q=0.5","pxbrxxhmrubg7gt","45","[""White""]","No","Female","1367062","null","","<p></p>","null","choice","dct","repulsion_1","1","washing machines","null","null","null","null","null","null","1","","","","","","","","","",""
"","","","","","choice_trial","survey-html-form","89","1086512","0.0-5.0-1.2","200","1","2025-04-14 14:51:55","bb671e3ae32f654b8954ea4c4635f915","","Mozilla/5.0 (Windows NT 10.0; Win64; x64; rv:137.0) Gecko/20100101 Firefox/137.0","","Firefox","137.0","Windows","10.0","https://hz8g1ckzuq.cognition.run/","en-US,en;q=0.5","pxbrxxhmrubg7gt","45","[""White""]","No","Female","1367062","9076","","","{""product_choice"":""B""}","choice","dct","repulsion_1","1","washing machines","null","null","null","null","null","null","1","100","90","100","30","40","25","Average lifespan","Energy savings","",""
"","","","","","choice_trial_setup","html-keyboard-response","90","1086827","0.0-5.0-0.3","200","1","2025-04-14 14:51:55","bb671e3ae32f654b8954ea4c4635f915","","Mozilla/5.0 (Windows NT 10.0; Win64; x64; rv:137.0) Gecko/20100101 Firefox/137.0","","Firefox","137.0","Windows","10.0","https://hz8g1ckzuq.cognition.run/","en-US,en;q=0.5","pxbrxxhmrubg7gt","45","[""White""]","No","Female","1367062","null","","<p></p>","null","choice","tdc","attraction_2","2","washing machines","null","null","null","null","null","null","1","","","","","","","","","",""
"","","","","","choice_trial","survey-html-form","91","1100596","0.0-5.0-1.3","200","1","2025-04-14 14:51:55","bb671e3ae32f654b8954ea4c4635f915","","Mozilla/5.0 (Windows NT 10.0; Win64; x64; rv:137.0) Gecko/20100101 Firefox/137.0","","Firefox","137.0","Windows","10.0","https://hz8g1ckzuq.cognition.run/","en-US,en;q=0.5","pxbrxxhmrubg7gt","45","[""White""]","No","Female","1367062","13757","","","{""product_choice"":""C""}","choice","tdc","attraction_2","2","washing machines","null","null","null","null","null","null","1","50","60","40","60","50","60","Average lifespan","Energy savings","",""
"","","","","","choice_trial_setup","html-keyboard-response","92","1100904","0.0-5.0-0.4","200","1","2025-04-14 14:51:55","bb671e3ae32f654b8954ea4c4635f915","","Mozilla/5.0 (Windows NT 10.0; Win64; x64; rv:137.0) Gecko/20100101 Firefox/137.0","","Firefox","137.0","Windows","10.0","https://hz8g1ckzuq.cognition.run/","en-US,en;q=0.5","pxbrxxhmrubg7gt","45","[""White""]","No","Female","1367062","null","","<p></p>","null","choice","bww","catch","null","laptops","75","90","25","45","50","5","2","","","","","","","","","",""
"","","","","","choice_trial","survey-html-form","93","1106036","0.0-5.0-1.4","200","1","2025-04-14 14:51:55","bb671e3ae32f654b8954ea4c4635f915","","Mozilla/5.0 (Windows NT 10.0; Win64; x64; rv:137.0) Gecko/20100101 Firefox/137.0","","Firefox","137.0","Windows","10.0","https://hz8g1ckzuq.cognition.run/","en-US,en;q=0.5","pxbrxxhmrubg7gt","45","[""White""]","No","Female","1367062","5119","","","{""product_choice"":""A""}","choice","bww","catch","null","laptops","75","90","25","45","50","5","2","null","null","null","null","null","null","Processing speed","Memory (RAM)","",""
"","","","","","choice_trial_setup","html-keyboard-response","94","1106340","0.0-5.0-0.5","200","1","2025-04-14 14:51:55","bb671e3ae32f654b8954ea4c4635f915","","Mozilla/5.0 (Windows NT 10.0; Win64; x64; rv:137.0) Gecko/20100101 Firefox/137.0","","Firefox","137.0","Windows","10.0","https://hz8g1ckzuq.cognition.run/","en-US,en;q=0.5","pxbrxxhmrubg7gt","45","[""White""]","No","Female","1367062","null","","<p></p>","null","choice","dtc","repulsion_1","2","microwave ovens","null","null","null","null","null","null","2","","","","","","","","","",""
"","","","","","choice_trial","survey-html-form","95","1110766","0.0-5.0-1.5","200","1","2025-04-14 14:51:55","bb671e3ae32f654b8954ea4c4635f915","","Mozilla/5.0 (Windows NT 10.0; Win64; x64; rv:137.0) Gecko/20100101 Firefox/137.0","","Firefox","137.0","Windows","10.0","https://hz8g1ckzuq.cognition.run/","en-US,en;q=0.5","pxbrxxhmrubg7gt","45","[""White""]","No","Female","1367062","4417","","","{""product_choice"":""B""}","choice","dtc","repulsion_1","2","microwave ovens","null","null","null","null","null","null","2","30","40","25","100","90","100","Warranty","Cooking power","",""
"","","","","","choice_trial_setup","html-keyboard-response","96","1111077","0.0-5.0-0.6","200","1","2025-04-14 14:51:55","bb671e3ae32f654b8954ea4c4635f915","","Mozilla/5.0 (Windows NT 10.0; Win64; x64; rv:137.0) Gecko/20100101 Firefox/137.0","","Firefox","137.0","Windows","10.0","https://hz8g1ckzuq.cognition.run/","en-US,en;q=0.5","pxbrxxhmrubg7gt","45","[""White""]","No","Female","1367062","null","","<p></p>","null","choice","ctd","repulsion_1","2","laptops","null","null","null","null","null","null","2","","","","","","","","","",""
"","","","","","choice_trial","survey-html-form","97","1114927","0.0-5.0-1.6","200","1","2025-04-14 14:51:55","bb671e3ae32f654b8954ea4c4635f915","","Mozilla/5.0 (Windows NT 10.0; Win64; x64; rv:137.0) Gecko/20100101 Firefox/137.0","","Firefox","137.0","Windows","10.0","https://hz8g1ckzuq.cognition.run/","en-US,en;q=0.5","pxbrxxhmrubg7gt","45","[""White""]","No","Female","1367062","3827","","","{""product_choice"":""B""}","choice","ctd","repulsion_1","2","laptops","null","null","null","null","null","null","2","30","40","25","100","90","100","Processing speed","Memory (RAM)","",""
"","","","","","choice_trial_setup","html-keyboard-response","98","1115245","0.0-5.0-0.7","200","1","2025-04-14 14:51:55","bb671e3ae32f654b8954ea4c4635f915","","Mozilla/5.0 (Windows NT 10.0; Win64; x64; rv:137.0) Gecko/20100101 Firefox/137.0","","Firefox","137.0","Windows","10.0","https://hz8g1ckzuq.cognition.run/","en-US,en;q=0.5","pxbrxxhmrubg7gt","45","[""White""]","No","Female","1367062","null","","<p></p>","null","choice","dct","repulsion_2","1","microwave ovens","null","null","null","null","null","null","1","","","","","","","","","",""
"","","","","","choice_trial","survey-html-form","99","1119281","0.0-5.0-1.7","200","1","2025-04-14 14:51:55","bb671e3ae32f654b8954ea4c4635f915","","Mozilla/5.0 (Windows NT 10.0; Win64; x64; rv:137.0) Gecko/20100101 Firefox/137.0","","Firefox","137.0","Windows","10.0","https://hz8g1ckzuq.cognition.run/","en-US,en;q=0.5","pxbrxxhmrubg7gt","45","[""White""]","No","Female","1367062","4023","","","{""product_choice"":""C""}","choice","dct","repulsion_2","1","microwave ovens","null","null","null","null","null","null","1","100","90","100","30","40","20","Warranty","Cooking power","",""
"","","","","","choice_trial_setup","html-keyboard-response","100","1119598","0.0-5.0-0.8","200","1","2025-04-14 14:51:55","bb671e3ae32f654b8954ea4c4635f915","","Mozilla/5.0 (Windows NT 10.0; Win64; x64; rv:137.0) Gecko/20100101 Firefox/137.0","","Firefox","137.0","Windows","10.0","https://hz8g1ckzuq.cognition.run/","en-US,en;q=0.5","pxbrxxhmrubg7gt","45","[""White""]","No","Female","1367062","null","","<p></p>","null","choice","dtc","repulsion_1","1","laptops","null","null","null","null","null","null","2","","","","","","","","","",""
"","","","","","choice_trial","survey-html-form","101","1130608","0.0-5.0-1.8","200","1","2025-04-14 14:51:55","bb671e3ae32f654b8954ea4c4635f915","","Mozilla/5.0 (Windows NT 10.0; Win64; x64; rv:137.0) Gecko/20100101 Firefox/137.0","","Firefox","137.0","Windows","10.0","https://hz8g1ckzuq.cognition.run/","en-US,en;q=0.5","pxbrxxhmrubg7gt","45","[""White""]","No","Female","1367062","11001","","","{""product_choice"":""B""}","choice","dtc","repulsion_1","1","laptops","null","null","null","null","null","null","2","100","90","100","30","40","25","Processing speed","Memory (RAM)","",""
"","","","","","choice_trial_setup","html-keyboard-response","102","1130917","0.0-5.0-0.9","200","1","2025-04-14 14:51:55","bb671e3ae32f654b8954ea4c4635f915","","Mozilla/5.0 (Windows NT 10.0; Win64; x64; rv:137.0) Gecko/20100101 Firefox/137.0","","Firefox","137.0","Windows","10.0","https://hz8g1ckzuq.cognition.run/","en-US,en;q=0.5","pxbrxxhmrubg7gt","45","[""White""]","No","Female","1367062","null","","<p></p>","null","choice","tdc","repulsion_1","1","microwave ovens","null","null","null","null","null","null","1","","","","","","","","","",""
"","","","","","choice_trial","survey-html-form","103","1136697","0.0-5.0-1.9","200","1","2025-04-14 14:51:55","bb671e3ae32f654b8954ea4c4635f915","","Mozilla/5.0 (Windows NT 10.0; Win64; x64; rv:137.0) Gecko/20100101 Firefox/137.0","","Firefox","137.0","Windows","10.0","https://hz8g1ckzuq.cognition.run/","en-US,en;q=0.5","pxbrxxhmrubg7gt","45","[""White""]","No","Female","1367062","5771","","","{""product_choice"":""A""}","choice","tdc","repulsion_1","1","microwave ovens","null","null","null","null","null","null","1","100","90","100","30","40","25","Warranty","Cooking power","",""
"","","","","","choice_trial_setup","html-keyboard-response","104","1137012","0.0-5.0-0.10","200","1","2025-04-14 14:51:55","bb671e3ae32f654b8954ea4c4635f915","","Mozilla/5.0 (Windows NT 10.0; Win64; x64; rv:137.0) Gecko/20100101 Firefox/137.0","","Firefox","137.0","Windows","10.0","https://hz8g1ckzuq.cognition.run/","en-US,en;q=0.5","pxbrxxhmrubg7gt","45","[""White""]","No","Female","1367062","null","","<p></p>","null","choice","dtc","attraction_2","1","laptops","null","null","null","null","null","null","1","","","","","","","","","",""
"","","","","","choice_trial","survey-html-form","105","1142792","0.0-5.0-1.10","200","1","2025-04-14 14:51:55","bb671e3ae32f654b8954ea4c4635f915","","Mozilla/5.0 (Windows NT 10.0; Win64; x64; rv:137.0) Gecko/20100101 Firefox/137.0","","Firefox","137.0","Windows","10.0","https://hz8g1ckzuq.cognition.run/","en-US,en;q=0.5","pxbrxxhmrubg7gt","45","[""White""]","No","Female","1367062","5773","","","{""product_choice"":""C""}","choice","dtc","attraction_2","1","laptops","null","null","null","null","null","null","1","60","50","60","50","60","40","Processing speed","Memory (RAM)","",""
"","","","","","choice_trial_setup","html-keyboard-response","106","1143097","0.0-5.0-0.11","200","1","2025-04-14 14:51:55","bb671e3ae32f654b8954ea4c4635f915","","Mozilla/5.0 (Windows NT 10.0; Win64; x64; rv:137.0) Gecko/20100101 Firefox/137.0","","Firefox","137.0","Windows","10.0","https://hz8g1ckzuq.cognition.run/","en-US,en;q=0.5","pxbrxxhmrubg7gt","45","[""White""]","No","Female","1367062","null","","<p></p>","null","choice","cdt","repulsion_2","2","microwave ovens","null","null","null","null","null","null","1","","","","","","","","","",""
"","","","","","choice_trial","survey-html-form","107","1151531","0.0-5.0-1.11","200","1","2025-04-14 14:51:55","bb671e3ae32f654b8954ea4c4635f915","","Mozilla/5.0 (Windows NT 10.0; Win64; x64; rv:137.0) Gecko/20100101 Firefox/137.0","","Firefox","137.0","Windows","10.0","https://hz8g1ckzuq.cognition.run/","en-US,en;q=0.5","pxbrxxhmrubg7gt","45","[""White""]","No","Female","1367062","8420","","","{""product_choice"":""A""}","choice","cdt","repulsion_2","2","microwave ovens","null","null","null","null","null","null","1","30","40","20","100","90","100","Warranty","Cooking power","",""
"","","","","","choice_trial_setup","html-keyboard-response","108","1151850","0.0-5.0-0.12","200","1","2025-04-14 14:51:55","bb671e3ae32f654b8954ea4c4635f915","","Mozilla/5.0 (Windows NT 10.0; Win64; x64; rv:137.0) Gecko/20100101 Firefox/137.0","","Firefox","137.0","Windows","10.0","https://hz8g1ckzuq.cognition.run/","en-US,en;q=0.5","pxbrxxhmrubg7gt","45","[""White""]","No","Female","1367062","null","","<p></p>","null","choice","dct","attraction_2","1","televisions","null","null","null","null","null","null","1","","","","","","","","","",""
"","","","","","choice_trial","survey-html-form","109","1158027","0.0-5.0-1.12","200","1","2025-04-14 14:51:55","bb671e3ae32f654b8954ea4c4635f915","","Mozilla/5.0 (Windows NT 10.0; Win64; x64; rv:137.0) Gecko/20100101 Firefox/137.0","","Firefox","137.0","Windows","10.0","https://hz8g1ckzuq.cognition.run/","en-US,en;q=0.5","pxbrxxhmrubg7gt","45","[""White""]","No","Female","1367062","6166","","","{""product_choice"":""C""}","choice","dct","attraction_2","1","televisions","null","null","null","null","null","null","1","60","50","60","50","60","40","Screen size","Average lifespan","",""
"","","","","","choice_trial_setup","html-keyboard-response","110","1158333","0.0-5.0-0.13","200","1","2025-04-14 14:51:55","bb671e3ae32f654b8954ea4c4635f915","","Mozilla/5.0 (Windows NT 10.0; Win64; x64; rv:137.0) Gecko/20100101 Firefox/137.0","","Firefox","137.0","Windows","10.0","https://hz8g1ckzuq.cognition.run/","en-US,en;q=0.5","pxbrxxhmrubg7gt","45","[""White""]","No","Female","1367062","null","","<p></p>","null","choice","dct","repulsion_2","2","laptops","null","null","null","null","null","null","2","","","","","","","","","",""
"","","","","","choice_trial","survey-html-form","111","1163244","0.0-5.0-1.13","200","1","2025-04-14 14:51:55","bb671e3ae32f654b8954ea4c4635f915","","Mozilla/5.0 (Windows NT 10.0; Win64; x64; rv:137.0) Gecko/20100101 Firefox/137.0","","Firefox","137.0","Windows","10.0","https://hz8g1ckzuq.cognition.run/","en-US,en;q=0.5","pxbrxxhmrubg7gt","45","[""White""]","No","Female","1367062","4895","","","{""product_choice"":""B""}","choice","dct","repulsion_2","2","laptops","null","null","null","null","null","null","2","30","40","20","100","90","100","Processing speed","Memory (RAM)","",""
"","","","","","choice_trial_setup","html-keyboard-response","112","1163556","0.0-5.0-0.14","200","1","2025-04-14 14:51:55","bb671e3ae32f654b8954ea4c4635f915","","Mozilla/5.0 (Windows NT 10.0; Win64; x64; rv:137.0) Gecko/20100101 Firefox/137.0","","Firefox","137.0","Windows","10.0","https://hz8g1ckzuq.cognition.run/","en-US,en;q=0.5","pxbrxxhmrubg7gt","45","[""White""]","No","Female","1367062","null","","<p></p>","null","choice","wwb","catch","null","televisions","80","70","40","10","15","20","2","","","","","","","","","",""
"","","","","","choice_trial","survey-html-form","113","1166984","0.0-5.0-1.14","200","1","2025-04-14 14:51:55","bb671e3ae32f654b8954ea4c4635f915","","Mozilla/5.0 (Windows NT 10.0; Win64; x64; rv:137.0) Gecko/20100101 Firefox/137.0","","Firefox","137.0","Windows","10.0","https://hz8g1ckzuq.cognition.run/","en-US,en;q=0.5","pxbrxxhmrubg7gt","45","[""White""]","No","Female","1367062","3416","","","{""product_choice"":""C""}","choice","wwb","catch","null","televisions","80","70","40","10","15","20","2","null","null","null","null","null","null","Screen size","Average lifespan","",""
"","","","","","choice_trial_setup","html-keyboard-response","114","1167297","0.0-5.0-0.15","200","1","2025-04-14 14:51:55","bb671e3ae32f654b8954ea4c4635f915","","Mozilla/5.0 (Windows NT 10.0; Win64; x64; rv:137.0) Gecko/20100101 Firefox/137.0","","Firefox","137.0","Windows","10.0","https://hz8g1ckzuq.cognition.run/","en-US,en;q=0.5","pxbrxxhmrubg7gt","45","[""White""]","No","Female","1367062","null","","<p></p>","null","choice","bww","catch","null","microwave ovens","50","70","5","30","5","25","2","","","","","","","","","",""
"","","","","","choice_trial","survey-html-form","115","1172528","0.0-5.0-1.15","200","1","2025-04-14 14:51:55","bb671e3ae32f654b8954ea4c4635f915","","Mozilla/5.0 (Windows NT 10.0; Win64; x64; rv:137.0) Gecko/20100101 Firefox/137.0","","Firefox","137.0","Windows","10.0","https://hz8g1ckzuq.cognition.run/","en-US,en;q=0.5","pxbrxxhmrubg7gt","45","[""White""]","No","Female","1367062","5218","","","{""product_choice"":""A""}","choice","bww","catch","null","microwave ovens","50","70","5","30","5","25","2","null","null","null","null","null","null","Warranty","Cooking power","",""
"","","","","","choice_trial_setup","html-keyboard-response","116","1172844","0.0-5.0-0.16","200","1","2025-04-14 14:51:55","bb671e3ae32f654b8954ea4c4635f915","","Mozilla/5.0 (Windows NT 10.0; Win64; x64; rv:137.0) Gecko/20100101 Firefox/137.0","","Firefox","137.0","Windows","10.0","https://hz8g1ckzuq.cognition.run/","en-US,en;q=0.5","pxbrxxhmrubg7gt","45","[""White""]","No","Female","1367062","null","","<p></p>","null","choice","bww","catch","null","microwave ovens","80","65","45","5","15","35","1","","","","","","","","","",""
"","","","","","choice_trial","survey-html-form","117","1175124","0.0-5.0-1.16","200","1","2025-04-14 14:51:55","bb671e3ae32f654b8954ea4c4635f915","","Mozilla/5.0 (Windows NT 10.0; Win64; x64; rv:137.0) Gecko/20100101 Firefox/137.0","","Firefox","137.0","Windows","10.0","https://hz8g1ckzuq.cognition.run/","en-US,en;q=0.5","pxbrxxhmrubg7gt","45","[""White""]","No","Female","1367062","2267","","","{""product_choice"":""A""}","choice","bww","catch","null","microwave ovens","80","65","45","5","15","35","1","null","null","null","null","null","null","Warranty","Cooking power","",""
"","","","","","choice_trial_setup","html-keyboard-response","118","1175433","0.0-5.0-0.17","200","1","2025-04-14 14:51:55","bb671e3ae32f654b8954ea4c4635f915","","Mozilla/5.0 (Windows NT 10.0; Win64; x64; rv:137.0) Gecko/20100101 Firefox/137.0","","Firefox","137.0","Windows","10.0","https://hz8g1ckzuq.cognition.run/","en-US,en;q=0.5","pxbrxxhmrubg7gt","45","[""White""]","No","Female","1367062","null","","<p></p>","null","choice","tdc","attraction_1","1","microwave ovens","null","null","null","null","null","null","2","","","","","","","","","",""
"","","","","","choice_trial","survey-html-form","119","1181835","0.0-5.0-1.17","200","1","2025-04-14 14:51:55","bb671e3ae32f654b8954ea4c4635f915","","Mozilla/5.0 (Windows NT 10.0; Win64; x64; rv:137.0) Gecko/20100101 Firefox/137.0","","Firefox","137.0","Windows","10.0","https://hz8g1ckzuq.cognition.run/","en-US,en;q=0.5","pxbrxxhmrubg7gt","45","[""White""]","No","Female","1367062","6390","","","{""product_choice"":""A""}","choice","tdc","attraction_1","1","microwave ovens","null","null","null","null","null","null","2","60","50","60","50","60","45","Warranty","Cooking power","",""
"","","","","","choice_trial_setup","html-keyboard-response","120","1182161","0.0-5.0-0.18","200","1","2025-04-14 14:51:55","bb671e3ae32f654b8954ea4c4635f915","","Mozilla/5.0 (Windows NT 10.0; Win64; x64; rv:137.0) Gecko/20100101 Firefox/137.0","","Firefox","137.0","Windows","10.0","https://hz8g1ckzuq.cognition.run/","en-US,en;q=0.5","pxbrxxhmrubg7gt","45","[""White""]","No","Female","1367062","null","","<p></p>","null","choice","wbw","catch","null","washing machines","70","90","20","25","25","35","1","","","","","","","","","",""
"","","","","","choice_trial","survey-html-form","121","1187197","0.0-5.0-1.18","200","1","2025-04-14 14:51:55","bb671e3ae32f654b8954ea4c4635f915","","Mozilla/5.0 (Windows NT 10.0; Win64; x64; rv:137.0) Gecko/20100101 Firefox/137.0","","Firefox","137.0","Windows","10.0","https://hz8g1ckzuq.cognition.run/","en-US,en;q=0.5","pxbrxxhmrubg7gt","45","[""White""]","No","Female","1367062","5027","","","{""product_choice"":""B""}","choice","wbw","catch","null","washing machines","70","90","20","25","25","35","1","null","null","null","null","null","null","Average lifespan","Energy savings","",""
"","","","","","choice_trial_setup","html-keyboard-response","122","1187510","0.0-5.0-0.19","200","1","2025-04-14 14:51:55","bb671e3ae32f654b8954ea4c4635f915","","Mozilla/5.0 (Windows NT 10.0; Win64; x64; rv:137.0) Gecko/20100101 Firefox/137.0","","Firefox","137.0","Windows","10.0","https://hz8g1ckzuq.cognition.run/","en-US,en;q=0.5","pxbrxxhmrubg7gt","45","[""White""]","No","Female","1367062","null","","<p></p>","null","choice","dtc","attraction_1","1","televisions","null","null","null","null","null","null","1","","","","","","","","","",""
"","","","","","choice_trial","survey-html-form","123","1193336","0.0-5.0-1.19","200","1","2025-04-14 14:51:55","bb671e3ae32f654b8954ea4c4635f915","","Mozilla/5.0 (Windows NT 10.0; Win64; x64; rv:137.0) Gecko/20100101 Firefox/137.0","","Firefox","137.0","Windows","10.0","https://hz8g1ckzuq.cognition.run/","en-US,en;q=0.5","pxbrxxhmrubg7gt","45","[""White""]","No","Female","1367062","5806","","","{""product_choice"":""B""}","choice","dtc","attraction_1","1","televisions","null","null","null","null","null","null","1","60","50","60","50","60","45","Screen size","Average lifespan","",""
"","","","","","choice_trial_setup","html-keyboard-response","124","1193644","0.0-5.0-0.20","200","1","2025-04-14 14:51:55","bb671e3ae32f654b8954ea4c4635f915","","Mozilla/5.0 (Windows NT 10.0; Win64; x64; rv:137.0) Gecko/20100101 Firefox/137.0","","Firefox","137.0","Windows","10.0","https://hz8g1ckzuq.cognition.run/","en-US,en;q=0.5","pxbrxxhmrubg7gt","45","[""White""]","No","Female","1367062","null","","<p></p>","null","choice","wwb","catch","null","washing machines","75","90","15","10","5","50","1","","","","","","","","","",""
"","","","","","choice_trial","survey-html-form","125","1196916","0.0-5.0-1.20","200","1","2025-04-14 14:51:55","bb671e3ae32f654b8954ea4c4635f915","","Mozilla/5.0 (Windows NT 10.0; Win64; x64; rv:137.0) Gecko/20100101 Firefox/137.0","","Firefox","137.0","Windows","10.0","https://hz8g1ckzuq.cognition.run/","en-US,en;q=0.5","pxbrxxhmrubg7gt","45","[""White""]","No","Female","1367062","3259","","","{""product_choice"":""C""}","choice","wwb","catch","null","washing machines","75","90","15","10","5","50","1","null","null","null","null","null","null","Average lifespan","Energy savings","",""
"","","","","","choice_trial_setup","html-keyboard-response","126","1197235","0.0-5.0-0.21","200","1","2025-04-14 14:51:55","bb671e3ae32f654b8954ea4c4635f915","","Mozilla/5.0 (Windows NT 10.0; Win64; x64; rv:137.0) Gecko/20100101 Firefox/137.0","","Firefox","137.0","Windows","10.0","https://hz8g1ckzuq.cognition.run/","en-US,en;q=0.5","pxbrxxhmrubg7gt","45","[""White""]","No","Female","1367062","null","","<p></p>","null","choice","tcd","repulsion_2","1","laptops","null","null","null","null","null","null","2","","","","","","","","","",""
"","","","","","choice_trial","survey-html-form","127","1202028","0.0-5.0-1.21","200","1","2025-04-14 14:51:55","bb671e3ae32f654b8954ea4c4635f915","","Mozilla/5.0 (Windows NT 10.0; Win64; x64; rv:137.0) Gecko/20100101 Firefox/137.0","","Firefox","137.0","Windows","10.0","https://hz8g1ckzuq.cognition.run/","en-US,en;q=0.5","pxbrxxhmrubg7gt","45","[""White""]","No","Female","1367062","4779","","","{""product_choice"":""B""}","choice","tcd","repulsion_2","1","laptops","null","null","null","null","null","null","2","100","90","100","30","40","20","Processing speed","Memory (RAM)","",""
"","","","","","choice_trial_setup","html-keyboard-response","128","1202336","0.0-5.0-0.22","200","1","2025-04-14 14:51:55","bb671e3ae32f654b8954ea4c4635f915","","Mozilla/5.0 (Windows NT 10.0; Win64; x64; rv:137.0) Gecko/20100101 Firefox/137.0","","Firefox","137.0","Windows","10.0","https://hz8g1ckzuq.cognition.run/","en-US,en;q=0.5","pxbrxxhmrubg7gt","45","[""White""]","No","Female","1367062","null","","<p></p>","null","choice","wbw","catch","null","laptops","50","80","35","40","30","40","2","","","","","","","","","",""
"","","","","","choice_trial","survey-html-form","129","1205504","0.0-5.0-1.22","200","1","2025-04-14 14:51:55","bb671e3ae32f654b8954ea4c4635f915","","Mozilla/5.0 (Windows NT 10.0; Win64; x64; rv:137.0) Gecko/20100101 Firefox/137.0","","Firefox","137.0","Windows","10.0","https://hz8g1ckzuq.cognition.run/","en-US,en;q=0.5","pxbrxxhmrubg7gt","45","[""White""]","No","Female","1367062","3146","","","{""product_choice"":""B""}","choice","wbw","catch","null","laptops","50","80","35","40","30","40","2","null","null","null","null","null","null","Processing speed","Memory (RAM)","",""
"","","","","","choice_trial_setup","html-keyboard-response","130","1205821","0.0-5.0-0.23","200","1","2025-04-14 14:51:55","bb671e3ae32f654b8954ea4c4635f915","","Mozilla/5.0 (Windows NT 10.0; Win64; x64; rv:137.0) Gecko/20100101 Firefox/137.0","","Firefox","137.0","Windows","10.0","https://hz8g1ckzuq.cognition.run/","en-US,en;q=0.5","pxbrxxhmrubg7gt","45","[""White""]","No","Female","1367062","null","","<p></p>","null","choice","dct","repulsion_2","2","televisions","null","null","null","null","null","null","1","","","","","","","","","",""
"","","","","","choice_trial","survey-html-form","131","1209004","0.0-5.0-1.23","200","1","2025-04-14 14:51:55","bb671e3ae32f654b8954ea4c4635f915","","Mozilla/5.0 (Windows NT 10.0; Win64; x64; rv:137.0) Gecko/20100101 Firefox/137.0","","Firefox","137.0","Windows","10.0","https://hz8g1ckzuq.cognition.run/","en-US,en;q=0.5","pxbrxxhmrubg7gt","45","[""White""]","No","Female","1367062","3167","","","{""product_choice"":""C""}","choice","dct","repulsion_2","2","televisions","null","null","null","null","null","null","1","30","40","20","100","90","100","Screen size","Average lifespan","",""
"","","","","","choice_trial_setup","html-keyboard-response","132","1209317","0.0-5.0-0.24","200","1","2025-04-14 14:51:55","bb671e3ae32f654b8954ea4c4635f915","","Mozilla/5.0 (Windows NT 10.0; Win64; x64; rv:137.0) Gecko/20100101 Firefox/137.0","","Firefox","137.0","Windows","10.0","https://hz8g1ckzuq.cognition.run/","en-US,en;q=0.5","pxbrxxhmrubg7gt","45","[""White""]","No","Female","1367062","null","","<p></p>","null","choice","dct","attraction_1","2","microwave ovens","null","null","null","null","null","null","2","","","","","","","","","",""
"","","","","","choice_trial","survey-html-form","133","1220660","0.0-5.0-1.24","200","1","2025-04-14 14:51:55","bb671e3ae32f654b8954ea4c4635f915","","Mozilla/5.0 (Windows NT 10.0; Win64; x64; rv:137.0) Gecko/20100101 Firefox/137.0","","Firefox","137.0","Windows","10.0","https://hz8g1ckzuq.cognition.run/","en-US,en;q=0.5","pxbrxxhmrubg7gt","45","[""White""]","No","Female","1367062","11321","","","{""product_choice"":""B""}","choice","dct","attraction_1","2","microwave ovens","null","null","null","null","null","null","2","50","60","45","60","50","60","Warranty","Cooking power","",""
"","","","","","choice_trial_setup","html-keyboard-response","134","1220967","0.0-5.0-0.25","200","1","2025-04-14 14:51:55","bb671e3ae32f654b8954ea4c4635f915","","Mozilla/5.0 (Windows NT 10.0; Win64; x64; rv:137.0) Gecko/20100101 Firefox/137.0","","Firefox","137.0","Windows","10.0","https://hz8g1ckzuq.cognition.run/","en-US,en;q=0.5","pxbrxxhmrubg7gt","45","[""White""]","No","Female","1367062","null","","<p></p>","null","choice","dtc","attraction_1","2","washing machines","null","null","null","null","null","null","1","","","","","","","","","",""
"","","","","","choice_trial","survey-html-form","135","1226052","0.0-5.0-1.25","200","1","2025-04-14 14:51:55","bb671e3ae32f654b8954ea4c4635f915","","Mozilla/5.0 (Windows NT 10.0; Win64; x64; rv:137.0) Gecko/20100101 Firefox/137.0","","Firefox","137.0","Windows","10.0","https://hz8g1ckzuq.cognition.run/","en-US,en;q=0.5","pxbrxxhmrubg7gt","45","[""White""]","No","Female","1367062","5072","","","{""product_choice"":""B""}","choice","dtc","attraction_1","2","washing machines","null","null","null","null","null","null","1","50","60","45","60","50","60","Average lifespan","Energy savings","",""
"","","","","","choice_trial_setup","html-keyboard-response","136","1226371","0.0-5.0-0.26","200","1","2025-04-14 14:51:55","bb671e3ae32f654b8954ea4c4635f915","","Mozilla/5.0 (Windows NT 10.0; Win64; x64; rv:137.0) Gecko/20100101 Firefox/137.0","","Firefox","137.0","Windows","10.0","https://hz8g1ckzuq.cognition.run/","en-US,en;q=0.5","pxbrxxhmrubg7gt","45","[""White""]","No","Female","1367062","null","","<p></p>","null","choice","ctd","attraction_1","1","washing machines","null","null","null","null","null","null","1","","","","","","","","","",""
"","","","","","choice_trial","survey-html-form","137","1237351","0.0-5.0-1.26","200","1","2025-04-14 14:51:55","bb671e3ae32f654b8954ea4c4635f915","","Mozilla/5.0 (Windows NT 10.0; Win64; x64; rv:137.0) Gecko/20100101 Firefox/137.0","","Firefox","137.0","Windows","10.0","https://hz8g1ckzuq.cognition.run/","en-US,en;q=0.5","pxbrxxhmrubg7gt","45","[""White""]","No","Female","1367062","10970","","","{""product_choice"":""A""}","choice","ctd","attraction_1","1","washing machines","null","null","null","null","null","null","1","60","50","60","50","60","45","Average lifespan","Energy savings","",""
"","","","","","choice_trial_setup","html-keyboard-response","138","1237668","0.0-5.0-0.27","200","1","2025-04-14 14:51:55","bb671e3ae32f654b8954ea4c4635f915","","Mozilla/5.0 (Windows NT 10.0; Win64; x64; rv:137.0) Gecko/20100101 Firefox/137.0","","Firefox","137.0","Windows","10.0","https://hz8g1ckzuq.cognition.run/","en-US,en;q=0.5","pxbrxxhmrubg7gt","45","[""White""]","No","Female","1367062","null","","<p></p>","null","choice","ctd","attraction_2","1","washing machines","null","null","null","null","null","null","2","","","","","","","","","",""
"","","","","","choice_trial","survey-html-form","139","1245228","0.0-5.0-1.27","200","1","2025-04-14 14:51:55","bb671e3ae32f654b8954ea4c4635f915","","Mozilla/5.0 (Windows NT 10.0; Win64; x64; rv:137.0) Gecko/20100101 Firefox/137.0","","Firefox","137.0","Windows","10.0","https://hz8g1ckzuq.cognition.run/","en-US,en;q=0.5","pxbrxxhmrubg7gt","45","[""White""]","No","Female","1367062","7537","","","{""product_choice"":""B""}","choice","ctd","attraction_2","1","washing machines","null","null","null","null","null","null","2","60","50","60","50","60","40","Average lifespan","Energy savings","",""
"","","","","","choice_trial_setup","html-keyboard-response","140","1245535","0.0-5.0-0.28","200","1","2025-04-14 14:51:55","bb671e3ae32f654b8954ea4c4635f915","","Mozilla/5.0 (Windows NT 10.0; Win64; x64; rv:137.0) Gecko/20100101 Firefox/137.0","","Firefox","137.0","Windows","10.0","https://hz8g1ckzuq.cognition.run/","en-US,en;q=0.5","pxbrxxhmrubg7gt","45","[""White""]","No","Female","1367062","null","","<p></p>","null","choice","cdt","repulsion_1","2","washing machines","null","null","null","null","null","null","2","","","","","","","","","",""
"","","","","","choice_trial","survey-html-form","141","1250860","0.0-5.0-1.28","200","1","2025-04-14 14:51:55","bb671e3ae32f654b8954ea4c4635f915","","Mozilla/5.0 (Windows NT 10.0; Win64; x64; rv:137.0) Gecko/20100101 Firefox/137.0","","Firefox","137.0","Windows","10.0","https://hz8g1ckzuq.cognition.run/","en-US,en;q=0.5","pxbrxxhmrubg7gt","45","[""White""]","No","Female","1367062","5312","","","{""product_choice"":""C""}","choice","cdt","repulsion_1","2","washing machines","null","null","null","null","null","null","2","30","40","25","100","90","100","Average lifespan","Energy savings","",""
"","","","","","choice_trial_setup","html-keyboard-response","142","1251166","0.0-5.0-0.29","200","1","2025-04-14 14:51:55","bb671e3ae32f654b8954ea4c4635f915","","Mozilla/5.0 (Windows NT 10.0; Win64; x64; rv:137.0) Gecko/20100101 Firefox/137.0","","Firefox","137.0","Windows","10.0","https://hz8g1ckzuq.cognition.run/","en-US,en;q=0.5","pxbrxxhmrubg7gt","45","[""White""]","No","Female","1367062","null","","<p></p>","null","choice","dct","repulsion_2","2","washing machines","null","null","null","null","null","null","1","","","","","","","","","",""
"","","","","","choice_trial","survey-html-form","143","1255913","0.0-5.0-1.29","200","1","2025-04-14 14:51:55","bb671e3ae32f654b8954ea4c4635f915","","Mozilla/5.0 (Windows NT 10.0; Win64; x64; rv:137.0) Gecko/20100101 Firefox/137.0","","Firefox","137.0","Windows","10.0","https://hz8g1ckzuq.cognition.run/","en-US,en;q=0.5","pxbrxxhmrubg7gt","45","[""White""]","No","Female","1367062","4733","","","{""product_choice"":""C""}","choice","dct","repulsion_2","2","washing machines","null","null","null","null","null","null","1","30","40","20","100","90","100","Average lifespan","Energy savings","",""
"","","","","","choice_trial_setup","html-keyboard-response","144","1256235","0.0-5.0-0.30","200","1","2025-04-14 14:51:55","bb671e3ae32f654b8954ea4c4635f915","","Mozilla/5.0 (Windows NT 10.0; Win64; x64; rv:137.0) Gecko/20100101 Firefox/137.0","","Firefox","137.0","Windows","10.0","https://hz8g1ckzuq.cognition.run/","en-US,en;q=0.5","pxbrxxhmrubg7gt","45","[""White""]","No","Female","1367062","null","","<p></p>","null","choice","ctd","attraction_2","2","laptops","null","null","null","null","null","null","1","","","","","","","","","",""
"","","","","","choice_trial","survey-html-form","145","1264951","0.0-5.0-1.30","200","1","2025-04-14 14:51:55","bb671e3ae32f654b8954ea4c4635f915","","Mozilla/5.0 (Windows NT 10.0; Win64; x64; rv:137.0) Gecko/20100101 Firefox/137.0","","Firefox","137.0","Windows","10.0","https://hz8g1ckzuq.cognition.run/","en-US,en;q=0.5","pxbrxxhmrubg7gt","45","[""White""]","No","Female","1367062","8704","","","{""product_choice"":""A""}","choice","ctd","attraction_2","2","laptops","null","null","null","null","null","null","1","50","60","40","60","50","60","Processing speed","Memory (RAM)","",""
"","","","","","choice_trial_setup","html-keyboard-response","146","1265262","0.0-5.0-0.31","200","1","2025-04-14 14:51:55","bb671e3ae32f654b8954ea4c4635f915","","Mozilla/5.0 (Windows NT 10.0; Win64; x64; rv:137.0) Gecko/20100101 Firefox/137.0","","Firefox","137.0","Windows","10.0","https://hz8g1ckzuq.cognition.run/","en-US,en;q=0.5","pxbrxxhmrubg7gt","45","[""White""]","No","Female","1367062","null","","<p></p>","null","choice","bww","catch","null","televisions","55","85","25","20","35","10","2","","","","","","","","","",""
"","","","","","choice_trial","survey-html-form","147","1270681","0.0-5.0-1.31","200","1","2025-04-14 14:51:55","bb671e3ae32f654b8954ea4c4635f915","","Mozilla/5.0 (Windows NT 10.0; Win64; x64; rv:137.0) Gecko/20100101 Firefox/137.0","","Firefox","137.0","Windows","10.0","https://hz8g1ckzuq.cognition.run/","en-US,en;q=0.5","pxbrxxhmrubg7gt","45","[""White""]","No","Female","1367062","5395","","","{""product_choice"":""A""}","choice","bww","catch","null","televisions","55","85","25","20","35","10","2","null","null","null","null","null","null","Screen size","Average lifespan","",""
"","","","","","choice_trial_setup","html-keyboard-response","148","1271007","0.0-5.0-0.32","200","1","2025-04-14 14:51:55","bb671e3ae32f654b8954ea4c4635f915","","Mozilla/5.0 (Windows NT 10.0; Win64; x64; rv:137.0) Gecko/20100101 Firefox/137.0","","Firefox","137.0","Windows","10.0","https://hz8g1ckzuq.cognition.run/","en-US,en;q=0.5","pxbrxxhmrubg7gt","45","[""White""]","No","Female","1367062","null","","<p></p>","null","choice","dct","attraction_2","2","microwave ovens","null","null","null","null","null","null","2","","","","","","","","","",""
"","","","","","choice_trial","survey-html-form","149","1275940","0.0-5.0-1.32","200","1","2025-04-14 14:51:55","bb671e3ae32f654b8954ea4c4635f915","","Mozilla/5.0 (Windows NT 10.0; Win64; x64; rv:137.0) Gecko/20100101 Firefox/137.0","","Firefox","137.0","Windows","10.0","https://hz8g1ckzuq.cognition.run/","en-US,en;q=0.5","pxbrxxhmrubg7gt","45","[""White""]","No","Female","1367062","4919","","","{""product_choice"":""B""}","choice","dct","attraction_2","2","microwave ovens","null","null","null","null","null","null","2","50","60","40","60","50","60","Warranty","Cooking power","",""
"","","","","","choice_trial_setup","html-keyboard-response","150","1276256","0.0-5.0-0.33","200","1","2025-04-14 14:51:55","bb671e3ae32f654b8954ea4c4635f915","","Mozilla/5.0 (Windows NT 10.0; Win64; x64; rv:137.0) Gecko/20100101 Firefox/137.0","","Firefox","137.0","Windows","10.0","https://hz8g1ckzuq.cognition.run/","en-US,en;q=0.5","pxbrxxhmrubg7gt","45","[""White""]","No","Female","1367062","null","","<p></p>","null","choice","tdc","repulsion_2","1","washing machines","null","null","null","null","null","null","1","","","","","","","","","",""
"","","","","","choice_trial","survey-html-form","151","1283256","0.0-5.0-1.33","200","1","2025-04-14 14:51:55","bb671e3ae32f654b8954ea4c4635f915","","Mozilla/5.0 (Windows NT 10.0; Win64; x64; rv:137.0) Gecko/20100101 Firefox/137.0","","Firefox","137.0","Windows","10.0","https://hz8g1ckzuq.cognition.run/","en-US,en;q=0.5","pxbrxxhmrubg7gt","45","[""White""]","No","Female","1367062","6985","","","{""product_choice"":""C""}","choice","tdc","repulsion_2","1","washing machines","null","null","null","null","null","null","1","100","90","100","30","40","20","Average lifespan","Energy savings","",""
"","","","","","choice_trial_setup","html-keyboard-response","152","1283568","0.0-5.0-0.34","200","1","2025-04-14 14:51:55","bb671e3ae32f654b8954ea4c4635f915","","Mozilla/5.0 (Windows NT 10.0; Win64; x64; rv:137.0) Gecko/20100101 Firefox/137.0","","Firefox","137.0","Windows","10.0","https://hz8g1ckzuq.cognition.run/","en-US,en;q=0.5","pxbrxxhmrubg7gt","45","[""White""]","No","Female","1367062","null","","<p></p>","null","choice","ctd","repulsion_2","1","televisions","null","null","null","null","null","null","1","","","","","","","","","",""
"","","","","","choice_trial","survey-html-form","153","1289063","0.0-5.0-1.34","200","1","2025-04-14 14:51:55","bb671e3ae32f654b8954ea4c4635f915","","Mozilla/5.0 (Windows NT 10.0; Win64; x64; rv:137.0) Gecko/20100101 Firefox/137.0","","Firefox","137.0","Windows","10.0","https://hz8g1ckzuq.cognition.run/","en-US,en;q=0.5","pxbrxxhmrubg7gt","45","[""White""]","No","Female","1367062","5460","","","{""product_choice"":""A""}","choice","ctd","repulsion_2","1","televisions","null","null","null","null","null","null","1","100","90","100","30","40","20","Screen size","Average lifespan","",""
"","","","","","choice_trial_setup","html-keyboard-response","154","1289385","0.0-5.0-0.35","200","1","2025-04-14 14:51:55","bb671e3ae32f654b8954ea4c4635f915","","Mozilla/5.0 (Windows NT 10.0; Win64; x64; rv:137.0) Gecko/20100101 Firefox/137.0","","Firefox","137.0","Windows","10.0","https://hz8g1ckzuq.cognition.run/","en-US,en;q=0.5","pxbrxxhmrubg7gt","45","[""White""]","No","Female","1367062","null","","<p></p>","null","choice","dtc","attraction_2","1","microwave ovens","null","null","null","null","null","null","1","","","","","","","","","",""
"","","","","","choice_trial","survey-html-form","155","1297308","0.0-5.0-1.35","200","1","2025-04-14 14:51:55","bb671e3ae32f654b8954ea4c4635f915","","Mozilla/5.0 (Windows NT 10.0; Win64; x64; rv:137.0) Gecko/20100101 Firefox/137.0","","Firefox","137.0","Windows","10.0","https://hz8g1ckzuq.cognition.run/","en-US,en;q=0.5","pxbrxxhmrubg7gt","45","[""White""]","No","Female","1367062","7912","","","{""product_choice"":""B""}","choice","dtc","attraction_2","1","microwave ovens","null","null","null","null","null","null","1","60","50","60","50","60","40","Warranty","Cooking power","",""
"","","","","","choice_trial_setup","html-keyboard-response","156","1297631","0.0-5.0-0.36","200","1","2025-04-14 14:51:55","bb671e3ae32f654b8954ea4c4635f915","","Mozilla/5.0 (Windows NT 10.0; Win64; x64; rv:137.0) Gecko/20100101 Firefox/137.0","","Firefox","137.0","Windows","10.0","https://hz8g1ckzuq.cognition.run/","en-US,en;q=0.5","pxbrxxhmrubg7gt","45","[""White""]","No","Female","1367062","null","","<p></p>","null","choice","tcd","repulsion_1","2","televisions","null","null","null","null","null","null","1","","","","","","","","","",""
"","","","","","choice_trial","survey-html-form","157","1303532","0.0-5.0-1.36","200","1","2025-04-14 14:51:55","bb671e3ae32f654b8954ea4c4635f915","","Mozilla/5.0 (Windows NT 10.0; Win64; x64; rv:137.0) Gecko/20100101 Firefox/137.0","","Firefox","137.0","Windows","10.0","https://hz8g1ckzuq.cognition.run/","en-US,en;q=0.5","pxbrxxhmrubg7gt","45","[""White""]","No","Female","1367062","5887","","","{""product_choice"":""A""}","choice","tcd","repulsion_1","2","televisions","null","null","null","null","null","null","1","30","40","25","100","90","100","Screen size","Average lifespan","",""
"","","","","","choice_trial_setup","html-keyboard-response","158","1303844","0.0-5.0-0.37","200","1","2025-04-14 14:51:55","bb671e3ae32f654b8954ea4c4635f915","","Mozilla/5.0 (Windows NT 10.0; Win64; x64; rv:137.0) Gecko/20100101 Firefox/137.0","","Firefox","137.0","Windows","10.0","https://hz8g1ckzuq.cognition.run/","en-US,en;q=0.5","pxbrxxhmrubg7gt","45","[""White""]","No","Female","1367062","null","","<p></p>","null","choice","cdt","attraction_1","1","laptops","null","null","null","null","null","null","2","","","","","","","","","",""
"","","","","","choice_trial","survey-html-form","159","1313412","0.0-5.0-1.37","200","1","2025-04-14 14:51:55","bb671e3ae32f654b8954ea4c4635f915","","Mozilla/5.0 (Windows NT 10.0; Win64; x64; rv:137.0) Gecko/20100101 Firefox/137.0","","Firefox","137.0","Windows","10.0","https://hz8g1ckzuq.cognition.run/","en-US,en;q=0.5","pxbrxxhmrubg7gt","45","[""White""]","No","Female","1367062","9550","","","{""product_choice"":""A""}","choice","cdt","attraction_1","1","laptops","null","null","null","null","null","null","2","60","50","60","50","60","45","Processing speed","Memory (RAM)","",""
"","","","","","choice_trial_setup","html-keyboard-response","160","1313718","0.0-5.0-0.38","200","1","2025-04-14 14:51:55","bb671e3ae32f654b8954ea4c4635f915","","Mozilla/5.0 (Windows NT 10.0; Win64; x64; rv:137.0) Gecko/20100101 Firefox/137.0","","Firefox","137.0","Windows","10.0","https://hz8g1ckzuq.cognition.run/","en-US,en;q=0.5","pxbrxxhmrubg7gt","45","[""White""]","No","Female","1367062","null","","<p></p>","null","choice","dtc","attraction_1","2","televisions","null","null","null","null","null","null","1","","","","","","","","","",""
"","","","","","choice_trial","survey-html-form","161","1317200","0.0-5.0-1.38","200","1","2025-04-14 14:51:55","bb671e3ae32f654b8954ea4c4635f915","","Mozilla/5.0 (Windows NT 10.0; Win64; x64; rv:137.0) Gecko/20100101 Firefox/137.0","","Firefox","137.0","Windows","10.0","https://hz8g1ckzuq.cognition.run/","en-US,en;q=0.5","pxbrxxhmrubg7gt","45","[""White""]","No","Female","1367062","3467","","","{""product_choice"":""C""}","choice","dtc","attraction_1","2","televisions","null","null","null","null","null","null","1","50","60","45","60","50","60","Screen size","Average lifespan","",""
"","","","","","choice_trial_setup","html-keyboard-response","162","1317512","0.0-5.0-0.39","200","1","2025-04-14 14:51:55","bb671e3ae32f654b8954ea4c4635f915","","Mozilla/5.0 (Windows NT 10.0; Win64; x64; rv:137.0) Gecko/20100101 Firefox/137.0","","Firefox","137.0","Windows","10.0","https://hz8g1ckzuq.cognition.run/","en-US,en;q=0.5","pxbrxxhmrubg7gt","45","[""White""]","No","Female","1367062","null","","<p></p>","null","choice","dtc","attraction_1","2","laptops","null","null","null","null","null","null","2","","","","","","","","","",""
"","","","","","choice_trial","survey-html-form","163","1321268","0.0-5.0-1.39","200","1","2025-04-14 14:51:55","bb671e3ae32f654b8954ea4c4635f915","","Mozilla/5.0 (Windows NT 10.0; Win64; x64; rv:137.0) Gecko/20100101 Firefox/137.0","","Firefox","137.0","Windows","10.0","https://hz8g1ckzuq.cognition.run/","en-US,en;q=0.5","pxbrxxhmrubg7gt","45","[""White""]","No","Female","1367062","3740","","","{""product_choice"":""C""}","choice","dtc","attraction_1","2","laptops","null","null","null","null","null","null","2","50","60","45","60","50","60","Processing speed","Memory (RAM)","",""
"","","","","","","html-button-response","164","1322975","0.0-6.0","200","1","2025-04-14 14:51:55","bb671e3ae32f654b8954ea4c4635f915","","Mozilla/5.0 (Windows NT 10.0; Win64; x64; rv:137.0) Gecko/20100101 Firefox/137.0","","Firefox","137.0","Windows","10.0","https://hz8g1ckzuq.cognition.run/","en-US,en;q=0.5","pxbrxxhmrubg7gt","45","[""White""]","No","Female","1367062","1698","","<p> <b>Thank you for your patience!</b></p><p>  The study will be done after completing a brief form. </p>","0","","","","","","","","","","","","","","","","","","","","","",""
"","","","","","","survey-text","165","1354821","0.0-7.0","200","1","2025-04-14 14:51:55","bb671e3ae32f654b8954ea4c4635f915","","Mozilla/5.0 (Windows NT 10.0; Win64; x64; rv:137.0) Gecko/20100101 Firefox/137.0","","Firefox","137.0","Windows","10.0","https://hz8g1ckzuq.cognition.run/","en-US,en;q=0.5","pxbrxxhmrubg7gt","45","[""White""]","No","Female","1367062","31823","","","{""Q0"":""i tried to choose my answers as quickly as possible based on the percentages displayed""}","","","","","","","","","","","","","","","","","","","","","i tried to choose my answers as quickly as possible based on the percentages displayed",""
"","","","","","","survey-text","166","1359784","0.0-8.0","200","1","2025-04-14 14:51:55","bb671e3ae32f654b8954ea4c4635f915","","Mozilla/5.0 (Windows NT 10.0; Win64; x64; rv:137.0) Gecko/20100101 Firefox/137.0","","Firefox","137.0","Windows","10.0","https://hz8g1ckzuq.cognition.run/","en-US,en;q=0.5","pxbrxxhmrubg7gt","45","[""White""]","No","Female","1367062","4955","","","{""Q0"":""45""}","","","","","","","","","","","","","","","","","","","","","",""
"","","","","","","survey-multi-select","167","1362741","0.0-9.0","200","1","2025-04-14 14:51:55","bb671e3ae32f654b8954ea4c4635f915","","Mozilla/5.0 (Windows NT 10.0; Win64; x64; rv:137.0) Gecko/20100101 Firefox/137.0","","Firefox","137.0","Windows","10.0","https://hz8g1ckzuq.cognition.run/","en-US,en;q=0.5","pxbrxxhmrubg7gt","45","[""White""]","No","Female","1367062","2950","","","{""Q0"":[""White""]}","","","","","","","","","","","","","","","","","","","","","","[0]"
"","","","","","","survey-multi-choice","168","1367060","0.0-10.0","200","1","2025-04-14 14:51:55","bb671e3ae32f654b8954ea4c4635f915","","Mozilla/5.0 (Windows NT 10.0; Win64; x64; rv:137.0) Gecko/20100101 Firefox/137.0","","Firefox","137.0","Windows","10.0","https://hz8g1ckzuq.cognition.run/","en-US,en;q=0.5","pxbrxxhmrubg7gt","45","[""White""]","No","Female","1367062","4309","","","{""Q0"":""No"",""Q1"":""Female""}","","","","","","","","","","","","","","","","","","","","","","[0,1]"
"","","","","","","html-keyboard-response","169","1375367","0.0-11.0","200","1","2025-04-14 14:51:55","bb671e3ae32f654b8954ea4c4635f915","","Mozilla/5.0 (Windows NT 10.0; Win64; x64; rv:137.0) Gecko/20100101 Firefox/137.0","","Firefox","137.0","Windows","10.0","https://hz8g1ckzuq.cognition.run/","en-US,en;q=0.5","pxbrxxhmrubg7gt","45","[""White""]","No","Female","1367062","8303","","","q","","","","","","","","","","","","","","","","","","","","","",""