"success","timeout","failed_images","failed_audio","failed_video","screen_id","trial_type","trial_index","time_elapsed","internal_node_id","run_id","condition","recorded_at","source_code_version","ip","user_agent","device","browser","browser_version","platform","platform_version","referer","accept_language","ppt_id","age","race","ethnicity","gender","exp_duration","rt","view_history","stimulus","response","phase","order","effect","t_high","category","d1_best","d2_best","d1_worst1","d2_worst1","d1_worst2","d2_worst2","first_dim","d1_t","d1_c","d1_d","d2_t","d2_c","d2_d","d1_name","d2_name","strategy_response","question_order"
"true","false","[]","[]","[]","img preload","preload","0","5073","0.0-0.0","202","1","2025-04-14 14:55:49","bb671e3ae32f654b8954ea4c4635f915","","Mozilla/5.0 (Windows NT 11.0; Win64; x64) AppleWebKit/537.36 (KHTML, like Gecko) Chrome/131.0.0.0 Safari/537.36","WebKit","Chrome","131.0.0.0","Windows","11.0","https://hz8g1ckzuq.cognition.run/","en,en-US;q=0.9","o8akdyg4kotsd6n","51","[""Black or African-American""]","No","Male","1255738.9","","","","","","","","","","","","","","","","","","","","","","","","","",""
"true","","","","","","fullscreen","1","12376","0.0-1.0","202","1","2025-04-14 14:55:49","bb671e3ae32f654b8954ea4c4635f915","","Mozilla/5.0 (Windows NT 11.0; Win64; x64) AppleWebKit/537.36 (KHTML, like Gecko) Chrome/131.0.0.0 Safari/537.36","WebKit","Chrome","131.0.0.0","Windows","11.0","https://hz8g1ckzuq.cognition.run/","en,en-US;q=0.9","o8akdyg4kotsd6n","51","[""Black or African-American""]","No","Male","1255738.9","6279","","","","","","","","","","","","","","","","","","","","","","","","",""
"","","","","","","instructions","2","97458","0.0-2.0","202","1","2025-04-14 14:55:49","bb671e3ae32f654b8954ea4c4635f915","","Mozilla/5.0 (Windows NT 11.0; Win64; x64) AppleWebKit/537.36 (KHTML, like Gecko) Chrome/131.0.0.0 Safari/537.36","WebKit","Chrome","131.0.0.0","Windows","11.0","https://hz8g1ckzuq.cognition.run/","en,en-US;q=0.9","o8akdyg4kotsd6n","51","[""Black or African-American""]","No","Male","1255738.9","85081","[{""page_index"":0,""viewing_time"":2801},{""page_index"":1,""viewing_time"":5302},{""page_index"":2,""viewing_time"":5144},{""page_index"":3,""viewing_time"":5344},{""page_index"":4,""viewing_time"":9283},{""page_index"":5,""viewing_time"":5163},{""page_index"":6,""viewing_time"":10576},{""page_index"":7,""viewing_time"":22520},{""page_index"":8,""viewing_time"":11553},{""page_index"":9,""viewing_time"":7394}]","","","","","","","","","","","","","","","","","","","","","","","",""
"","","","","","rating_trial_setup","html-keyboard-response","3","97766","0.0-3.0-0.0","202","1","2025-04-14 14:55:49","bb671e3ae32f654b8954ea4c4635f915","","Mozilla/5.0 (Windows NT 11.0; Win64; x64) AppleWebKit/537.36 (KHTML, like Gecko) Chrome/131.0.0.0 Safari/537.36","WebKit","Chrome","131.0.0.0","Windows","11.0","https://hz8g1ckzuq.cognition.run/","en,en-US;q=0.9","o8akdyg4kotsd6n","51","[""Black or African-American""]","No","Male","1255738.9","null","","<p></p>","null","rating","cdt","repulsion_2","1","washing machines","null","null","null","null","null","null","1","","","","","","","","","",""
"","","","","","rating_trial","survey-html-form","4","128181","0.0-3.0-1.0","202","1","2025-04-14 14:55:49","bb671e3ae32f654b8954ea4c4635f915","","Mozilla/5.0 (Windows NT 11.0; Win64; x64) AppleWebKit/537.36 (KHTML, like Gecko) Chrome/131.0.0.0 Safari/537.36","WebKit","Chrome","131.0.0.0","Windows","11.0","https://hz8g1ckzuq.cognition.run/","en,en-US;q=0.9","o8akdyg4kotsd6n","51","[""Black or African-American""]","No","Male","1255738.9","30401","","","{""price_1"":""250"",""price_2"":""200"",""price_3"":""250""}","rating","cdt","repulsion_2","1","washing machines","null","null","null","null","null","null","1","100","90","100","30","40","20","Average lifespan","Energy savings","",""
"","","","","","rating_trial_setup","html-keyboard-response","5","128486","0.0-3.0-0.1","202","1","2025-04-14 14:55:49","bb671e3ae32f654b8954ea4c4635f915","","Mozilla/5.0 (Windows NT 11.0; Win64; x64) AppleWebKit/537.36 (KHTML, like Gecko) Chrome/131.0.0.0 Safari/537.36","WebKit","Chrome","131.0.0.0","Windows","11.0","https://hz8g1ckzuq.cognition.run/","en,en-US;q=0.9","o8akdyg4kotsd6n","51","[""Black or African-American""]","No","Male","1255738.9","null","","<p></p>","null","rating","tcd","repulsion_1","1","washing machines","null","null","null","null","null","null","1","","","","","","","","","",""
"","","","","","rating_trial","survey-html-form","6","146741","0.0-3.0-1.1","202","1","2025-04-14 14:55:49","bb671e3ae32f654b8954ea4c4635f915","","Mozilla/5.0 (Windows NT 11.0; Win64; x64) AppleWebKit/537.36 (KHTML, like Gecko) Chrome/131.0.0.0 Safari/537.36","WebKit","Chrome","131.0.0.0","Windows","11.0","https://hz8g1ckzuq.cognition.run/","en,en-US;q=0.9","o8akdyg4kotsd6n","51","[""Black or African-American""]","No","Male","1255738.9","18249","","","{""price_1"":""350"",""price_2"":""250"",""price_3"":""200""}","rating","tcd","repulsion_1","1","washing machines","null","null","null","null","null","null","1","100","90","100","30","40","25","Average lifespan","Energy savings","",""
"","","","","","rating_trial_setup","html-keyboard-response","7","147046","0.0-3.0-0.2","202","1","2025-04-14 14:55:49","bb671e3ae32f654b8954ea4c4635f915","","Mozilla/5.0 (Windows NT 11.0; Win64; x64) AppleWebKit/537.36 (KHTML, like Gecko) Chrome/131.0.0.0 Safari/537.36","WebKit","Chrome","131.0.0.0","Windows","11.0","https://hz8g1ckzuq.cognition.run/","en,en-US;q=0.9","o8akdyg4kotsd6n","51","[""Black or African-American""]","No","Male","1255738.9","null","","<p></p>","null","rating","dct","attraction_2","2","microwave ovens","null","null","null","null","null","null","1","","","","","","","","","",""
"","","","","","rating_trial","survey-html-form","8","168206","0.0-3.0-1.2","202","1","2025-04-14 14:55:49","bb671e3ae32f654b8954ea4c4635f915","","Mozilla/5.0 (Windows NT 11.0; Win64; x64) AppleWebKit/537.36 (KHTML, like Gecko) Chrome/131.0.0.0 Safari/537.36","WebKit","Chrome","131.0.0.0","Windows","11.0","https://hz8g1ckzuq.cognition.run/","en,en-US;q=0.9","o8akdyg4kotsd6n","51","[""Black or African-American""]","No","Male","1255738.9","21155","","","{""price_1"":""100"",""price_2"":""90"",""price_3"":""150""}","rating","dct","attraction_2","2","microwave ovens","null","null","null","null","null","null","1","50","60","40","60","50","60","Warranty","Cooking power","",""
"","","","","","rating_trial_setup","html-keyboard-response","9","168518","0.0-3.0-0.3","202","1","2025-04-14 14:55:49","bb671e3ae32f654b8954ea4c4635f915","","Mozilla/5.0 (Windows NT 11.0; Win64; x64) AppleWebKit/537.36 (KHTML, like Gecko) Chrome/131.0.0.0 Safari/537.36","WebKit","Chrome","131.0.0.0","Windows","11.0","https://hz8g1ckzuq.cognition.run/","en,en-US;q=0.9","o8akdyg4kotsd6n","51","[""Black or African-American""]","No","Male","1255738.9","null","","<p></p>","null","rating","dct","attraction_1","2","microwave ovens","null","null","null","null","null","null","1","","","","","","","","","",""
"","","","","","rating_trial","survey-html-form","10","193511","0.0-3.0-1.3","202","1","2025-04-14 14:55:49","bb671e3ae32f654b8954ea4c4635f915","","Mozilla/5.0 (Windows NT 11.0; Win64; x64) AppleWebKit/537.36 (KHTML, like Gecko) Chrome/131.0.0.0 Safari/537.36","WebKit","Chrome","131.0.0.0","Windows","11.0","https://hz8g1ckzuq.cognition.run/","en,en-US;q=0.9","o8akdyg4kotsd6n","51","[""Black or African-American""]","No","Male","1255738.9","24989","","","{""price_1"":""95"",""price_2"":""100"",""price_3"":""115""}","rating","dct","attraction_1","2","microwave ovens","null","null","null","null","null","null","1","50","60","45","60","50","60","Warranty","Cooking power","",""
"","","","","","rating_trial_setup","html-keyboard-response","11","193815","0.0-3.0-0.4","202","1","2025-04-14 14:55:49","bb671e3ae32f654b8954ea4c4635f915","","Mozilla/5.0 (Windows NT 11.0; Win64; x64) AppleWebKit/537.36 (KHTML, like Gecko) Chrome/131.0.0.0 Safari/537.36","WebKit","Chrome","131.0.0.0","Windows","11.0","https://hz8g1ckzuq.cognition.run/","en,en-US;q=0.9","o8akdyg4kotsd6n","51","[""Black or African-American""]","No","Male","1255738.9","null","","<p></p>","null","rating","tcd","attraction_2","2","televisions","null","null","null","null","null","null","2","","","","","","","","","",""
"","","","","","rating_trial","survey-html-form","12","216334","0.0-3.0-1.4","202","1","2025-04-14 14:55:49","bb671e3ae32f654b8954ea4c4635f915","","Mozilla/5.0 (Windows NT 11.0; Win64; x64) AppleWebKit/537.36 (KHTML, like Gecko) Chrome/131.0.0.0 Safari/537.36","WebKit","Chrome","131.0.0.0","Windows","11.0","https://hz8g1ckzuq.cognition.run/","en,en-US;q=0.9","o8akdyg4kotsd6n","51","[""Black or African-American""]","No","Male","1255738.9","22514","","","{""price_1"":""250"",""price_2"":""200"",""price_3"":""150""}","rating","tcd","attraction_2","2","televisions","null","null","null","null","null","null","2","50","60","40","60","50","60","Screen size","Average lifespan","",""
"","","","","","rating_trial_setup","html-keyboard-response","13","216637","0.0-3.0-0.5","202","1","2025-04-14 14:55:49","bb671e3ae32f654b8954ea4c4635f915","","Mozilla/5.0 (Windows NT 11.0; Win64; x64) AppleWebKit/537.36 (KHTML, like Gecko) Chrome/131.0.0.0 Safari/537.36","WebKit","Chrome","131.0.0.0","Windows","11.0","https://hz8g1ckzuq.cognition.run/","en,en-US;q=0.9","o8akdyg4kotsd6n","51","[""Black or African-American""]","No","Male","1255738.9","null","","<p></p>","null","rating","dct","repulsion_2","2","laptops","null","null","null","null","null","null","1","","","","","","","","","",""
"","","","","","rating_trial","survey-html-form","14","235057","0.0-3.0-1.5","202","1","2025-04-14 14:55:49","bb671e3ae32f654b8954ea4c4635f915","","Mozilla/5.0 (Windows NT 11.0; Win64; x64) AppleWebKit/537.36 (KHTML, like Gecko) Chrome/131.0.0.0 Safari/537.36","WebKit","Chrome","131.0.0.0","Windows","11.0","https://hz8g1ckzuq.cognition.run/","en,en-US;q=0.9","o8akdyg4kotsd6n","51","[""Black or African-American""]","No","Male","1255738.9","18414","","","{""price_1"":""100"",""price_2"":""150"",""price_3"":""180""}","rating","dct","repulsion_2","2","laptops","null","null","null","null","null","null","1","30","40","20","100","90","100","Processing speed","Memory (RAM)","",""
"","","","","","rating_trial_setup","html-keyboard-response","15","235362","0.0-3.0-0.6","202","1","2025-04-14 14:55:49","bb671e3ae32f654b8954ea4c4635f915","","Mozilla/5.0 (Windows NT 11.0; Win64; x64) AppleWebKit/537.36 (KHTML, like Gecko) Chrome/131.0.0.0 Safari/537.36","WebKit","Chrome","131.0.0.0","Windows","11.0","https://hz8g1ckzuq.cognition.run/","en,en-US;q=0.9","o8akdyg4kotsd6n","51","[""Black or African-American""]","No","Male","1255738.9","null","","<p></p>","null","rating","bww","catch","null","televisions","60","70","15","5","30","15","2","","","","","","","","","",""
"","","","","","rating_trial","survey-html-form","16","259975","0.0-3.0-1.6","202","1","2025-04-14 14:55:49","bb671e3ae32f654b8954ea4c4635f915","","Mozilla/5.0 (Windows NT 11.0; Win64; x64) AppleWebKit/537.36 (KHTML, like Gecko) Chrome/131.0.0.0 Safari/537.36","WebKit","Chrome","131.0.0.0","Windows","11.0","https://hz8g1ckzuq.cognition.run/","en,en-US;q=0.9","o8akdyg4kotsd6n","51","[""Black or African-American""]","No","Male","1255738.9","24608","","","{""price_1"":""350"",""price_2"":""100"",""price_3"":""120""}","rating","bww","catch","null","televisions","60","70","15","5","30","15","2","null","null","null","null","null","null","Screen size","Average lifespan","",""
"","","","","","rating_trial_setup","html-keyboard-response","17","260282","0.0-3.0-0.7","202","1","2025-04-14 14:55:49","bb671e3ae32f654b8954ea4c4635f915","","Mozilla/5.0 (Windows NT 11.0; Win64; x64) AppleWebKit/537.36 (KHTML, like Gecko) Chrome/131.0.0.0 Safari/537.36","WebKit","Chrome","131.0.0.0","Windows","11.0","https://hz8g1ckzuq.cognition.run/","en,en-US;q=0.9","o8akdyg4kotsd6n","51","[""Black or African-American""]","No","Male","1255738.9","null","","<p></p>","null","rating","tcd","repulsion_1","1","televisions","null","null","null","null","null","null","1","","","","","","","","","",""
"","","","","","rating_trial","survey-html-form","18","287842","0.0-3.0-1.7","202","1","2025-04-14 14:55:49","bb671e3ae32f654b8954ea4c4635f915","","Mozilla/5.0 (Windows NT 11.0; Win64; x64) AppleWebKit/537.36 (KHTML, like Gecko) Chrome/131.0.0.0 Safari/537.36","WebKit","Chrome","131.0.0.0","Windows","11.0","https://hz8g1ckzuq.cognition.run/","en,en-US;q=0.9","o8akdyg4kotsd6n","51","[""Black or African-American""]","No","Male","1255738.9","27554","","","{""price_1"":""215"",""price_2"":""200"",""price_3"":""180""}","rating","tcd","repulsion_1","1","televisions","null","null","null","null","null","null","1","100","90","100","30","40","25","Screen size","Average lifespan","",""
"","","","","","rating_trial_setup","html-keyboard-response","19","288147","0.0-3.0-0.8","202","1","2025-04-14 14:55:49","bb671e3ae32f654b8954ea4c4635f915","","Mozilla/5.0 (Windows NT 11.0; Win64; x64) AppleWebKit/537.36 (KHTML, like Gecko) Chrome/131.0.0.0 Safari/537.36","WebKit","Chrome","131.0.0.0","Windows","11.0","https://hz8g1ckzuq.cognition.run/","en,en-US;q=0.9","o8akdyg4kotsd6n","51","[""Black or African-American""]","No","Male","1255738.9","null","","<p></p>","null","rating","tdc","attraction_2","2","washing machines","null","null","null","null","null","null","1","","","","","","","","","",""
"","","","","","rating_trial","survey-html-form","20","302656","0.0-3.0-1.8","202","1","2025-04-14 14:55:49","bb671e3ae32f654b8954ea4c4635f915","","Mozilla/5.0 (Windows NT 11.0; Win64; x64) AppleWebKit/537.36 (KHTML, like Gecko) Chrome/131.0.0.0 Safari/537.36","WebKit","Chrome","131.0.0.0","Windows","11.0","https://hz8g1ckzuq.cognition.run/","en,en-US;q=0.9","o8akdyg4kotsd6n","51","[""Black or African-American""]","No","Male","1255738.9","14502","","","{""price_1"":""450"",""price_2"":""400"",""price_3"":""350""}","rating","tdc","attraction_2","2","washing machines","null","null","null","null","null","null","1","50","60","40","60","50","60","Average lifespan","Energy savings","",""
"","","","","","rating_trial_setup","html-keyboard-response","21","302974","0.0-3.0-0.9","202","1","2025-04-14 14:55:49","bb671e3ae32f654b8954ea4c4635f915","","Mozilla/5.0 (Windows NT 11.0; Win64; x64) AppleWebKit/537.36 (KHTML, like Gecko) Chrome/131.0.0.0 Safari/537.36","WebKit","Chrome","131.0.0.0","Windows","11.0","https://hz8g1ckzuq.cognition.run/","en,en-US;q=0.9","o8akdyg4kotsd6n","51","[""Black or African-American""]","No","Male","1255738.9","null","","<p></p>","null","rating","bww","catch","null","washing machines","55","60","45","40","35","20","1","","","","","","","","","",""
"","","","","","rating_trial","survey-html-form","22","330066","0.0-3.0-1.9","202","1","2025-04-14 14:55:49","bb671e3ae32f654b8954ea4c4635f915","","Mozilla/5.0 (Windows NT 11.0; Win64; x64) AppleWebKit/537.36 (KHTML, like Gecko) Chrome/131.0.0.0 Safari/537.36","WebKit","Chrome","131.0.0.0","Windows","11.0","https://hz8g1ckzuq.cognition.run/","en,en-US;q=0.9","o8akdyg4kotsd6n","51","[""Black or African-American""]","No","Male","1255738.9","27084","","","{""price_1"":""150"",""price_2"":""200"",""price_3"":""150""}","rating","bww","catch","null","washing machines","55","60","45","40","35","20","1","null","null","null","null","null","null","Average lifespan","Energy savings","",""
"","","","","","rating_trial_setup","html-keyboard-response","23","330369","0.0-3.0-0.10","202","1","2025-04-14 14:55:49","bb671e3ae32f654b8954ea4c4635f915","","Mozilla/5.0 (Windows NT 11.0; Win64; x64) AppleWebKit/537.36 (KHTML, like Gecko) Chrome/131.0.0.0 Safari/537.36","WebKit","Chrome","131.0.0.0","Windows","11.0","https://hz8g1ckzuq.cognition.run/","en,en-US;q=0.9","o8akdyg4kotsd6n","51","[""Black or African-American""]","No","Male","1255738.9","null","","<p></p>","null","rating","wbw","catch","null","microwave ovens","90","90","30","35","25","40","2","","","","","","","","","",""
"","","","","","rating_trial","survey-html-form","24","397984","0.0-3.0-1.10","202","1","2025-04-14 14:55:49","bb671e3ae32f654b8954ea4c4635f915","","Mozilla/5.0 (Windows NT 11.0; Win64; x64) AppleWebKit/537.36 (KHTML, like Gecko) Chrome/131.0.0.0 Safari/537.36","WebKit","Chrome","131.0.0.0","Windows","11.0","https://hz8g1ckzuq.cognition.run/","en,en-US;q=0.9","o8akdyg4kotsd6n","51","[""Black or African-American""]","No","Male","1255738.9","67605","","","{""price_1"":""85"",""price_2"":""90"",""price_3"":""100""}","rating","wbw","catch","null","microwave ovens","90","90","30","35","25","40","2","null","null","null","null","null","null","Warranty","Cooking power","",""
"","","","","","rating_trial_setup","html-keyboard-response","25","398291","0.0-3.0-0.11","202","1","2025-04-14 14:55:49","bb671e3ae32f654b8954ea4c4635f915","","Mozilla/5.0 (Windows NT 11.0; Win64; x64) AppleWebKit/537.36 (KHTML, like Gecko) Chrome/131.0.0.0 Safari/537.36","WebKit","Chrome","131.0.0.0","Windows","11.0","https://hz8g1ckzuq.cognition.run/","en,en-US;q=0.9","o8akdyg4kotsd6n","51","[""Black or African-American""]","No","Male","1255738.9","null","","<p></p>","null","rating","dct","repulsion_2","2","microwave ovens","null","null","null","null","null","null","2","","","","","","","","","",""
"","","","","","rating_trial","survey-html-form","26","412324","0.0-3.0-1.11","202","1","2025-04-14 14:55:49","bb671e3ae32f654b8954ea4c4635f915","","Mozilla/5.0 (Windows NT 11.0; Win64; x64) AppleWebKit/537.36 (KHTML, like Gecko) Chrome/131.0.0.0 Safari/537.36","WebKit","Chrome","131.0.0.0","Windows","11.0","https://hz8g1ckzuq.cognition.run/","en,en-US;q=0.9","o8akdyg4kotsd6n","51","[""Black or African-American""]","No","Male","1255738.9","14023","","","{""price_1"":""100"",""price_2"":""150"",""price_3"":""125""}","rating","dct","repulsion_2","2","microwave ovens","null","null","null","null","null","null","2","30","40","20","100","90","100","Warranty","Cooking power","",""
"","","","","","rating_trial_setup","html-keyboard-response","27","412630","0.0-3.0-0.12","202","1","2025-04-14 14:55:49","bb671e3ae32f654b8954ea4c4635f915","","Mozilla/5.0 (Windows NT 11.0; Win64; x64) AppleWebKit/537.36 (KHTML, like Gecko) Chrome/131.0.0.0 Safari/537.36","WebKit","Chrome","131.0.0.0","Windows","11.0","https://hz8g1ckzuq.cognition.run/","en,en-US;q=0.9","o8akdyg4kotsd6n","51","[""Black or African-American""]","No","Male","1255738.9","null","","<p></p>","null","rating","dct","repulsion_1","2","washing machines","null","null","null","null","null","null","1","","","","","","","","","",""
"","","","","","rating_trial","survey-html-form","28","428272","0.0-3.0-1.12","202","1","2025-04-14 14:55:49","bb671e3ae32f654b8954ea4c4635f915","","Mozilla/5.0 (Windows NT 11.0; Win64; x64) AppleWebKit/537.36 (KHTML, like Gecko) Chrome/131.0.0.0 Safari/537.36","WebKit","Chrome","131.0.0.0","Windows","11.0","https://hz8g1ckzuq.cognition.run/","en,en-US;q=0.9","o8akdyg4kotsd6n","51","[""Black or African-American""]","No","Male","1255738.9","15635","","","{""price_1"":""300"",""price_2"":""315"",""price_3"":""310""}","rating","dct","repulsion_1","2","washing machines","null","null","null","null","null","null","1","30","40","25","100","90","100","Average lifespan","Energy savings","",""
"","","","","","rating_trial_setup","html-keyboard-response","29","428578","0.0-3.0-0.13","202","1","2025-04-14 14:55:49","bb671e3ae32f654b8954ea4c4635f915","","Mozilla/5.0 (Windows NT 11.0; Win64; x64) AppleWebKit/537.36 (KHTML, like Gecko) Chrome/131.0.0.0 Safari/537.36","WebKit","Chrome","131.0.0.0","Windows","11.0","https://hz8g1ckzuq.cognition.run/","en,en-US;q=0.9","o8akdyg4kotsd6n","51","[""Black or African-American""]","No","Male","1255738.9","null","","<p></p>","null","rating","tcd","repulsion_1","1","laptops","null","null","null","null","null","null","1","","","","","","","","","",""
"","","","","","rating_trial","survey-html-form","30","442569","0.0-3.0-1.13","202","1","2025-04-14 14:55:49","bb671e3ae32f654b8954ea4c4635f915","","Mozilla/5.0 (Windows NT 11.0; Win64; x64) AppleWebKit/537.36 (KHTML, like Gecko) Chrome/131.0.0.0 Safari/537.36","WebKit","Chrome","131.0.0.0","Windows","11.0","https://hz8g1ckzuq.cognition.run/","en,en-US;q=0.9","o8akdyg4kotsd6n","51","[""Black or African-American""]","No","Male","1255738.9","13983","","","{""price_1"":""200"",""price_2"":""150"",""price_3"":""180""}","rating","tcd","repulsion_1","1","laptops","null","null","null","null","null","null","1","100","90","100","30","40","25","Processing speed","Memory (RAM)","",""
"","","","","","rating_trial_setup","html-keyboard-response","31","442877","0.0-3.0-0.14","202","1","2025-04-14 14:55:49","bb671e3ae32f654b8954ea4c4635f915","","Mozilla/5.0 (Windows NT 11.0; Win64; x64) AppleWebKit/537.36 (KHTML, like Gecko) Chrome/131.0.0.0 Safari/537.36","WebKit","Chrome","131.0.0.0","Windows","11.0","https://hz8g1ckzuq.cognition.run/","en,en-US;q=0.9","o8akdyg4kotsd6n","51","[""Black or African-American""]","No","Male","1255738.9","null","","<p></p>","null","rating","dtc","repulsion_1","2","microwave ovens","null","null","null","null","null","null","1","","","","","","","","","",""
"","","","","","rating_trial","survey-html-form","32","458737","0.0-3.0-1.14","202","1","2025-04-14 14:55:49","bb671e3ae32f654b8954ea4c4635f915","","Mozilla/5.0 (Windows NT 11.0; Win64; x64) AppleWebKit/537.36 (KHTML, like Gecko) Chrome/131.0.0.0 Safari/537.36","WebKit","Chrome","131.0.0.0","Windows","11.0","https://hz8g1ckzuq.cognition.run/","en,en-US;q=0.9","o8akdyg4kotsd6n","51","[""Black or African-American""]","No","Male","1255738.9","15852","","","{""price_1"":""100"",""price_2"":""115"",""price_3"":""150""}","rating","dtc","repulsion_1","2","microwave ovens","null","null","null","null","null","null","1","30","40","25","100","90","100","Warranty","Cooking power","",""
"","","","","","rating_trial_setup","html-keyboard-response","33","459043","0.0-3.0-0.15","202","1","2025-04-14 14:55:49","bb671e3ae32f654b8954ea4c4635f915","","Mozilla/5.0 (Windows NT 11.0; Win64; x64) AppleWebKit/537.36 (KHTML, like Gecko) Chrome/131.0.0.0 Safari/537.36","WebKit","Chrome","131.0.0.0","Windows","11.0","https://hz8g1ckzuq.cognition.run/","en,en-US;q=0.9","o8akdyg4kotsd6n","51","[""Black or African-American""]","No","Male","1255738.9","null","","<p></p>","null","rating","dct","repulsion_1","1","microwave ovens","null","null","null","null","null","null","2","","","","","","","","","",""
"","","","","","rating_trial","survey-html-form","34","475618","0.0-3.0-1.15","202","1","2025-04-14 14:55:49","bb671e3ae32f654b8954ea4c4635f915","","Mozilla/5.0 (Windows NT 11.0; Win64; x64) AppleWebKit/537.36 (KHTML, like Gecko) Chrome/131.0.0.0 Safari/537.36","WebKit","Chrome","131.0.0.0","Windows","11.0","https://hz8g1ckzuq.cognition.run/","en,en-US;q=0.9","o8akdyg4kotsd6n","51","[""Black or African-American""]","No","Male","1255738.9","16567","","","{""price_1"":""115"",""price_2"":""120"",""price_3"":""150""}","rating","dct","repulsion_1","1","microwave ovens","null","null","null","null","null","null","2","100","90","100","30","40","25","Warranty","Cooking power","",""
"","","","","","rating_trial_setup","html-keyboard-response","35","475925","0.0-3.0-0.16","202","1","2025-04-14 14:55:49","bb671e3ae32f654b8954ea4c4635f915","","Mozilla/5.0 (Windows NT 11.0; Win64; x64) AppleWebKit/537.36 (KHTML, like Gecko) Chrome/131.0.0.0 Safari/537.36","WebKit","Chrome","131.0.0.0","Windows","11.0","https://hz8g1ckzuq.cognition.run/","en,en-US;q=0.9","o8akdyg4kotsd6n","51","[""Black or African-American""]","No","Male","1255738.9","null","","<p></p>","null","rating","dct","repulsion_2","1","microwave ovens","null","null","null","null","null","null","1","","","","","","","","","",""
"","","","","","rating_trial","survey-html-form","36","490175","0.0-3.0-1.16","202","1","2025-04-14 14:55:49","bb671e3ae32f654b8954ea4c4635f915","","Mozilla/5.0 (Windows NT 11.0; Win64; x64) AppleWebKit/537.36 (KHTML, like Gecko) Chrome/131.0.0.0 Safari/537.36","WebKit","Chrome","131.0.0.0","Windows","11.0","https://hz8g1ckzuq.cognition.run/","en,en-US;q=0.9","o8akdyg4kotsd6n","51","[""Black or African-American""]","No","Male","1255738.9","14239","","","{""price_1"":""85"",""price_2"":""100"",""price_3"":""125""}","rating","dct","repulsion_2","1","microwave ovens","null","null","null","null","null","null","1","100","90","100","30","40","20","Warranty","Cooking power","",""
"","","","","","rating_trial_setup","html-keyboard-response","37","490483","0.0-3.0-0.17","202","1","2025-04-14 14:55:49","bb671e3ae32f654b8954ea4c4635f915","","Mozilla/5.0 (Windows NT 11.0; Win64; x64) AppleWebKit/537.36 (KHTML, like Gecko) Chrome/131.0.0.0 Safari/537.36","WebKit","Chrome","131.0.0.0","Windows","11.0","https://hz8g1ckzuq.cognition.run/","en,en-US;q=0.9","o8akdyg4kotsd6n","51","[""Black or African-American""]","No","Male","1255738.9","null","","<p></p>","null","rating","dct","attraction_1","1","microwave ovens","null","null","null","null","null","null","1","","","","","","","","","",""
"","","","","","rating_trial","survey-html-form","38","528694","0.0-3.0-1.17","202","1","2025-04-14 14:55:49","bb671e3ae32f654b8954ea4c4635f915","","Mozilla/5.0 (Windows NT 11.0; Win64; x64) AppleWebKit/537.36 (KHTML, like Gecko) Chrome/131.0.0.0 Safari/537.36","WebKit","Chrome","131.0.0.0","Windows","11.0","https://hz8g1ckzuq.cognition.run/","en,en-US;q=0.9","o8akdyg4kotsd6n","51","[""Black or African-American""]","No","Male","1255738.9","38202","","","{""price_1"":""100"",""price_2"":""115"",""price_3"":""120""}","rating","dct","attraction_1","1","microwave ovens","null","null","null","null","null","null","1","60","50","60","50","60","45","Warranty","Cooking power","",""
"","","","","","rating_trial_setup","html-keyboard-response","39","529003","0.0-3.0-0.18","202","1","2025-04-14 14:55:49","bb671e3ae32f654b8954ea4c4635f915","","Mozilla/5.0 (Windows NT 11.0; Win64; x64) AppleWebKit/537.36 (KHTML, like Gecko) Chrome/131.0.0.0 Safari/537.36","WebKit","Chrome","131.0.0.0","Windows","11.0","https://hz8g1ckzuq.cognition.run/","en,en-US;q=0.9","o8akdyg4kotsd6n","51","[""Black or African-American""]","No","Male","1255738.9","null","","<p></p>","null","rating","dct","attraction_1","1","washing machines","null","null","null","null","null","null","1","","","","","","","","","",""
"","","","","","rating_trial","survey-html-form","40","543285","0.0-3.0-1.18","202","1","2025-04-14 14:55:49","bb671e3ae32f654b8954ea4c4635f915","","Mozilla/5.0 (Windows NT 11.0; Win64; x64) AppleWebKit/537.36 (KHTML, like Gecko) Chrome/131.0.0.0 Safari/537.36","WebKit","Chrome","131.0.0.0","Windows","11.0","https://hz8g1ckzuq.cognition.run/","en,en-US;q=0.9","o8akdyg4kotsd6n","51","[""Black or African-American""]","No","Male","1255738.9","14272","","","{""price_1"":""300"",""price_2"":""350"",""price_3"":""320""}","rating","dct","attraction_1","1","washing machines","null","null","null","null","null","null","1","60","50","60","50","60","45","Average lifespan","Energy savings","",""
"","","","","","rating_trial_setup","html-keyboard-response","41","543589","0.0-3.0-0.19","202","1","2025-04-14 14:55:49","bb671e3ae32f654b8954ea4c4635f915","","Mozilla/5.0 (Windows NT 11.0; Win64; x64) AppleWebKit/537.36 (KHTML, like Gecko) Chrome/131.0.0.0 Safari/537.36","WebKit","Chrome","131.0.0.0","Windows","11.0","https://hz8g1ckzuq.cognition.run/","en,en-US;q=0.9","o8akdyg4kotsd6n","51","[""Black or African-American""]","No","Male","1255738.9","null","","<p></p>","null","rating","bww","catch","null","televisions","60","95","40","20","45","50","1","","","","","","","","","",""
"","","","","","rating_trial","survey-html-form","42","558940","0.0-3.0-1.19","202","1","2025-04-14 14:55:49","bb671e3ae32f654b8954ea4c4635f915","","Mozilla/5.0 (Windows NT 11.0; Win64; x64) AppleWebKit/537.36 (KHTML, like Gecko) Chrome/131.0.0.0 Safari/537.36","WebKit","Chrome","131.0.0.0","Windows","11.0","https://hz8g1ckzuq.cognition.run/","en,en-US;q=0.9","o8akdyg4kotsd6n","51","[""Black or African-American""]","No","Male","1255738.9","15340","","","{""price_1"":""150"",""price_2"":""120"",""price_3"":""145""}","rating","bww","catch","null","televisions","60","95","40","20","45","50","1","null","null","null","null","null","null","Screen size","Average lifespan","",""
"","","","","","rating_trial_setup","html-keyboard-response","43","559248","0.0-3.0-0.20","202","1","2025-04-14 14:55:49","bb671e3ae32f654b8954ea4c4635f915","","Mozilla/5.0 (Windows NT 11.0; Win64; x64) AppleWebKit/537.36 (KHTML, like Gecko) Chrome/131.0.0.0 Safari/537.36","WebKit","Chrome","131.0.0.0","Windows","11.0","https://hz8g1ckzuq.cognition.run/","en,en-US;q=0.9","o8akdyg4kotsd6n","51","[""Black or African-American""]","No","Male","1255738.9","null","","<p></p>","null","rating","ctd","repulsion_2","2","washing machines","null","null","null","null","null","null","1","","","","","","","","","",""
"","","","","","rating_trial","survey-html-form","44","573824","0.0-3.0-1.20","202","1","2025-04-14 14:55:49","bb671e3ae32f654b8954ea4c4635f915","","Mozilla/5.0 (Windows NT 11.0; Win64; x64) AppleWebKit/537.36 (KHTML, like Gecko) Chrome/131.0.0.0 Safari/537.36","WebKit","Chrome","131.0.0.0","Windows","11.0","https://hz8g1ckzuq.cognition.run/","en,en-US;q=0.9","o8akdyg4kotsd6n","51","[""Black or African-American""]","No","Male","1255738.9","14566","","","{""price_1"":""350"",""price_2"":""300"",""price_3"":""350""}","rating","ctd","repulsion_2","2","washing machines","null","null","null","null","null","null","1","30","40","20","100","90","100","Average lifespan","Energy savings","",""
"","","","","","rating_trial_setup","html-keyboard-response","45","574131","0.0-3.0-0.21","202","1","2025-04-14 14:55:49","bb671e3ae32f654b8954ea4c4635f915","","Mozilla/5.0 (Windows NT 11.0; Win64; x64) AppleWebKit/537.36 (KHTML, like Gecko) Chrome/131.0.0.0 Safari/537.36","WebKit","Chrome","131.0.0.0","Windows","11.0","https://hz8g1ckzuq.cognition.run/","en,en-US;q=0.9","o8akdyg4kotsd6n","51","[""Black or African-American""]","No","Male","1255738.9","null","","<p></p>","null","rating","tcd","attraction_2","1","microwave ovens","null","null","null","null","null","null","2","","","","","","","","","",""
"","","","","","rating_trial","survey-html-form","46","586722","0.0-3.0-1.21","202","1","2025-04-14 14:55:49","bb671e3ae32f654b8954ea4c4635f915","","Mozilla/5.0 (Windows NT 11.0; Win64; x64) AppleWebKit/537.36 (KHTML, like Gecko) Chrome/131.0.0.0 Safari/537.36","WebKit","Chrome","131.0.0.0","Windows","11.0","https://hz8g1ckzuq.cognition.run/","en,en-US;q=0.9","o8akdyg4kotsd6n","51","[""Black or African-American""]","No","Male","1255738.9","12586","","","{""price_1"":""86"",""price_2"":""95"",""price_3"":""100""}","rating","tcd","attraction_2","1","microwave ovens","null","null","null","null","null","null","2","60","50","60","50","60","40","Warranty","Cooking power","",""
"","","","","","rating_trial_setup","html-keyboard-response","47","587027","0.0-3.0-0.22","202","1","2025-04-14 14:55:49","bb671e3ae32f654b8954ea4c4635f915","","Mozilla/5.0 (Windows NT 11.0; Win64; x64) AppleWebKit/537.36 (KHTML, like Gecko) Chrome/131.0.0.0 Safari/537.36","WebKit","Chrome","131.0.0.0","Windows","11.0","https://hz8g1ckzuq.cognition.run/","en,en-US;q=0.9","o8akdyg4kotsd6n","51","[""Black or African-American""]","No","Male","1255738.9","null","","<p></p>","null","rating","tcd","attraction_2","1","televisions","null","null","null","null","null","null","1","","","","","","","","","",""
"","","","","","rating_trial","survey-html-form","48","603343","0.0-3.0-1.22","202","1","2025-04-14 14:55:49","bb671e3ae32f654b8954ea4c4635f915","","Mozilla/5.0 (Windows NT 11.0; Win64; x64) AppleWebKit/537.36 (KHTML, like Gecko) Chrome/131.0.0.0 Safari/537.36","WebKit","Chrome","131.0.0.0","Windows","11.0","https://hz8g1ckzuq.cognition.run/","en,en-US;q=0.9","o8akdyg4kotsd6n","51","[""Black or African-American""]","No","Male","1255738.9","16310","","","{""price_1"":""146"",""price_2"":""200"",""price_3"":""250""}","rating","tcd","attraction_2","1","televisions","null","null","null","null","null","null","1","60","50","60","50","60","40","Screen size","Average lifespan","",""
"","","","","","rating_trial_setup","html-keyboard-response","49","603652","0.0-3.0-0.23","202","1","2025-04-14 14:55:49","bb671e3ae32f654b8954ea4c4635f915","","Mozilla/5.0 (Windows NT 11.0; Win64; x64) AppleWebKit/537.36 (KHTML, like Gecko) Chrome/131.0.0.0 Safari/537.36","WebKit","Chrome","131.0.0.0","Windows","11.0","https://hz8g1ckzuq.cognition.run/","en,en-US;q=0.9","o8akdyg4kotsd6n","51","[""Black or African-American""]","No","Male","1255738.9","null","","<p></p>","null","rating","dct","attraction_1","1","televisions","null","null","null","null","null","null","2","","","","","","","","","",""
"","","","","","rating_trial","survey-html-form","50","616632","0.0-3.0-1.23","202","1","2025-04-14 14:55:49","bb671e3ae32f654b8954ea4c4635f915","","Mozilla/5.0 (Windows NT 11.0; Win64; x64) AppleWebKit/537.36 (KHTML, like Gecko) Chrome/131.0.0.0 Safari/537.36","WebKit","Chrome","131.0.0.0","Windows","11.0","https://hz8g1ckzuq.cognition.run/","en,en-US;q=0.9","o8akdyg4kotsd6n","51","[""Black or African-American""]","No","Male","1255738.9","12969","","","{""price_1"":""120"",""price_2"":""135"",""price_3"":""170""}","rating","dct","attraction_1","1","televisions","null","null","null","null","null","null","2","60","50","60","50","60","45","Screen size","Average lifespan","",""
"","","","","","rating_trial_setup","html-keyboard-response","51","616940","0.0-3.0-0.24","202","1","2025-04-14 14:55:49","bb671e3ae32f654b8954ea4c4635f915","","Mozilla/5.0 (Windows NT 11.0; Win64; x64) AppleWebKit/537.36 (KHTML, like Gecko) Chrome/131.0.0.0 Safari/537.36","WebKit","Chrome","131.0.0.0","Windows","11.0","https://hz8g1ckzuq.cognition.run/","en,en-US;q=0.9","o8akdyg4kotsd6n","51","[""Black or African-American""]","No","Male","1255738.9","null","","<p></p>","null","rating","cdt","attraction_2","1","washing machines","null","null","null","null","null","null","2","","","","","","","","","",""
"","","","","","rating_trial","survey-html-form","52","632716","0.0-3.0-1.24","202","1","2025-04-14 14:55:49","bb671e3ae32f654b8954ea4c4635f915","","Mozilla/5.0 (Windows NT 11.0; Win64; x64) AppleWebKit/537.36 (KHTML, like Gecko) Chrome/131.0.0.0 Safari/537.36","WebKit","Chrome","131.0.0.0","Windows","11.0","https://hz8g1ckzuq.cognition.run/","en,en-US;q=0.9","o8akdyg4kotsd6n","51","[""Black or African-American""]","No","Male","1255738.9","15765","","","{""price_1"":""350"",""price_2"":""300"",""price_3"":""250""}","rating","cdt","attraction_2","1","washing machines","null","null","null","null","null","null","2","60","50","60","50","60","40","Average lifespan","Energy savings","",""
"","","","","","rating_trial_setup","html-keyboard-response","53","633025","0.0-3.0-0.25","202","1","2025-04-14 14:55:49","bb671e3ae32f654b8954ea4c4635f915","","Mozilla/5.0 (Windows NT 11.0; Win64; x64) AppleWebKit/537.36 (KHTML, like Gecko) Chrome/131.0.0.0 Safari/537.36","WebKit","Chrome","131.0.0.0","Windows","11.0","https://hz8g1ckzuq.cognition.run/","en,en-US;q=0.9","o8akdyg4kotsd6n","51","[""Black or African-American""]","No","Male","1255738.9","null","","<p></p>","null","rating","dct","repulsion_2","1","laptops","null","null","null","null","null","null","2","","","","","","","","","",""
"","","","","","rating_trial","survey-html-form","54","648007","0.0-3.0-1.25","202","1","2025-04-14 14:55:49","bb671e3ae32f654b8954ea4c4635f915","","Mozilla/5.0 (Windows NT 11.0; Win64; x64) AppleWebKit/537.36 (KHTML, like Gecko) Chrome/131.0.0.0 Safari/537.36","WebKit","Chrome","131.0.0.0","Windows","11.0","https://hz8g1ckzuq.cognition.run/","en,en-US;q=0.9","o8akdyg4kotsd6n","51","[""Black or African-American""]","No","Male","1255738.9","14970","","","{""price_1"":""350"",""price_2"":""300"",""price_3"":""290""}","rating","dct","repulsion_2","1","laptops","null","null","null","null","null","null","2","100","90","100","30","40","20","Processing speed","Memory (RAM)","",""
"","","","","","rating_trial_setup","html-keyboard-response","55","648316","0.0-3.0-0.26","202","1","2025-04-14 14:55:49","bb671e3ae32f654b8954ea4c4635f915","","Mozilla/5.0 (Windows NT 11.0; Win64; x64) AppleWebKit/537.36 (KHTML, like Gecko) Chrome/131.0.0.0 Safari/537.36","WebKit","Chrome","131.0.0.0","Windows","11.0","https://hz8g1ckzuq.cognition.run/","en,en-US;q=0.9","o8akdyg4kotsd6n","51","[""Black or African-American""]","No","Male","1255738.9","null","","<p></p>","null","rating","tdc","attraction_1","1","laptops","null","null","null","null","null","null","1","","","","","","","","","",""
"","","","","","rating_trial","survey-html-form","56","667812","0.0-3.0-1.26","202","1","2025-04-14 14:55:49","bb671e3ae32f654b8954ea4c4635f915","","Mozilla/5.0 (Windows NT 11.0; Win64; x64) AppleWebKit/537.36 (KHTML, like Gecko) Chrome/131.0.0.0 Safari/537.36","WebKit","Chrome","131.0.0.0","Windows","11.0","https://hz8g1ckzuq.cognition.run/","en,en-US;q=0.9","o8akdyg4kotsd6n","51","[""Black or African-American""]","No","Male","1255738.9","19486","","","{""price_1"":""125"",""price_2"":""150"",""price_3"":""180""}","rating","tdc","attraction_1","1","laptops","null","null","null","null","null","null","1","60","50","60","50","60","45","Processing speed","Memory (RAM)","",""
"","","","","","rating_trial_setup","html-keyboard-response","57","668122","0.0-3.0-0.27","202","1","2025-04-14 14:55:49","bb671e3ae32f654b8954ea4c4635f915","","Mozilla/5.0 (Windows NT 11.0; Win64; x64) AppleWebKit/537.36 (KHTML, like Gecko) Chrome/131.0.0.0 Safari/537.36","WebKit","Chrome","131.0.0.0","Windows","11.0","https://hz8g1ckzuq.cognition.run/","en,en-US;q=0.9","o8akdyg4kotsd6n","51","[""Black or African-American""]","No","Male","1255738.9","null","","<p></p>","null","rating","wwb","catch","null","laptops","60","75","5","5","35","45","2","","","","","","","","","",""
"","","","","","rating_trial","survey-html-form","58","683498","0.0-3.0-1.27","202","1","2025-04-14 14:55:49","bb671e3ae32f654b8954ea4c4635f915","","Mozilla/5.0 (Windows NT 11.0; Win64; x64) AppleWebKit/537.36 (KHTML, like Gecko) Chrome/131.0.0.0 Safari/537.36","WebKit","Chrome","131.0.0.0","Windows","11.0","https://hz8g1ckzuq.cognition.run/","en,en-US;q=0.9","o8akdyg4kotsd6n","51","[""Black or African-American""]","No","Male","1255738.9","15364","","","{""price_1"":""150"",""price_2"":""200"",""price_3"":""250""}","rating","wwb","catch","null","laptops","60","75","5","5","35","45","2","null","null","null","null","null","null","Processing speed","Memory (RAM)","",""
"","","","","","rating_trial_setup","html-keyboard-response","59","683806","0.0-3.0-0.28","202","1","2025-04-14 14:55:49","bb671e3ae32f654b8954ea4c4635f915","","Mozilla/5.0 (Windows NT 11.0; Win64; x64) AppleWebKit/537.36 (KHTML, like Gecko) Chrome/131.0.0.0 Safari/537.36","WebKit","Chrome","131.0.0.0","Windows","11.0","https://hz8g1ckzuq.cognition.run/","en,en-US;q=0.9","o8akdyg4kotsd6n","51","[""Black or African-American""]","No","Male","1255738.9","null","","<p></p>","null","rating","dtc","repulsion_2","2","televisions","null","null","null","null","null","null","1","","","","","","","","","",""
"","","","","","rating_trial","survey-html-form","60","701872","0.0-3.0-1.28","202","1","2025-04-14 14:55:49","bb671e3ae32f654b8954ea4c4635f915","","Mozilla/5.0 (Windows NT 11.0; Win64; x64) AppleWebKit/537.36 (KHTML, like Gecko) Chrome/131.0.0.0 Safari/537.36","WebKit","Chrome","131.0.0.0","Windows","11.0","https://hz8g1ckzuq.cognition.run/","en,en-US;q=0.9","o8akdyg4kotsd6n","51","[""Black or African-American""]","No","Male","1255738.9","18053","","","{""price_1"":""126"",""price_2"":""130"",""price_3"":""130""}","rating","dtc","repulsion_2","2","televisions","null","null","null","null","null","null","1","30","40","20","100","90","100","Screen size","Average lifespan","",""
"","","","","","rating_trial_setup","html-keyboard-response","61","702182","0.0-3.0-0.29","202","1","2025-04-14 14:55:49","bb671e3ae32f654b8954ea4c4635f915","","Mozilla/5.0 (Windows NT 11.0; Win64; x64) AppleWebKit/537.36 (KHTML, like Gecko) Chrome/131.0.0.0 Safari/537.36","WebKit","Chrome","131.0.0.0","Windows","11.0","https://hz8g1ckzuq.cognition.run/","en,en-US;q=0.9","o8akdyg4kotsd6n","51","[""Black or African-American""]","No","Male","1255738.9","null","","<p></p>","null","rating","wwb","catch","null","washing machines","60","70","50","50","50","40","1","","","","","","","","","",""
"","","","","","rating_trial","survey-html-form","62","718341","0.0-3.0-1.29","202","1","2025-04-14 14:55:49","bb671e3ae32f654b8954ea4c4635f915","","Mozilla/5.0 (Windows NT 11.0; Win64; x64) AppleWebKit/537.36 (KHTML, like Gecko) Chrome/131.0.0.0 Safari/537.36","WebKit","Chrome","131.0.0.0","Windows","11.0","https://hz8g1ckzuq.cognition.run/","en,en-US;q=0.9","o8akdyg4kotsd6n","51","[""Black or African-American""]","No","Male","1255738.9","16146","","","{""price_1"":""350"",""price_2"":""300"",""price_3"":""300""}","rating","wwb","catch","null","washing machines","60","70","50","50","50","40","1","null","null","null","null","null","null","Average lifespan","Energy savings","",""
"","","","","","rating_trial_setup","html-keyboard-response","63","718651","0.0-3.0-0.30","202","1","2025-04-14 14:55:49","bb671e3ae32f654b8954ea4c4635f915","","Mozilla/5.0 (Windows NT 11.0; Win64; x64) AppleWebKit/537.36 (KHTML, like Gecko) Chrome/131.0.0.0 Safari/537.36","WebKit","Chrome","131.0.0.0","Windows","11.0","https://hz8g1ckzuq.cognition.run/","en,en-US;q=0.9","o8akdyg4kotsd6n","51","[""Black or African-American""]","No","Male","1255738.9","null","","<p></p>","null","rating","tcd","attraction_2","2","laptops","null","null","null","null","null","null","2","","","","","","","","","",""
"","","","","","rating_trial","survey-html-form","64","733795","0.0-3.0-1.30","202","1","2025-04-14 14:55:49","bb671e3ae32f654b8954ea4c4635f915","","Mozilla/5.0 (Windows NT 11.0; Win64; x64) AppleWebKit/537.36 (KHTML, like Gecko) Chrome/131.0.0.0 Safari/537.36","WebKit","Chrome","131.0.0.0","Windows","11.0","https://hz8g1ckzuq.cognition.run/","en,en-US;q=0.9","o8akdyg4kotsd6n","51","[""Black or African-American""]","No","Male","1255738.9","15131","","","{""price_1"":""160"",""price_2"":""170"",""price_3"":""190""}","rating","tcd","attraction_2","2","laptops","null","null","null","null","null","null","2","50","60","40","60","50","60","Processing speed","Memory (RAM)","",""
"","","","","","rating_trial_setup","html-keyboard-response","65","734105","0.0-3.0-0.31","202","1","2025-04-14 14:55:49","bb671e3ae32f654b8954ea4c4635f915","","Mozilla/5.0 (Windows NT 11.0; Win64; x64) AppleWebKit/537.36 (KHTML, like Gecko) Chrome/131.0.0.0 Safari/537.36","WebKit","Chrome","131.0.0.0","Windows","11.0","https://hz8g1ckzuq.cognition.run/","en,en-US;q=0.9","o8akdyg4kotsd6n","51","[""Black or African-American""]","No","Male","1255738.9","null","","<p></p>","null","rating","tcd","attraction_1","2","laptops","null","null","null","null","null","null","1","","","","","","","","","",""
"","","","","","rating_trial","survey-html-form","66","748255","0.0-3.0-1.31","202","1","2025-04-14 14:55:49","bb671e3ae32f654b8954ea4c4635f915","","Mozilla/5.0 (Windows NT 11.0; Win64; x64) AppleWebKit/537.36 (KHTML, like Gecko) Chrome/131.0.0.0 Safari/537.36","WebKit","Chrome","131.0.0.0","Windows","11.0","https://hz8g1ckzuq.cognition.run/","en,en-US;q=0.9","o8akdyg4kotsd6n","51","[""Black or African-American""]","No","Male","1255738.9","14136","","","{""price_1"":""150"",""price_2"":""130"",""price_3"":""120""}","rating","tcd","attraction_1","2","laptops","null","null","null","null","null","null","1","50","60","45","60","50","60","Processing speed","Memory (RAM)","",""
"","","","","","rating_trial_setup","html-keyboard-response","67","748565","0.0-3.0-0.32","202","1","2025-04-14 14:55:49","bb671e3ae32f654b8954ea4c4635f915","","Mozilla/5.0 (Windows NT 11.0; Win64; x64) AppleWebKit/537.36 (KHTML, like Gecko) Chrome/131.0.0.0 Safari/537.36","WebKit","Chrome","131.0.0.0","Windows","11.0","https://hz8g1ckzuq.cognition.run/","en,en-US;q=0.9","o8akdyg4kotsd6n","51","[""Black or African-American""]","No","Male","1255738.9","null","","<p></p>","null","rating","cdt","attraction_1","2","washing machines","null","null","null","null","null","null","1","","","","","","","","","",""
"","","","","","rating_trial","survey-html-form","68","765940","0.0-3.0-1.32","202","1","2025-04-14 14:55:49","bb671e3ae32f654b8954ea4c4635f915","","Mozilla/5.0 (Windows NT 11.0; Win64; x64) AppleWebKit/537.36 (KHTML, like Gecko) Chrome/131.0.0.0 Safari/537.36","WebKit","Chrome","131.0.0.0","Windows","11.0","https://hz8g1ckzuq.cognition.run/","en,en-US;q=0.9","o8akdyg4kotsd6n","51","[""Black or African-American""]","No","Male","1255738.9","17361","","","{""price_1"":""350"",""price_2"":""300"",""price_3"":""350""}","rating","cdt","attraction_1","2","washing machines","null","null","null","null","null","null","1","50","60","45","60","50","60","Average lifespan","Energy savings","",""
"","","","","","rating_trial_setup","html-keyboard-response","69","766250","0.0-3.0-0.33","202","1","2025-04-14 14:55:49","bb671e3ae32f654b8954ea4c4635f915","","Mozilla/5.0 (Windows NT 11.0; Win64; x64) AppleWebKit/537.36 (KHTML, like Gecko) Chrome/131.0.0.0 Safari/537.36","WebKit","Chrome","131.0.0.0","Windows","11.0","https://hz8g1ckzuq.cognition.run/","en,en-US;q=0.9","o8akdyg4kotsd6n","51","[""Black or African-American""]","No","Male","1255738.9","null","","<p></p>","null","rating","tcd","repulsion_1","2","televisions","null","null","null","null","null","null","1","","","","","","","","","",""
"","","","","","rating_trial","survey-html-form","70","779675","0.0-3.0-1.33","202","1","2025-04-14 14:55:49","bb671e3ae32f654b8954ea4c4635f915","","Mozilla/5.0 (Windows NT 11.0; Win64; x64) AppleWebKit/537.36 (KHTML, like Gecko) Chrome/131.0.0.0 Safari/537.36","WebKit","Chrome","131.0.0.0","Windows","11.0","https://hz8g1ckzuq.cognition.run/","en,en-US;q=0.9","o8akdyg4kotsd6n","51","[""Black or African-American""]","No","Male","1255738.9","13411","","","{""price_1"":""120"",""price_2"":""130"",""price_3"":""150""}","rating","tcd","repulsion_1","2","televisions","null","null","null","null","null","null","1","30","40","25","100","90","100","Screen size","Average lifespan","",""
"","","","","","rating_trial_setup","html-keyboard-response","71","779986","0.0-3.0-0.34","202","1","2025-04-14 14:55:49","bb671e3ae32f654b8954ea4c4635f915","","Mozilla/5.0 (Windows NT 11.0; Win64; x64) AppleWebKit/537.36 (KHTML, like Gecko) Chrome/131.0.0.0 Safari/537.36","WebKit","Chrome","131.0.0.0","Windows","11.0","https://hz8g1ckzuq.cognition.run/","en,en-US;q=0.9","o8akdyg4kotsd6n","51","[""Black or African-American""]","No","Male","1255738.9","null","","<p></p>","null","rating","ctd","attraction_1","2","televisions","null","null","null","null","null","null","1","","","","","","","","","",""
"","","","","","rating_trial","survey-html-form","72","795813","0.0-3.0-1.34","202","1","2025-04-14 14:55:49","bb671e3ae32f654b8954ea4c4635f915","","Mozilla/5.0 (Windows NT 11.0; Win64; x64) AppleWebKit/537.36 (KHTML, like Gecko) Chrome/131.0.0.0 Safari/537.36","WebKit","Chrome","131.0.0.0","Windows","11.0","https://hz8g1ckzuq.cognition.run/","en,en-US;q=0.9","o8akdyg4kotsd6n","51","[""Black or African-American""]","No","Male","1255738.9","15811","","","{""price_1"":""135"",""price_2"":""140"",""price_3"":""140""}","rating","ctd","attraction_1","2","televisions","null","null","null","null","null","null","1","50","60","45","60","50","60","Screen size","Average lifespan","",""
"","","","","","rating_trial_setup","html-keyboard-response","73","796130","0.0-3.0-0.35","202","1","2025-04-14 14:55:49","bb671e3ae32f654b8954ea4c4635f915","","Mozilla/5.0 (Windows NT 11.0; Win64; x64) AppleWebKit/537.36 (KHTML, like Gecko) Chrome/131.0.0.0 Safari/537.36","WebKit","Chrome","131.0.0.0","Windows","11.0","https://hz8g1ckzuq.cognition.run/","en,en-US;q=0.9","o8akdyg4kotsd6n","51","[""Black or African-American""]","No","Male","1255738.9","null","","<p></p>","null","rating","bww","catch","null","microwave ovens","90","50","20","20","50","40","2","","","","","","","","","",""
"","","","","","rating_trial","survey-html-form","74","810663","0.0-3.0-1.35","202","1","2025-04-14 14:55:49","bb671e3ae32f654b8954ea4c4635f915","","Mozilla/5.0 (Windows NT 11.0; Win64; x64) AppleWebKit/537.36 (KHTML, like Gecko) Chrome/131.0.0.0 Safari/537.36","WebKit","Chrome","131.0.0.0","Windows","11.0","https://hz8g1ckzuq.cognition.run/","en,en-US;q=0.9","o8akdyg4kotsd6n","51","[""Black or African-American""]","No","Male","1255738.9","14519","","","{""price_1"":""95"",""price_2"":""100"",""price_3"":""125""}","rating","bww","catch","null","microwave ovens","90","50","20","20","50","40","2","null","null","null","null","null","null","Warranty","Cooking power","",""
"","","","","","rating_trial_setup","html-keyboard-response","75","810975","0.0-3.0-0.36","202","1","2025-04-14 14:55:49","bb671e3ae32f654b8954ea4c4635f915","","Mozilla/5.0 (Windows NT 11.0; Win64; x64) AppleWebKit/537.36 (KHTML, like Gecko) Chrome/131.0.0.0 Safari/537.36","WebKit","Chrome","131.0.0.0","Windows","11.0","https://hz8g1ckzuq.cognition.run/","en,en-US;q=0.9","o8akdyg4kotsd6n","51","[""Black or African-American""]","No","Male","1255738.9","null","","<p></p>","null","rating","tcd","attraction_2","1","laptops","null","null","null","null","null","null","2","","","","","","","","","",""
"","","","","","rating_trial","survey-html-form","76","823431","0.0-3.0-1.36","202","1","2025-04-14 14:55:49","bb671e3ae32f654b8954ea4c4635f915","","Mozilla/5.0 (Windows NT 11.0; Win64; x64) AppleWebKit/537.36 (KHTML, like Gecko) Chrome/131.0.0.0 Safari/537.36","WebKit","Chrome","131.0.0.0","Windows","11.0","https://hz8g1ckzuq.cognition.run/","en,en-US;q=0.9","o8akdyg4kotsd6n","51","[""Black or African-American""]","No","Male","1255738.9","12442","","","{""price_1"":""140"",""price_2"":""145"",""price_3"":""130""}","rating","tcd","attraction_2","1","laptops","null","null","null","null","null","null","2","60","50","60","50","60","40","Processing speed","Memory (RAM)","",""
"","","","","","rating_trial_setup","html-keyboard-response","77","823743","0.0-3.0-0.37","202","1","2025-04-14 14:55:49","bb671e3ae32f654b8954ea4c4635f915","","Mozilla/5.0 (Windows NT 11.0; Win64; x64) AppleWebKit/537.36 (KHTML, like Gecko) Chrome/131.0.0.0 Safari/537.36","WebKit","Chrome","131.0.0.0","Windows","11.0","https://hz8g1ckzuq.cognition.run/","en,en-US;q=0.9","o8akdyg4kotsd6n","51","[""Black or African-American""]","No","Male","1255738.9","null","","<p></p>","null","rating","ctd","repulsion_1","2","laptops","null","null","null","null","null","null","2","","","","","","","","","",""
"","","","","","rating_trial","survey-html-form","78","834806","0.0-3.0-1.37","202","1","2025-04-14 14:55:49","bb671e3ae32f654b8954ea4c4635f915","","Mozilla/5.0 (Windows NT 11.0; Win64; x64) AppleWebKit/537.36 (KHTML, like Gecko) Chrome/131.0.0.0 Safari/537.36","WebKit","Chrome","131.0.0.0","Windows","11.0","https://hz8g1ckzuq.cognition.run/","en,en-US;q=0.9","o8akdyg4kotsd6n","51","[""Black or African-American""]","No","Male","1255738.9","11048","","","{""price_1"":""130"",""price_2"":""140"",""price_3"":""145""}","rating","ctd","repulsion_1","2","laptops","null","null","null","null","null","null","2","30","40","25","100","90","100","Processing speed","Memory (RAM)","",""
"","","","","","rating_trial_setup","html-keyboard-response","79","835114","0.0-3.0-0.38","202","1","2025-04-14 14:55:49","bb671e3ae32f654b8954ea4c4635f915","","Mozilla/5.0 (Windows NT 11.0; Win64; x64) AppleWebKit/537.36 (KHTML, like Gecko) Chrome/131.0.0.0 Safari/537.36","WebKit","Chrome","131.0.0.0","Windows","11.0","https://hz8g1ckzuq.cognition.run/","en,en-US;q=0.9","o8akdyg4kotsd6n","51","[""Black or African-American""]","No","Male","1255738.9","null","","<p></p>","null","rating","dct","repulsion_2","1","televisions","null","null","null","null","null","null","1","","","","","","","","","",""
"","","","","","rating_trial","survey-html-form","80","845952","0.0-3.0-1.38","202","1","2025-04-14 14:55:49","bb671e3ae32f654b8954ea4c4635f915","","Mozilla/5.0 (Windows NT 11.0; Win64; x64) AppleWebKit/537.36 (KHTML, like Gecko) Chrome/131.0.0.0 Safari/537.36","WebKit","Chrome","131.0.0.0","Windows","11.0","https://hz8g1ckzuq.cognition.run/","en,en-US;q=0.9","o8akdyg4kotsd6n","51","[""Black or African-American""]","No","Male","1255738.9","10831","","","{""price_1"":""125"",""price_2"":""120"",""price_3"":""150""}","rating","dct","repulsion_2","1","televisions","null","null","null","null","null","null","1","100","90","100","30","40","20","Screen size","Average lifespan","",""
"","","","","","rating_trial_setup","html-keyboard-response","81","846259","0.0-3.0-0.39","202","1","2025-04-14 14:55:49","bb671e3ae32f654b8954ea4c4635f915","","Mozilla/5.0 (Windows NT 11.0; Win64; x64) AppleWebKit/537.36 (KHTML, like Gecko) Chrome/131.0.0.0 Safari/537.36","WebKit","Chrome","131.0.0.0","Windows","11.0","https://hz8g1ckzuq.cognition.run/","en,en-US;q=0.9","o8akdyg4kotsd6n","51","[""Black or African-American""]","No","Male","1255738.9","null","","<p></p>","null","rating","bww","catch","null","laptops","90","65","30","30","5","20","2","","","","","","","","","",""
"","","","","","rating_trial","survey-html-form","82","858108","0.0-3.0-1.39","202","1","2025-04-14 14:55:49","bb671e3ae32f654b8954ea4c4635f915","","Mozilla/5.0 (Windows NT 11.0; Win64; x64) AppleWebKit/537.36 (KHTML, like Gecko) Chrome/131.0.0.0 Safari/537.36","WebKit","Chrome","131.0.0.0","Windows","11.0","https://hz8g1ckzuq.cognition.run/","en,en-US;q=0.9","o8akdyg4kotsd6n","51","[""Black or African-American""]","No","Male","1255738.9","11841","","","{""price_1"":""150"",""price_2"":""150"",""price_3"":""140""}","rating","bww","catch","null","laptops","90","65","30","30","5","20","2","null","null","null","null","null","null","Processing speed","Memory (RAM)","",""
"","","","","","","instructions","83","890495","0.0-4.0","202","1","2025-04-14 14:55:49","bb671e3ae32f654b8954ea4c4635f915","","Mozilla/5.0 (Windows NT 11.0; Win64; x64) AppleWebKit/537.36 (KHTML, like Gecko) Chrome/131.0.0.0 Safari/537.36","WebKit","Chrome","131.0.0.0","Windows","11.0","https://hz8g1ckzuq.cognition.run/","en,en-US;q=0.9","o8akdyg4kotsd6n","51","[""Black or African-American""]","No","Male","1255738.9","32381","[{""page_index"":0,""viewing_time"":3148},{""page_index"":1,""viewing_time"":1533},{""page_index"":2,""viewing_time"":1883},{""page_index"":3,""viewing_time"":2315},{""page_index"":4,""viewing_time"":2101},{""page_index"":5,""viewing_time"":2373},{""page_index"":6,""viewing_time"":16564},{""page_index"":7,""viewing_time"":2464}]","","","","","","","","","","","","","","","","","","","","","","","",""
"","","","","","choice_trial_setup","html-keyboard-response","84","890807","0.0-5.0-0.0","202","1","2025-04-14 14:55:49","bb671e3ae32f654b8954ea4c4635f915","","Mozilla/5.0 (Windows NT 11.0; Win64; x64) AppleWebKit/537.36 (KHTML, like Gecko) Chrome/131.0.0.0 Safari/537.36","WebKit","Chrome","131.0.0.0","Windows","11.0","https://hz8g1ckzuq.cognition.run/","en,en-US;q=0.9","o8akdyg4kotsd6n","51","[""Black or African-American""]","No","Male","1255738.9","null","","<p></p>","null","choice","wwb","catch","null","laptops","90","55","40","30","15","45","1","","","","","","","","","",""
"","","","","","choice_trial","survey-html-form","85","896222","0.0-5.0-1.0","202","1","2025-04-14 14:55:49","bb671e3ae32f654b8954ea4c4635f915","","Mozilla/5.0 (Windows NT 11.0; Win64; x64) AppleWebKit/537.36 (KHTML, like Gecko) Chrome/131.0.0.0 Safari/537.36","WebKit","Chrome","131.0.0.0","Windows","11.0","https://hz8g1ckzuq.cognition.run/","en,en-US;q=0.9","o8akdyg4kotsd6n","51","[""Black or African-American""]","No","Male","1255738.9","5394","","","{""product_choice"":""C""}","choice","wwb","catch","null","laptops","90","55","40","30","15","45","1","null","null","null","null","null","null","Processing speed","Memory (RAM)","",""
"","","","","","choice_trial_setup","html-keyboard-response","86","896534","0.0-5.0-0.1","202","1","2025-04-14 14:55:49","bb671e3ae32f654b8954ea4c4635f915","","Mozilla/5.0 (Windows NT 11.0; Win64; x64) AppleWebKit/537.36 (KHTML, like Gecko) Chrome/131.0.0.0 Safari/537.36","WebKit","Chrome","131.0.0.0","Windows","11.0","https://hz8g1ckzuq.cognition.run/","en,en-US;q=0.9","o8akdyg4kotsd6n","51","[""Black or African-American""]","No","Male","1255738.9","null","","<p></p>","null","choice","dct","repulsion_1","1","microwave ovens","null","null","null","null","null","null","1","","","","","","","","","",""
"","","","","","choice_trial","survey-html-form","87","908522","0.0-5.0-1.1","202","1","2025-04-14 14:55:49","bb671e3ae32f654b8954ea4c4635f915","","Mozilla/5.0 (Windows NT 11.0; Win64; x64) AppleWebKit/537.36 (KHTML, like Gecko) Chrome/131.0.0.0 Safari/537.36","WebKit","Chrome","131.0.0.0","Windows","11.0","https://hz8g1ckzuq.cognition.run/","en,en-US;q=0.9","o8akdyg4kotsd6n","51","[""Black or African-American""]","No","Male","1255738.9","11973","","","{""product_choice"":""C""}","choice","dct","repulsion_1","1","microwave ovens","null","null","null","null","null","null","1","100","90","100","30","40","25","Warranty","Cooking power","",""
"","","","","","choice_trial_setup","html-keyboard-response","88","908835","0.0-5.0-0.2","202","1","2025-04-14 14:55:49","bb671e3ae32f654b8954ea4c4635f915","","Mozilla/5.0 (Windows NT 11.0; Win64; x64) AppleWebKit/537.36 (KHTML, like Gecko) Chrome/131.0.0.0 Safari/537.36","WebKit","Chrome","131.0.0.0","Windows","11.0","https://hz8g1ckzuq.cognition.run/","en,en-US;q=0.9","o8akdyg4kotsd6n","51","[""Black or African-American""]","No","Male","1255738.9","null","","<p></p>","null","choice","tcd","attraction_2","2","microwave ovens","null","null","null","null","null","null","1","","","","","","","","","",""
"","","","","","choice_trial","survey-html-form","89","916940","0.0-5.0-1.2","202","1","2025-04-14 14:55:49","bb671e3ae32f654b8954ea4c4635f915","","Mozilla/5.0 (Windows NT 11.0; Win64; x64) AppleWebKit/537.36 (KHTML, like Gecko) Chrome/131.0.0.0 Safari/537.36","WebKit","Chrome","131.0.0.0","Windows","11.0","https://hz8g1ckzuq.cognition.run/","en,en-US;q=0.9","o8akdyg4kotsd6n","51","[""Black or African-American""]","No","Male","1255738.9","8094","","","{""product_choice"":""B""}","choice","tcd","attraction_2","2","microwave ovens","null","null","null","null","null","null","1","50","60","40","60","50","60","Warranty","Cooking power","",""
"","","","","","choice_trial_setup","html-keyboard-response","90","917248","0.0-5.0-0.3","202","1","2025-04-14 14:55:49","bb671e3ae32f654b8954ea4c4635f915","","Mozilla/5.0 (Windows NT 11.0; Win64; x64) AppleWebKit/537.36 (KHTML, like Gecko) Chrome/131.0.0.0 Safari/537.36","WebKit","Chrome","131.0.0.0","Windows","11.0","https://hz8g1ckzuq.cognition.run/","en,en-US;q=0.9","o8akdyg4kotsd6n","51","[""Black or African-American""]","No","Male","1255738.9","null","","<p></p>","null","choice","tcd","attraction_2","2","laptops","null","null","null","null","null","null","2","","","","","","","","","",""
"","","","","","choice_trial","survey-html-form","91","925343","0.0-5.0-1.3","202","1","2025-04-14 14:55:49","bb671e3ae32f654b8954ea4c4635f915","","Mozilla/5.0 (Windows NT 11.0; Win64; x64) AppleWebKit/537.36 (KHTML, like Gecko) Chrome/131.0.0.0 Safari/537.36","WebKit","Chrome","131.0.0.0","Windows","11.0","https://hz8g1ckzuq.cognition.run/","en,en-US;q=0.9","o8akdyg4kotsd6n","51","[""Black or African-American""]","No","Male","1255738.9","8080","","","{""product_choice"":""A""}","choice","tcd","attraction_2","2","laptops","null","null","null","null","null","null","2","50","60","40","60","50","60","Processing speed","Memory (RAM)","",""
"","","","","","choice_trial_setup","html-keyboard-response","92","925654","0.0-5.0-0.4","202","1","2025-04-14 14:55:49","bb671e3ae32f654b8954ea4c4635f915","","Mozilla/5.0 (Windows NT 11.0; Win64; x64) AppleWebKit/537.36 (KHTML, like Gecko) Chrome/131.0.0.0 Safari/537.36","WebKit","Chrome","131.0.0.0","Windows","11.0","https://hz8g1ckzuq.cognition.run/","en,en-US;q=0.9","o8akdyg4kotsd6n","51","[""Black or African-American""]","No","Male","1255738.9","null","","<p></p>","null","choice","tdc","attraction_2","2","televisions","null","null","null","null","null","null","2","","","","","","","","","",""
"","","","","","choice_trial","survey-html-form","93","933164","0.0-5.0-1.4","202","1","2025-04-14 14:55:49","bb671e3ae32f654b8954ea4c4635f915","","Mozilla/5.0 (Windows NT 11.0; Win64; x64) AppleWebKit/537.36 (KHTML, like Gecko) Chrome/131.0.0.0 Safari/537.36","WebKit","Chrome","131.0.0.0","Windows","11.0","https://hz8g1ckzuq.cognition.run/","en,en-US;q=0.9","o8akdyg4kotsd6n","51","[""Black or African-American""]","No","Male","1255738.9","7494","","","{""product_choice"":""A""}","choice","tdc","attraction_2","2","televisions","null","null","null","null","null","null","2","50","60","40","60","50","60","Screen size","Average lifespan","",""
"","","","","","choice_trial_setup","html-keyboard-response","94","933471","0.0-5.0-0.5","202","1","2025-04-14 14:55:49","bb671e3ae32f654b8954ea4c4635f915","","Mozilla/5.0 (Windows NT 11.0; Win64; x64) AppleWebKit/537.36 (KHTML, like Gecko) Chrome/131.0.0.0 Safari/537.36","WebKit","Chrome","131.0.0.0","Windows","11.0","https://hz8g1ckzuq.cognition.run/","en,en-US;q=0.9","o8akdyg4kotsd6n","51","[""Black or African-American""]","No","Male","1255738.9","null","","<p></p>","null","choice","tcd","repulsion_1","1","televisions","null","null","null","null","null","null","2","","","","","","","","","",""
"","","","","","choice_trial","survey-html-form","95","950450","0.0-5.0-1.5","202","1","2025-04-14 14:55:49","bb671e3ae32f654b8954ea4c4635f915","","Mozilla/5.0 (Windows NT 11.0; Win64; x64) AppleWebKit/537.36 (KHTML, like Gecko) Chrome/131.0.0.0 Safari/537.36","WebKit","Chrome","131.0.0.0","Windows","11.0","https://hz8g1ckzuq.cognition.run/","en,en-US;q=0.9","o8akdyg4kotsd6n","51","[""Black or African-American""]","No","Male","1255738.9","16971","","","{""product_choice"":""A""}","choice","tcd","repulsion_1","1","televisions","null","null","null","null","null","null","2","100","90","100","30","40","25","Screen size","Average lifespan","",""
"","","","","","choice_trial_setup","html-keyboard-response","96","950765","0.0-5.0-0.6","202","1","2025-04-14 14:55:49","bb671e3ae32f654b8954ea4c4635f915","","Mozilla/5.0 (Windows NT 11.0; Win64; x64) AppleWebKit/537.36 (KHTML, like Gecko) Chrome/131.0.0.0 Safari/537.36","WebKit","Chrome","131.0.0.0","Windows","11.0","https://hz8g1ckzuq.cognition.run/","en,en-US;q=0.9","o8akdyg4kotsd6n","51","[""Black or African-American""]","No","Male","1255738.9","null","","<p></p>","null","choice","tdc","repulsion_2","1","televisions","null","null","null","null","null","null","1","","","","","","","","","",""
"","","","","","choice_trial","survey-html-form","97","957412","0.0-5.0-1.6","202","1","2025-04-14 14:55:49","bb671e3ae32f654b8954ea4c4635f915","","Mozilla/5.0 (Windows NT 11.0; Win64; x64) AppleWebKit/537.36 (KHTML, like Gecko) Chrome/131.0.0.0 Safari/537.36","WebKit","Chrome","131.0.0.0","Windows","11.0","https://hz8g1ckzuq.cognition.run/","en,en-US;q=0.9","o8akdyg4kotsd6n","51","[""Black or African-American""]","No","Male","1255738.9","6634","","","{""product_choice"":""A""}","choice","tdc","repulsion_2","1","televisions","null","null","null","null","null","null","1","100","90","100","30","40","20","Screen size","Average lifespan","",""
"","","","","","choice_trial_setup","html-keyboard-response","98","957723","0.0-5.0-0.7","202","1","2025-04-14 14:55:49","bb671e3ae32f654b8954ea4c4635f915","","Mozilla/5.0 (Windows NT 11.0; Win64; x64) AppleWebKit/537.36 (KHTML, like Gecko) Chrome/131.0.0.0 Safari/537.36","WebKit","Chrome","131.0.0.0","Windows","11.0","https://hz8g1ckzuq.cognition.run/","en,en-US;q=0.9","o8akdyg4kotsd6n","51","[""Black or African-American""]","No","Male","1255738.9","null","","<p></p>","null","choice","wbw","catch","null","microwave ovens","90","65","15","25","25","25","1","","","","","","","","","",""
"","","","","","choice_trial","survey-html-form","99","962981","0.0-5.0-1.7","202","1","2025-04-14 14:55:49","bb671e3ae32f654b8954ea4c4635f915","","Mozilla/5.0 (Windows NT 11.0; Win64; x64) AppleWebKit/537.36 (KHTML, like Gecko) Chrome/131.0.0.0 Safari/537.36","WebKit","Chrome","131.0.0.0","Windows","11.0","https://hz8g1ckzuq.cognition.run/","en,en-US;q=0.9","o8akdyg4kotsd6n","51","[""Black or African-American""]","No","Male","1255738.9","5242","","","{""product_choice"":""B""}","choice","wbw","catch","null","microwave ovens","90","65","15","25","25","25","1","null","null","null","null","null","null","Warranty","Cooking power","",""
"","","","","","choice_trial_setup","html-keyboard-response","100","963295","0.0-5.0-0.8","202","1","2025-04-14 14:55:49","bb671e3ae32f654b8954ea4c4635f915","","Mozilla/5.0 (Windows NT 11.0; Win64; x64) AppleWebKit/537.36 (KHTML, like Gecko) Chrome/131.0.0.0 Safari/537.36","WebKit","Chrome","131.0.0.0","Windows","11.0","https://hz8g1ckzuq.cognition.run/","en,en-US;q=0.9","o8akdyg4kotsd6n","51","[""Black or African-American""]","No","Male","1255738.9","null","","<p></p>","null","choice","tcd","attraction_2","2","washing machines","null","null","null","null","null","null","2","","","","","","","","","",""
"","","","","","choice_trial","survey-html-form","101","973008","0.0-5.0-1.8","202","1","2025-04-14 14:55:49","bb671e3ae32f654b8954ea4c4635f915","","Mozilla/5.0 (Windows NT 11.0; Win64; x64) AppleWebKit/537.36 (KHTML, like Gecko) Chrome/131.0.0.0 Safari/537.36","WebKit","Chrome","131.0.0.0","Windows","11.0","https://hz8g1ckzuq.cognition.run/","en,en-US;q=0.9","o8akdyg4kotsd6n","51","[""Black or African-American""]","No","Male","1255738.9","9706","","","{""product_choice"":""A""}","choice","tcd","attraction_2","2","washing machines","null","null","null","null","null","null","2","50","60","40","60","50","60","Average lifespan","Energy savings","",""
"","","","","","choice_trial_setup","html-keyboard-response","102","973320","0.0-5.0-0.9","202","1","2025-04-14 14:55:49","bb671e3ae32f654b8954ea4c4635f915","","Mozilla/5.0 (Windows NT 11.0; Win64; x64) AppleWebKit/537.36 (KHTML, like Gecko) Chrome/131.0.0.0 Safari/537.36","WebKit","Chrome","131.0.0.0","Windows","11.0","https://hz8g1ckzuq.cognition.run/","en,en-US;q=0.9","o8akdyg4kotsd6n","51","[""Black or African-American""]","No","Male","1255738.9","null","","<p></p>","null","choice","tcd","attraction_1","2","televisions","null","null","null","null","null","null","1","","","","","","","","","",""
"","","","","","choice_trial","survey-html-form","103","980338","0.0-5.0-1.9","202","1","2025-04-14 14:55:49","bb671e3ae32f654b8954ea4c4635f915","","Mozilla/5.0 (Windows NT 11.0; Win64; x64) AppleWebKit/537.36 (KHTML, like Gecko) Chrome/131.0.0.0 Safari/537.36","WebKit","Chrome","131.0.0.0","Windows","11.0","https://hz8g1ckzuq.cognition.run/","en,en-US;q=0.9","o8akdyg4kotsd6n","51","[""Black or African-American""]","No","Male","1255738.9","6999","","","{""product_choice"":""B""}","choice","tcd","attraction_1","2","televisions","null","null","null","null","null","null","1","50","60","45","60","50","60","Screen size","Average lifespan","",""
"","","","","","choice_trial_setup","html-keyboard-response","104","980651","0.0-5.0-0.10","202","1","2025-04-14 14:55:49","bb671e3ae32f654b8954ea4c4635f915","","Mozilla/5.0 (Windows NT 11.0; Win64; x64) AppleWebKit/537.36 (KHTML, like Gecko) Chrome/131.0.0.0 Safari/537.36","WebKit","Chrome","131.0.0.0","Windows","11.0","https://hz8g1ckzuq.cognition.run/","en,en-US;q=0.9","o8akdyg4kotsd6n","51","[""Black or African-American""]","No","Male","1255738.9","null","","<p></p>","null","choice","tdc","attraction_2","1","microwave ovens","null","null","null","null","null","null","1","","","","","","","","","",""
"","","","","","choice_trial","survey-html-form","105","985899","0.0-5.0-1.10","202","1","2025-04-14 14:55:49","bb671e3ae32f654b8954ea4c4635f915","","Mozilla/5.0 (Windows NT 11.0; Win64; x64) AppleWebKit/537.36 (KHTML, like Gecko) Chrome/131.0.0.0 Safari/537.36","WebKit","Chrome","131.0.0.0","Windows","11.0","https://hz8g1ckzuq.cognition.run/","en,en-US;q=0.9","o8akdyg4kotsd6n","51","[""Black or African-American""]","No","Male","1255738.9","5240","","","{""product_choice"":""A""}","choice","tdc","attraction_2","1","microwave ovens","null","null","null","null","null","null","1","60","50","60","50","60","40","Warranty","Cooking power","",""
"","","","","","choice_trial_setup","html-keyboard-response","106","986215","0.0-5.0-0.11","202","1","2025-04-14 14:55:49","bb671e3ae32f654b8954ea4c4635f915","","Mozilla/5.0 (Windows NT 11.0; Win64; x64) AppleWebKit/537.36 (KHTML, like Gecko) Chrome/131.0.0.0 Safari/537.36","WebKit","Chrome","131.0.0.0","Windows","11.0","https://hz8g1ckzuq.cognition.run/","en,en-US;q=0.9","o8akdyg4kotsd6n","51","[""Black or African-American""]","No","Male","1255738.9","null","","<p></p>","null","choice","dct","attraction_1","1","televisions","null","null","null","null","null","null","2","","","","","","","","","",""
"","","","","","choice_trial","survey-html-form","107","992756","0.0-5.0-1.11","202","1","2025-04-14 14:55:49","bb671e3ae32f654b8954ea4c4635f915","","Mozilla/5.0 (Windows NT 11.0; Win64; x64) AppleWebKit/537.36 (KHTML, like Gecko) Chrome/131.0.0.0 Safari/537.36","WebKit","Chrome","131.0.0.0","Windows","11.0","https://hz8g1ckzuq.cognition.run/","en,en-US;q=0.9","o8akdyg4kotsd6n","51","[""Black or African-American""]","No","Male","1255738.9","6524","","","{""product_choice"":""B""}","choice","dct","attraction_1","1","televisions","null","null","null","null","null","null","2","60","50","60","50","60","45","Screen size","Average lifespan","",""
"","","","","","choice_trial_setup","html-keyboard-response","108","993071","0.0-5.0-0.12","202","1","2025-04-14 14:55:49","bb671e3ae32f654b8954ea4c4635f915","","Mozilla/5.0 (Windows NT 11.0; Win64; x64) AppleWebKit/537.36 (KHTML, like Gecko) Chrome/131.0.0.0 Safari/537.36","WebKit","Chrome","131.0.0.0","Windows","11.0","https://hz8g1ckzuq.cognition.run/","en,en-US;q=0.9","o8akdyg4kotsd6n","51","[""Black or African-American""]","No","Male","1255738.9","null","","<p></p>","null","choice","ctd","attraction_2","1","televisions","null","null","null","null","null","null","2","","","","","","","","","",""
"","","","","","choice_trial","survey-html-form","109","1008843","0.0-5.0-1.12","202","1","2025-04-14 14:55:49","bb671e3ae32f654b8954ea4c4635f915","","Mozilla/5.0 (Windows NT 11.0; Win64; x64) AppleWebKit/537.36 (KHTML, like Gecko) Chrome/131.0.0.0 Safari/537.36","WebKit","Chrome","131.0.0.0","Windows","11.0","https://hz8g1ckzuq.cognition.run/","en,en-US;q=0.9","o8akdyg4kotsd6n","51","[""Black or African-American""]","No","Male","1255738.9","15754","","","{""product_choice"":""A""}","choice","ctd","attraction_2","1","televisions","null","null","null","null","null","null","2","60","50","60","50","60","40","Screen size","Average lifespan","",""
"","","","","","choice_trial_setup","html-keyboard-response","110","1009157","0.0-5.0-0.13","202","1","2025-04-14 14:55:49","bb671e3ae32f654b8954ea4c4635f915","","Mozilla/5.0 (Windows NT 11.0; Win64; x64) AppleWebKit/537.36 (KHTML, like Gecko) Chrome/131.0.0.0 Safari/537.36","WebKit","Chrome","131.0.0.0","Windows","11.0","https://hz8g1ckzuq.cognition.run/","en,en-US;q=0.9","o8akdyg4kotsd6n","51","[""Black or African-American""]","No","Male","1255738.9","null","","<p></p>","null","choice","cdt","repulsion_1","2","televisions","null","null","null","null","null","null","2","","","","","","","","","",""
"","","","","","choice_trial","survey-html-form","111","1013060","0.0-5.0-1.13","202","1","2025-04-14 14:55:49","bb671e3ae32f654b8954ea4c4635f915","","Mozilla/5.0 (Windows NT 11.0; Win64; x64) AppleWebKit/537.36 (KHTML, like Gecko) Chrome/131.0.0.0 Safari/537.36","WebKit","Chrome","131.0.0.0","Windows","11.0","https://hz8g1ckzuq.cognition.run/","en,en-US;q=0.9","o8akdyg4kotsd6n","51","[""Black or African-American""]","No","Male","1255738.9","3896","","","{""product_choice"":""A""}","choice","cdt","repulsion_1","2","televisions","null","null","null","null","null","null","2","30","40","25","100","90","100","Screen size","Average lifespan","",""
"","","","","","choice_trial_setup","html-keyboard-response","112","1013375","0.0-5.0-0.14","202","1","2025-04-14 14:55:49","bb671e3ae32f654b8954ea4c4635f915","","Mozilla/5.0 (Windows NT 11.0; Win64; x64) AppleWebKit/537.36 (KHTML, like Gecko) Chrome/131.0.0.0 Safari/537.36","WebKit","Chrome","131.0.0.0","Windows","11.0","https://hz8g1ckzuq.cognition.run/","en,en-US;q=0.9","o8akdyg4kotsd6n","51","[""Black or African-American""]","No","Male","1255738.9","null","","<p></p>","null","choice","dct","repulsion_2","2","microwave ovens","null","null","null","null","null","null","1","","","","","","","","","",""
"","","","","","choice_trial","survey-html-form","113","1017029","0.0-5.0-1.14","202","1","2025-04-14 14:55:49","bb671e3ae32f654b8954ea4c4635f915","","Mozilla/5.0 (Windows NT 11.0; Win64; x64) AppleWebKit/537.36 (KHTML, like Gecko) Chrome/131.0.0.0 Safari/537.36","WebKit","Chrome","131.0.0.0","Windows","11.0","https://hz8g1ckzuq.cognition.run/","en,en-US;q=0.9","o8akdyg4kotsd6n","51","[""Black or African-American""]","No","Male","1255738.9","3636","","","{""product_choice"":""B""}","choice","dct","repulsion_2","2","microwave ovens","null","null","null","null","null","null","1","30","40","20","100","90","100","Warranty","Cooking power","",""
"","","","","","choice_trial_setup","html-keyboard-response","114","1017344","0.0-5.0-0.15","202","1","2025-04-14 14:55:49","bb671e3ae32f654b8954ea4c4635f915","","Mozilla/5.0 (Windows NT 11.0; Win64; x64) AppleWebKit/537.36 (KHTML, like Gecko) Chrome/131.0.0.0 Safari/537.36","WebKit","Chrome","131.0.0.0","Windows","11.0","https://hz8g1ckzuq.cognition.run/","en,en-US;q=0.9","o8akdyg4kotsd6n","51","[""Black or African-American""]","No","Male","1255738.9","null","","<p></p>","null","choice","wwb","catch","null","televisions","85","90","45","45","20","50","1","","","","","","","","","",""
"","","","","","choice_trial","survey-html-form","115","1024237","0.0-5.0-1.15","202","1","2025-04-14 14:55:49","bb671e3ae32f654b8954ea4c4635f915","","Mozilla/5.0 (Windows NT 11.0; Win64; x64) AppleWebKit/537.36 (KHTML, like Gecko) Chrome/131.0.0.0 Safari/537.36","WebKit","Chrome","131.0.0.0","Windows","11.0","https://hz8g1ckzuq.cognition.run/","en,en-US;q=0.9","o8akdyg4kotsd6n","51","[""Black or African-American""]","No","Male","1255738.9","6873","","","{""product_choice"":""A""}","choice","wwb","catch","null","televisions","85","90","45","45","20","50","1","null","null","null","null","null","null","Screen size","Average lifespan","",""
"","","","","","choice_trial_setup","html-keyboard-response","116","1024552","0.0-5.0-0.16","202","1","2025-04-14 14:55:49","bb671e3ae32f654b8954ea4c4635f915","","Mozilla/5.0 (Windows NT 11.0; Win64; x64) AppleWebKit/537.36 (KHTML, like Gecko) Chrome/131.0.0.0 Safari/537.36","WebKit","Chrome","131.0.0.0","Windows","11.0","https://hz8g1ckzuq.cognition.run/","en,en-US;q=0.9","o8akdyg4kotsd6n","51","[""Black or African-American""]","No","Male","1255738.9","null","","<p></p>","null","choice","tcd","attraction_2","1","laptops","null","null","null","null","null","null","1","","","","","","","","","",""
"","","","","","choice_trial","survey-html-form","117","1030708","0.0-5.0-1.16","202","1","2025-04-14 14:55:49","bb671e3ae32f654b8954ea4c4635f915","","Mozilla/5.0 (Windows NT 11.0; Win64; x64) AppleWebKit/537.36 (KHTML, like Gecko) Chrome/131.0.0.0 Safari/537.36","WebKit","Chrome","131.0.0.0","Windows","11.0","https://hz8g1ckzuq.cognition.run/","en,en-US;q=0.9","o8akdyg4kotsd6n","51","[""Black or African-American""]","No","Male","1255738.9","6142","","","{""product_choice"":""B""}","choice","tcd","attraction_2","1","laptops","null","null","null","null","null","null","1","60","50","60","50","60","40","Processing speed","Memory (RAM)","",""
"","","","","","choice_trial_setup","html-keyboard-response","118","1031017","0.0-5.0-0.17","202","1","2025-04-14 14:55:49","bb671e3ae32f654b8954ea4c4635f915","","Mozilla/5.0 (Windows NT 11.0; Win64; x64) AppleWebKit/537.36 (KHTML, like Gecko) Chrome/131.0.0.0 Safari/537.36","WebKit","Chrome","131.0.0.0","Windows","11.0","https://hz8g1ckzuq.cognition.run/","en,en-US;q=0.9","o8akdyg4kotsd6n","51","[""Black or African-American""]","No","Male","1255738.9","null","","<p></p>","null","choice","tcd","repulsion_2","1","washing machines","null","null","null","null","null","null","2","","","","","","","","","",""
"","","","","","choice_trial","survey-html-form","119","1035751","0.0-5.0-1.17","202","1","2025-04-14 14:55:49","bb671e3ae32f654b8954ea4c4635f915","","Mozilla/5.0 (Windows NT 11.0; Win64; x64) AppleWebKit/537.36 (KHTML, like Gecko) Chrome/131.0.0.0 Safari/537.36","WebKit","Chrome","131.0.0.0","Windows","11.0","https://hz8g1ckzuq.cognition.run/","en,en-US;q=0.9","o8akdyg4kotsd6n","51","[""Black or African-American""]","No","Male","1255738.9","4717","","","{""product_choice"":""A""}","choice","tcd","repulsion_2","1","washing machines","null","null","null","null","null","null","2","100","90","100","30","40","20","Average lifespan","Energy savings","",""
"","","","","","choice_trial_setup","html-keyboard-response","120","1036066","0.0-5.0-0.18","202","1","2025-04-14 14:55:49","bb671e3ae32f654b8954ea4c4635f915","","Mozilla/5.0 (Windows NT 11.0; Win64; x64) AppleWebKit/537.36 (KHTML, like Gecko) Chrome/131.0.0.0 Safari/537.36","WebKit","Chrome","131.0.0.0","Windows","11.0","https://hz8g1ckzuq.cognition.run/","en,en-US;q=0.9","o8akdyg4kotsd6n","51","[""Black or African-American""]","No","Male","1255738.9","null","","<p></p>","null","choice","tdc","attraction_1","2","washing machines","null","null","null","null","null","null","1","","","","","","","","","",""
"","","","","","choice_trial","survey-html-form","121","1041071","0.0-5.0-1.18","202","1","2025-04-14 14:55:49","bb671e3ae32f654b8954ea4c4635f915","","Mozilla/5.0 (Windows NT 11.0; Win64; x64) AppleWebKit/537.36 (KHTML, like Gecko) Chrome/131.0.0.0 Safari/537.36","WebKit","Chrome","131.0.0.0","Windows","11.0","https://hz8g1ckzuq.cognition.run/","en,en-US;q=0.9","o8akdyg4kotsd6n","51","[""Black or African-American""]","No","Male","1255738.9","4985","","","{""product_choice"":""C""}","choice","tdc","attraction_1","2","washing machines","null","null","null","null","null","null","1","50","60","45","60","50","60","Average lifespan","Energy savings","",""
"","","","","","choice_trial_setup","html-keyboard-response","122","1041385","0.0-5.0-0.19","202","1","2025-04-14 14:55:49","bb671e3ae32f654b8954ea4c4635f915","","Mozilla/5.0 (Windows NT 11.0; Win64; x64) AppleWebKit/537.36 (KHTML, like Gecko) Chrome/131.0.0.0 Safari/537.36","WebKit","Chrome","131.0.0.0","Windows","11.0","https://hz8g1ckzuq.cognition.run/","en,en-US;q=0.9","o8akdyg4kotsd6n","51","[""Black or African-American""]","No","Male","1255738.9","null","","<p></p>","null","choice","wwb","catch","null","washing machines","95","80","40","45","30","30","2","","","","","","","","","",""
"","","","","","choice_trial","survey-html-form","123","1045379","0.0-5.0-1.19","202","1","2025-04-14 14:55:49","bb671e3ae32f654b8954ea4c4635f915","","Mozilla/5.0 (Windows NT 11.0; Win64; x64) AppleWebKit/537.36 (KHTML, like Gecko) Chrome/131.0.0.0 Safari/537.36","WebKit","Chrome","131.0.0.0","Windows","11.0","https://hz8g1ckzuq.cognition.run/","en,en-US;q=0.9","o8akdyg4kotsd6n","51","[""Black or African-American""]","No","Male","1255738.9","3986","","","{""product_choice"":""C""}","choice","wwb","catch","null","washing machines","95","80","40","45","30","30","2","null","null","null","null","null","null","Average lifespan","Energy savings","",""
"","","","","","choice_trial_setup","html-keyboard-response","124","1045696","0.0-5.0-0.20","202","1","2025-04-14 14:55:49","bb671e3ae32f654b8954ea4c4635f915","","Mozilla/5.0 (Windows NT 11.0; Win64; x64) AppleWebKit/537.36 (KHTML, like Gecko) Chrome/131.0.0.0 Safari/537.36","WebKit","Chrome","131.0.0.0","Windows","11.0","https://hz8g1ckzuq.cognition.run/","en,en-US;q=0.9","o8akdyg4kotsd6n","51","[""Black or African-American""]","No","Male","1255738.9","null","","<p></p>","null","choice","tcd","repulsion_2","1","microwave ovens","null","null","null","null","null","null","1","","","","","","","","","",""
"","","","","","choice_trial","survey-html-form","125","1053907","0.0-5.0-1.20","202","1","2025-04-14 14:55:49","bb671e3ae32f654b8954ea4c4635f915","","Mozilla/5.0 (Windows NT 11.0; Win64; x64) AppleWebKit/537.36 (KHTML, like Gecko) Chrome/131.0.0.0 Safari/537.36","WebKit","Chrome","131.0.0.0","Windows","11.0","https://hz8g1ckzuq.cognition.run/","en,en-US;q=0.9","o8akdyg4kotsd6n","51","[""Black or African-American""]","No","Male","1255738.9","8190","","","{""product_choice"":""A""}","choice","tcd","repulsion_2","1","microwave ovens","null","null","null","null","null","null","1","100","90","100","30","40","20","Warranty","Cooking power","",""
"","","","","","choice_trial_setup","html-keyboard-response","126","1054223","0.0-5.0-0.21","202","1","2025-04-14 14:55:49","bb671e3ae32f654b8954ea4c4635f915","","Mozilla/5.0 (Windows NT 11.0; Win64; x64) AppleWebKit/537.36 (KHTML, like Gecko) Chrome/131.0.0.0 Safari/537.36","WebKit","Chrome","131.0.0.0","Windows","11.0","https://hz8g1ckzuq.cognition.run/","en,en-US;q=0.9","o8akdyg4kotsd6n","51","[""Black or African-American""]","No","Male","1255738.9","null","","<p></p>","null","choice","tcd","attraction_2","1","washing machines","null","null","null","null","null","null","2","","","","","","","","","",""
"","","","","","choice_trial","survey-html-form","127","1059186","0.0-5.0-1.21","202","1","2025-04-14 14:55:49","bb671e3ae32f654b8954ea4c4635f915","","Mozilla/5.0 (Windows NT 11.0; Win64; x64) AppleWebKit/537.36 (KHTML, like Gecko) Chrome/131.0.0.0 Safari/537.36","WebKit","Chrome","131.0.0.0","Windows","11.0","https://hz8g1ckzuq.cognition.run/","en,en-US;q=0.9","o8akdyg4kotsd6n","51","[""Black or African-American""]","No","Male","1255738.9","4955","","","{""product_choice"":""B""}","choice","tcd","attraction_2","1","washing machines","null","null","null","null","null","null","2","60","50","60","50","60","40","Average lifespan","Energy savings","",""
"","","","","","choice_trial_setup","html-keyboard-response","128","1059495","0.0-5.0-0.22","202","1","2025-04-14 14:55:49","bb671e3ae32f654b8954ea4c4635f915","","Mozilla/5.0 (Windows NT 11.0; Win64; x64) AppleWebKit/537.36 (KHTML, like Gecko) Chrome/131.0.0.0 Safari/537.36","WebKit","Chrome","131.0.0.0","Windows","11.0","https://hz8g1ckzuq.cognition.run/","en,en-US;q=0.9","o8akdyg4kotsd6n","51","[""Black or African-American""]","No","Male","1255738.9","null","","<p></p>","null","choice","cdt","repulsion_2","2","televisions","null","null","null","null","null","null","1","","","","","","","","","",""
"","","","","","choice_trial","survey-html-form","129","1066366","0.0-5.0-1.22","202","1","2025-04-14 14:55:49","bb671e3ae32f654b8954ea4c4635f915","","Mozilla/5.0 (Windows NT 11.0; Win64; x64) AppleWebKit/537.36 (KHTML, like Gecko) Chrome/131.0.0.0 Safari/537.36","WebKit","Chrome","131.0.0.0","Windows","11.0","https://hz8g1ckzuq.cognition.run/","en,en-US;q=0.9","o8akdyg4kotsd6n","51","[""Black or African-American""]","No","Male","1255738.9","6862","","","{""product_choice"":""C""}","choice","cdt","repulsion_2","2","televisions","null","null","null","null","null","null","1","30","40","20","100","90","100","Screen size","Average lifespan","",""
"","","","","","choice_trial_setup","html-keyboard-response","130","1066676","0.0-5.0-0.23","202","1","2025-04-14 14:55:49","bb671e3ae32f654b8954ea4c4635f915","","Mozilla/5.0 (Windows NT 11.0; Win64; x64) AppleWebKit/537.36 (KHTML, like Gecko) Chrome/131.0.0.0 Safari/537.36","WebKit","Chrome","131.0.0.0","Windows","11.0","https://hz8g1ckzuq.cognition.run/","en,en-US;q=0.9","o8akdyg4kotsd6n","51","[""Black or African-American""]","No","Male","1255738.9","null","","<p></p>","null","choice","bww","catch","null","microwave ovens","50","95","40","15","40","40","2","","","","","","","","","",""
"","","","","","choice_trial","survey-html-form","131","1070701","0.0-5.0-1.23","202","1","2025-04-14 14:55:49","bb671e3ae32f654b8954ea4c4635f915","","Mozilla/5.0 (Windows NT 11.0; Win64; x64) AppleWebKit/537.36 (KHTML, like Gecko) Chrome/131.0.0.0 Safari/537.36","WebKit","Chrome","131.0.0.0","Windows","11.0","https://hz8g1ckzuq.cognition.run/","en,en-US;q=0.9","o8akdyg4kotsd6n","51","[""Black or African-American""]","No","Male","1255738.9","4004","","","{""product_choice"":""A""}","choice","bww","catch","null","microwave ovens","50","95","40","15","40","40","2","null","null","null","null","null","null","Warranty","Cooking power","",""
"","","","","","choice_trial_setup","html-keyboard-response","132","1071016","0.0-5.0-0.24","202","1","2025-04-14 14:55:49","bb671e3ae32f654b8954ea4c4635f915","","Mozilla/5.0 (Windows NT 11.0; Win64; x64) AppleWebKit/537.36 (KHTML, like Gecko) Chrome/131.0.0.0 Safari/537.36","WebKit","Chrome","131.0.0.0","Windows","11.0","https://hz8g1ckzuq.cognition.run/","en,en-US;q=0.9","o8akdyg4kotsd6n","51","[""Black or African-American""]","No","Male","1255738.9","null","","<p></p>","null","choice","wbw","catch","null","washing machines","55","70","30","30","30","20","2","","","","","","","","","",""
"","","","","","choice_trial","survey-html-form","133","1074801","0.0-5.0-1.24","202","1","2025-04-14 14:55:49","bb671e3ae32f654b8954ea4c4635f915","","Mozilla/5.0 (Windows NT 11.0; Win64; x64) AppleWebKit/537.36 (KHTML, like Gecko) Chrome/131.0.0.0 Safari/537.36","WebKit","Chrome","131.0.0.0","Windows","11.0","https://hz8g1ckzuq.cognition.run/","en,en-US;q=0.9","o8akdyg4kotsd6n","51","[""Black or African-American""]","No","Male","1255738.9","3763","","","{""product_choice"":""B""}","choice","wbw","catch","null","washing machines","55","70","30","30","30","20","2","null","null","null","null","null","null","Average lifespan","Energy savings","",""
"","","","","","choice_trial_setup","html-keyboard-response","134","1075117","0.0-5.0-0.25","202","1","2025-04-14 14:55:49","bb671e3ae32f654b8954ea4c4635f915","","Mozilla/5.0 (Windows NT 11.0; Win64; x64) AppleWebKit/537.36 (KHTML, like Gecko) Chrome/131.0.0.0 Safari/537.36","WebKit","Chrome","131.0.0.0","Windows","11.0","https://hz8g1ckzuq.cognition.run/","en,en-US;q=0.9","o8akdyg4kotsd6n","51","[""Black or African-American""]","No","Male","1255738.9","null","","<p></p>","null","choice","dtc","repulsion_1","2","laptops","null","null","null","null","null","null","2","","","","","","","","","",""
"","","","","","choice_trial","survey-html-form","135","1084199","0.0-5.0-1.25","202","1","2025-04-14 14:55:49","bb671e3ae32f654b8954ea4c4635f915","","Mozilla/5.0 (Windows NT 11.0; Win64; x64) AppleWebKit/537.36 (KHTML, like Gecko) Chrome/131.0.0.0 Safari/537.36","WebKit","Chrome","131.0.0.0","Windows","11.0","https://hz8g1ckzuq.cognition.run/","en,en-US;q=0.9","o8akdyg4kotsd6n","51","[""Black or African-American""]","No","Male","1255738.9","9073","","","{""product_choice"":""B""}","choice","dtc","repulsion_1","2","laptops","null","null","null","null","null","null","2","30","40","25","100","90","100","Processing speed","Memory (RAM)","",""
"","","","","","choice_trial_setup","html-keyboard-response","136","1084516","0.0-5.0-0.26","202","1","2025-04-14 14:55:49","bb671e3ae32f654b8954ea4c4635f915","","Mozilla/5.0 (Windows NT 11.0; Win64; x64) AppleWebKit/537.36 (KHTML, like Gecko) Chrome/131.0.0.0 Safari/537.36","WebKit","Chrome","131.0.0.0","Windows","11.0","https://hz8g1ckzuq.cognition.run/","en,en-US;q=0.9","o8akdyg4kotsd6n","51","[""Black or African-American""]","No","Male","1255738.9","null","","<p></p>","null","choice","cdt","repulsion_1","1","washing machines","null","null","null","null","null","null","2","","","","","","","","","",""
"","","","","","choice_trial","survey-html-form","137","1098459","0.0-5.0-1.26","202","1","2025-04-14 14:55:49","bb671e3ae32f654b8954ea4c4635f915","","Mozilla/5.0 (Windows NT 11.0; Win64; x64) AppleWebKit/537.36 (KHTML, like Gecko) Chrome/131.0.0.0 Safari/537.36","WebKit","Chrome","131.0.0.0","Windows","11.0","https://hz8g1ckzuq.cognition.run/","en,en-US;q=0.9","o8akdyg4kotsd6n","51","[""Black or African-American""]","No","Male","1255738.9","13922","","","{""product_choice"":""A""}","choice","cdt","repulsion_1","1","washing machines","null","null","null","null","null","null","2","100","90","100","30","40","25","Average lifespan","Energy savings","",""
"","","","","","choice_trial_setup","html-keyboard-response","138","1098769","0.0-5.0-0.27","202","1","2025-04-14 14:55:49","bb671e3ae32f654b8954ea4c4635f915","","Mozilla/5.0 (Windows NT 11.0; Win64; x64) AppleWebKit/537.36 (KHTML, like Gecko) Chrome/131.0.0.0 Safari/537.36","WebKit","Chrome","131.0.0.0","Windows","11.0","https://hz8g1ckzuq.cognition.run/","en,en-US;q=0.9","o8akdyg4kotsd6n","51","[""Black or African-American""]","No","Male","1255738.9","null","","<p></p>","null","choice","cdt","repulsion_2","2","laptops","null","null","null","null","null","null","2","","","","","","","","","",""
"","","","","","choice_trial","survey-html-form","139","1106341","0.0-5.0-1.27","202","1","2025-04-14 14:55:49","bb671e3ae32f654b8954ea4c4635f915","","Mozilla/5.0 (Windows NT 11.0; Win64; x64) AppleWebKit/537.36 (KHTML, like Gecko) Chrome/131.0.0.0 Safari/537.36","WebKit","Chrome","131.0.0.0","Windows","11.0","https://hz8g1ckzuq.cognition.run/","en,en-US;q=0.9","o8akdyg4kotsd6n","51","[""Black or African-American""]","No","Male","1255738.9","7550","","","{""product_choice"":""C""}","choice","cdt","repulsion_2","2","laptops","null","null","null","null","null","null","2","30","40","20","100","90","100","Processing speed","Memory (RAM)","",""
"","","","","","choice_trial_setup","html-keyboard-response","140","1106658","0.0-5.0-0.28","202","1","2025-04-14 14:55:49","bb671e3ae32f654b8954ea4c4635f915","","Mozilla/5.0 (Windows NT 11.0; Win64; x64) AppleWebKit/537.36 (KHTML, like Gecko) Chrome/131.0.0.0 Safari/537.36","WebKit","Chrome","131.0.0.0","Windows","11.0","https://hz8g1ckzuq.cognition.run/","en,en-US;q=0.9","o8akdyg4kotsd6n","51","[""Black or African-American""]","No","Male","1255738.9","null","","<p></p>","null","choice","dtc","repulsion_1","2","washing machines","null","null","null","null","null","null","1","","","","","","","","","",""
"","","","","","choice_trial","survey-html-form","141","1115126","0.0-5.0-1.28","202","1","2025-04-14 14:55:49","bb671e3ae32f654b8954ea4c4635f915","","Mozilla/5.0 (Windows NT 11.0; Win64; x64) AppleWebKit/537.36 (KHTML, like Gecko) Chrome/131.0.0.0 Safari/537.36","WebKit","Chrome","131.0.0.0","Windows","11.0","https://hz8g1ckzuq.cognition.run/","en,en-US;q=0.9","o8akdyg4kotsd6n","51","[""Black or African-American""]","No","Male","1255738.9","8446","","","{""product_choice"":""C""}","choice","dtc","repulsion_1","2","washing machines","null","null","null","null","null","null","1","30","40","25","100","90","100","Average lifespan","Energy savings","",""
"","","","","","choice_trial_setup","html-keyboard-response","142","1115443","0.0-5.0-0.29","202","1","2025-04-14 14:55:49","bb671e3ae32f654b8954ea4c4635f915","","Mozilla/5.0 (Windows NT 11.0; Win64; x64) AppleWebKit/537.36 (KHTML, like Gecko) Chrome/131.0.0.0 Safari/537.36","WebKit","Chrome","131.0.0.0","Windows","11.0","https://hz8g1ckzuq.cognition.run/","en,en-US;q=0.9","o8akdyg4kotsd6n","51","[""Black or African-American""]","No","Male","1255738.9","null","","<p></p>","null","choice","ctd","attraction_1","2","laptops","null","null","null","null","null","null","2","","","","","","","","","",""
"","","","","","choice_trial","survey-html-form","143","1126221","0.0-5.0-1.29","202","1","2025-04-14 14:55:49","bb671e3ae32f654b8954ea4c4635f915","","Mozilla/5.0 (Windows NT 11.0; Win64; x64) AppleWebKit/537.36 (KHTML, like Gecko) Chrome/131.0.0.0 Safari/537.36","WebKit","Chrome","131.0.0.0","Windows","11.0","https://hz8g1ckzuq.cognition.run/","en,en-US;q=0.9","o8akdyg4kotsd6n","51","[""Black or African-American""]","No","Male","1255738.9","10764","","","{""product_choice"":""C""}","choice","ctd","attraction_1","2","laptops","null","null","null","null","null","null","2","50","60","45","60","50","60","Processing speed","Memory (RAM)","",""
"","","","","","choice_trial_setup","html-keyboard-response","144","1126530","0.0-5.0-0.30","202","1","2025-04-14 14:55:49","bb671e3ae32f654b8954ea4c4635f915","","Mozilla/5.0 (Windows NT 11.0; Win64; x64) AppleWebKit/537.36 (KHTML, like Gecko) Chrome/131.0.0.0 Safari/537.36","WebKit","Chrome","131.0.0.0","Windows","11.0","https://hz8g1ckzuq.cognition.run/","en,en-US;q=0.9","o8akdyg4kotsd6n","51","[""Black or African-American""]","No","Male","1255738.9","null","","<p></p>","null","choice","dtc","repulsion_1","1","laptops","null","null","null","null","null","null","2","","","","","","","","","",""
"","","","","","choice_trial","survey-html-form","145","1133163","0.0-5.0-1.30","202","1","2025-04-14 14:55:49","bb671e3ae32f654b8954ea4c4635f915","","Mozilla/5.0 (Windows NT 11.0; Win64; x64) AppleWebKit/537.36 (KHTML, like Gecko) Chrome/131.0.0.0 Safari/537.36","WebKit","Chrome","131.0.0.0","Windows","11.0","https://hz8g1ckzuq.cognition.run/","en,en-US;q=0.9","o8akdyg4kotsd6n","51","[""Black or African-American""]","No","Male","1255738.9","6610","","","{""product_choice"":""B""}","choice","dtc","repulsion_1","1","laptops","null","null","null","null","null","null","2","100","90","100","30","40","25","Processing speed","Memory (RAM)","",""
"","","","","","choice_trial_setup","html-keyboard-response","146","1133480","0.0-5.0-0.31","202","1","2025-04-14 14:55:49","bb671e3ae32f654b8954ea4c4635f915","","Mozilla/5.0 (Windows NT 11.0; Win64; x64) AppleWebKit/537.36 (KHTML, like Gecko) Chrome/131.0.0.0 Safari/537.36","WebKit","Chrome","131.0.0.0","Windows","11.0","https://hz8g1ckzuq.cognition.run/","en,en-US;q=0.9","o8akdyg4kotsd6n","51","[""Black or African-American""]","No","Male","1255738.9","null","","<p></p>","null","choice","bww","catch","null","laptops","80","50","5","35","30","25","2","","","","","","","","","",""
"","","","","","choice_trial","survey-html-form","147","1137941","0.0-5.0-1.31","202","1","2025-04-14 14:55:49","bb671e3ae32f654b8954ea4c4635f915","","Mozilla/5.0 (Windows NT 11.0; Win64; x64) AppleWebKit/537.36 (KHTML, like Gecko) Chrome/131.0.0.0 Safari/537.36","WebKit","Chrome","131.0.0.0","Windows","11.0","https://hz8g1ckzuq.cognition.run/","en,en-US;q=0.9","o8akdyg4kotsd6n","51","[""Black or African-American""]","No","Male","1255738.9","4438","","","{""product_choice"":""A""}","choice","bww","catch","null","laptops","80","50","5","35","30","25","2","null","null","null","null","null","null","Processing speed","Memory (RAM)","",""
"","","","","","choice_trial_setup","html-keyboard-response","148","1138260","0.0-5.0-0.32","202","1","2025-04-14 14:55:49","bb671e3ae32f654b8954ea4c4635f915","","Mozilla/5.0 (Windows NT 11.0; Win64; x64) AppleWebKit/537.36 (KHTML, like Gecko) Chrome/131.0.0.0 Safari/537.36","WebKit","Chrome","131.0.0.0","Windows","11.0","https://hz8g1ckzuq.cognition.run/","en,en-US;q=0.9","o8akdyg4kotsd6n","51","[""Black or African-American""]","No","Male","1255738.9","null","","<p></p>","null","choice","ctd","repulsion_2","1","laptops","null","null","null","null","null","null","1","","","","","","","","","",""
"","","","","","choice_trial","survey-html-form","149","1146914","0.0-5.0-1.32","202","1","2025-04-14 14:55:49","bb671e3ae32f654b8954ea4c4635f915","","Mozilla/5.0 (Windows NT 11.0; Win64; x64) AppleWebKit/537.36 (KHTML, like Gecko) Chrome/131.0.0.0 Safari/537.36","WebKit","Chrome","131.0.0.0","Windows","11.0","https://hz8g1ckzuq.cognition.run/","en,en-US;q=0.9","o8akdyg4kotsd6n","51","[""Black or African-American""]","No","Male","1255738.9","8631","","","{""product_choice"":""B""}","choice","ctd","repulsion_2","1","laptops","null","null","null","null","null","null","1","100","90","100","30","40","20","Processing speed","Memory (RAM)","",""
"","","","","","choice_trial_setup","html-keyboard-response","150","1147232","0.0-5.0-0.33","202","1","2025-04-14 14:55:49","bb671e3ae32f654b8954ea4c4635f915","","Mozilla/5.0 (Windows NT 11.0; Win64; x64) AppleWebKit/537.36 (KHTML, like Gecko) Chrome/131.0.0.0 Safari/537.36","WebKit","Chrome","131.0.0.0","Windows","11.0","https://hz8g1ckzuq.cognition.run/","en,en-US;q=0.9","o8akdyg4kotsd6n","51","[""Black or African-American""]","No","Male","1255738.9","null","","<p></p>","null","choice","ctd","attraction_1","1","laptops","null","null","null","null","null","null","1","","","","","","","","","",""
"","","","","","choice_trial","survey-html-form","151","1152674","0.0-5.0-1.33","202","1","2025-04-14 14:55:49","bb671e3ae32f654b8954ea4c4635f915","","Mozilla/5.0 (Windows NT 11.0; Win64; x64) AppleWebKit/537.36 (KHTML, like Gecko) Chrome/131.0.0.0 Safari/537.36","WebKit","Chrome","131.0.0.0","Windows","11.0","https://hz8g1ckzuq.cognition.run/","en,en-US;q=0.9","o8akdyg4kotsd6n","51","[""Black or African-American""]","No","Male","1255738.9","5423","","","{""product_choice"":""B""}","choice","ctd","attraction_1","1","laptops","null","null","null","null","null","null","1","60","50","60","50","60","45","Processing speed","Memory (RAM)","",""
"","","","","","choice_trial_setup","html-keyboard-response","152","1152991","0.0-5.0-0.34","202","1","2025-04-14 14:55:49","bb671e3ae32f654b8954ea4c4635f915","","Mozilla/5.0 (Windows NT 11.0; Win64; x64) AppleWebKit/537.36 (KHTML, like Gecko) Chrome/131.0.0.0 Safari/537.36","WebKit","Chrome","131.0.0.0","Windows","11.0","https://hz8g1ckzuq.cognition.run/","en,en-US;q=0.9","o8akdyg4kotsd6n","51","[""Black or African-American""]","No","Male","1255738.9","null","","<p></p>","null","choice","tcd","attraction_1","1","washing machines","null","null","null","null","null","null","1","","","","","","","","","",""
"","","","","","choice_trial","survey-html-form","153","1157440","0.0-5.0-1.34","202","1","2025-04-14 14:55:49","bb671e3ae32f654b8954ea4c4635f915","","Mozilla/5.0 (Windows NT 11.0; Win64; x64) AppleWebKit/537.36 (KHTML, like Gecko) Chrome/131.0.0.0 Safari/537.36","WebKit","Chrome","131.0.0.0","Windows","11.0","https://hz8g1ckzuq.cognition.run/","en,en-US;q=0.9","o8akdyg4kotsd6n","51","[""Black or African-American""]","No","Male","1255738.9","4427","","","{""product_choice"":""A""}","choice","tcd","attraction_1","1","washing machines","null","null","null","null","null","null","1","60","50","60","50","60","45","Average lifespan","Energy savings","",""
"","","","","","choice_trial_setup","html-keyboard-response","154","1157749","0.0-5.0-0.35","202","1","2025-04-14 14:55:49","bb671e3ae32f654b8954ea4c4635f915","","Mozilla/5.0 (Windows NT 11.0; Win64; x64) AppleWebKit/537.36 (KHTML, like Gecko) Chrome/131.0.0.0 Safari/537.36","WebKit","Chrome","131.0.0.0","Windows","11.0","https://hz8g1ckzuq.cognition.run/","en,en-US;q=0.9","o8akdyg4kotsd6n","51","[""Black or African-American""]","No","Male","1255738.9","null","","<p></p>","null","choice","cdt","repulsion_1","2","microwave ovens","null","null","null","null","null","null","1","","","","","","","","","",""
