"success","timeout","failed_images","failed_audio","failed_video","screen_id","trial_type","trial_index","time_elapsed","internal_node_id","run_id","condition","recorded_at","source_code_version","ip","user_agent","device","browser","browser_version","platform","platform_version","referer","accept_language","ppt_id","age","race","ethnicity","gender","exp_duration","rt","view_history","stimulus","response","phase","order","effect","t_high","category","d1_best","d2_best","d1_worst1","d2_worst1","d1_worst2","d2_worst2","first_dim","d1_t","d1_c","d1_d","d2_t","d2_c","d2_d","d1_name","d2_name","strategy_response","question_order"
"true","false","[]","[]","[]","img preload","preload","0","5432","0.0-0.0","203","1","2025-04-14 14:57:00","bb671e3ae32f654b8954ea4c4635f915","","Mozilla/5.0 (Windows NT 10.0; Win64; x64) AppleWebKit/537.36 (KHTML, like Gecko) Chrome/124.0.0.0 Safari/537.36","WebKit","Chrome","124.0.0.0","Windows","10.0","https://hz8g1ckzuq.cognition.run/","en-US,en;q=0.9","r1czgb0z3obfoze","39","[""White""]","No","Male","2962513.8999999985","","","","","","","","","","","","","","","","","","","","","","","","","",""
"true","","","","","","fullscreen","1","12730","0.0-1.0","203","1","2025-04-14 14:57:00","bb671e3ae32f654b8954ea4c4635f915","","Mozilla/5.0 (Windows NT 10.0; Win64; x64) AppleWebKit/537.36 (KHTML, like Gecko) Chrome/124.0.0.0 Safari/537.36","WebKit","Chrome","124.0.0.0","Windows","10.0","https://hz8g1ckzuq.cognition.run/","en-US,en;q=0.9","r1czgb0z3obfoze","39","[""White""]","No","Male","2962513.8999999985","6263","","","","","","","","","","","","","","","","","","","","","","","","",""
"","","","","","","instructions","2","572288","0.0-2.0","203","1","2025-04-14 14:57:00","bb671e3ae32f654b8954ea4c4635f915","","Mozilla/5.0 (Windows NT 10.0; Win64; x64) AppleWebKit/537.36 (KHTML, like Gecko) Chrome/124.0.0.0 Safari/537.36","WebKit","Chrome","124.0.0.0","Windows","10.0","https://hz8g1ckzuq.cognition.run/","en-US,en;q=0.9","r1czgb0z3obfoze","39","[""White""]","No","Male","2962513.8999999985","559538","[{""page_index"":0,""viewing_time"":92922},{""page_index"":1,""viewing_time"":9109},{""page_index"":2,""viewing_time"":3171},{""page_index"":1,""viewing_time"":24522},{""page_index"":2,""viewing_time"":94574},{""page_index"":3,""viewing_time"":9059},{""page_index"":4,""viewing_time"":100496},{""page_index"":5,""viewing_time"":11684},{""page_index"":6,""viewing_time"":12850},{""page_index"":7,""viewing_time"":79047},{""page_index"":8,""viewing_time"":32947},{""page_index"":7,""viewing_time"":35751},{""page_index"":6,""viewing_time"":1904},{""page_index"":7,""viewing_time"":37023},{""page_index"":8,""viewing_time"":12694},{""page_index"":9,""viewing_time"":1781}]","","","","","","","","","","","","","","","","","","","","","","","",""
"","","","","","rating_trial_setup","html-keyboard-response","3","572598","0.0-3.0-0.0","203","1","2025-04-14 14:57:00","bb671e3ae32f654b8954ea4c4635f915","","Mozilla/5.0 (Windows NT 10.0; Win64; x64) AppleWebKit/537.36 (KHTML, like Gecko) Chrome/124.0.0.0 Safari/537.36","WebKit","Chrome","124.0.0.0","Windows","10.0","https://hz8g1ckzuq.cognition.run/","en-US,en;q=0.9","r1czgb0z3obfoze","39","[""White""]","No","Male","2962513.8999999985","null","","<p></p>","null","rating","cdt","repulsion_2","2","microwave ovens","null","null","null","null","null","null","1","","","","","","","","","",""
"","","","","","rating_trial","survey-html-form","4","606508","0.0-3.0-1.0","203","1","2025-04-14 14:57:00","bb671e3ae32f654b8954ea4c4635f915","","Mozilla/5.0 (Windows NT 10.0; Win64; x64) AppleWebKit/537.36 (KHTML, like Gecko) Chrome/124.0.0.0 Safari/537.36","WebKit","Chrome","124.0.0.0","Windows","10.0","https://hz8g1ckzuq.cognition.run/","en-US,en;q=0.9","r1czgb0z3obfoze","39","[""White""]","No","Male","2962513.8999999985","33880","","","{""price_1"":""120"",""price_2"":""105"",""price_3"":""110""}","rating","cdt","repulsion_2","2","microwave ovens","null","null","null","null","null","null","1","30","40","20","100","90","100","Warranty","Cooking power","",""
"","","","","","rating_trial_setup","html-keyboard-response","5","606815","0.0-3.0-0.1","203","1","2025-04-14 14:57:00","bb671e3ae32f654b8954ea4c4635f915","","Mozilla/5.0 (Windows NT 10.0; Win64; x64) AppleWebKit/537.36 (KHTML, like Gecko) Chrome/124.0.0.0 Safari/537.36","WebKit","Chrome","124.0.0.0","Windows","10.0","https://hz8g1ckzuq.cognition.run/","en-US,en;q=0.9","r1czgb0z3obfoze","39","[""White""]","No","Male","2962513.8999999985","null","","<p></p>","null","rating","dct","repulsion_1","1","televisions","null","null","null","null","null","null","1","","","","","","","","","",""
"","","","","","rating_trial","survey-html-form","6","703853","0.0-3.0-1.1","203","1","2025-04-14 14:57:00","bb671e3ae32f654b8954ea4c4635f915","","Mozilla/5.0 (Windows NT 10.0; Win64; x64) AppleWebKit/537.36 (KHTML, like Gecko) Chrome/124.0.0.0 Safari/537.36","WebKit","Chrome","124.0.0.0","Windows","10.0","https://hz8g1ckzuq.cognition.run/","en-US,en;q=0.9","r1czgb0z3obfoze","39","[""White""]","No","Male","2962513.8999999985","97023","","","{""price_1"":""300"",""price_2"":""400"",""price_3"":""350""}","rating","dct","repulsion_1","1","televisions","null","null","null","null","null","null","1","100","90","100","30","40","25","Screen size","Average lifespan","",""
"","","","","","rating_trial_setup","html-keyboard-response","7","704161","0.0-3.0-0.2","203","1","2025-04-14 14:57:00","bb671e3ae32f654b8954ea4c4635f915","","Mozilla/5.0 (Windows NT 10.0; Win64; x64) AppleWebKit/537.36 (KHTML, like Gecko) Chrome/124.0.0.0 Safari/537.36","WebKit","Chrome","124.0.0.0","Windows","10.0","https://hz8g1ckzuq.cognition.run/","en-US,en;q=0.9","r1czgb0z3obfoze","39","[""White""]","No","Male","2962513.8999999985","null","","<p></p>","null","rating","cdt","attraction_2","1","microwave ovens","null","null","null","null","null","null","2","","","","","","","","","",""
"","","","","","rating_trial","survey-html-form","8","740168","0.0-3.0-1.2","203","1","2025-04-14 14:57:00","bb671e3ae32f654b8954ea4c4635f915","","Mozilla/5.0 (Windows NT 10.0; Win64; x64) AppleWebKit/537.36 (KHTML, like Gecko) Chrome/124.0.0.0 Safari/537.36","WebKit","Chrome","124.0.0.0","Windows","10.0","https://hz8g1ckzuq.cognition.run/","en-US,en;q=0.9","r1czgb0z3obfoze","39","[""White""]","No","Male","2962513.8999999985","35996","","","{""price_1"":""100"",""price_2"":""90"",""price_3"":""100""}","rating","cdt","attraction_2","1","microwave ovens","null","null","null","null","null","null","2","60","50","60","50","60","40","Warranty","Cooking power","",""
"","","","","","rating_trial_setup","html-keyboard-response","9","740476","0.0-3.0-0.3","203","1","2025-04-14 14:57:00","bb671e3ae32f654b8954ea4c4635f915","","Mozilla/5.0 (Windows NT 10.0; Win64; x64) AppleWebKit/537.36 (KHTML, like Gecko) Chrome/124.0.0.0 Safari/537.36","WebKit","Chrome","124.0.0.0","Windows","10.0","https://hz8g1ckzuq.cognition.run/","en-US,en;q=0.9","r1czgb0z3obfoze","39","[""White""]","No","Male","2962513.8999999985","null","","<p></p>","null","rating","tdc","attraction_2","2","washing machines","null","null","null","null","null","null","2","","","","","","","","","",""
"","","","","","rating_trial","survey-html-form","10","800122","0.0-3.0-1.3","203","1","2025-04-14 14:57:00","bb671e3ae32f654b8954ea4c4635f915","","Mozilla/5.0 (Windows NT 10.0; Win64; x64) AppleWebKit/537.36 (KHTML, like Gecko) Chrome/124.0.0.0 Safari/537.36","WebKit","Chrome","124.0.0.0","Windows","10.0","https://hz8g1ckzuq.cognition.run/","en-US,en;q=0.9","r1czgb0z3obfoze","39","[""White""]","No","Male","2962513.8999999985","59635","","","{""price_1"":""250"",""price_2"":""270"",""price_3"":""300""}","rating","tdc","attraction_2","2","washing machines","null","null","null","null","null","null","2","50","60","40","60","50","60","Average lifespan","Energy savings","",""
"","","","","","rating_trial_setup","html-keyboard-response","11","800428","0.0-3.0-0.4","203","1","2025-04-14 14:57:00","bb671e3ae32f654b8954ea4c4635f915","","Mozilla/5.0 (Windows NT 10.0; Win64; x64) AppleWebKit/537.36 (KHTML, like Gecko) Chrome/124.0.0.0 Safari/537.36","WebKit","Chrome","124.0.0.0","Windows","10.0","https://hz8g1ckzuq.cognition.run/","en-US,en;q=0.9","r1czgb0z3obfoze","39","[""White""]","No","Male","2962513.8999999985","null","","<p></p>","null","rating","dct","repulsion_1","1","microwave ovens","null","null","null","null","null","null","2","","","","","","","","","",""
"","","","","","rating_trial","survey-html-form","12","839980","0.0-3.0-1.4","203","1","2025-04-14 14:57:00","bb671e3ae32f654b8954ea4c4635f915","","Mozilla/5.0 (Windows NT 10.0; Win64; x64) AppleWebKit/537.36 (KHTML, like Gecko) Chrome/124.0.0.0 Safari/537.36","WebKit","Chrome","124.0.0.0","Windows","10.0","https://hz8g1ckzuq.cognition.run/","en-US,en;q=0.9","r1czgb0z3obfoze","39","[""White""]","No","Male","2962513.8999999985","39536","","","{""price_1"":""70"",""price_2"":""90"",""price_3"":""80""}","rating","dct","repulsion_1","1","microwave ovens","null","null","null","null","null","null","2","100","90","100","30","40","25","Warranty","Cooking power","",""
"","","","","","rating_trial_setup","html-keyboard-response","13","840287","0.0-3.0-0.5","203","1","2025-04-14 14:57:00","bb671e3ae32f654b8954ea4c4635f915","","Mozilla/5.0 (Windows NT 10.0; Win64; x64) AppleWebKit/537.36 (KHTML, like Gecko) Chrome/124.0.0.0 Safari/537.36","WebKit","Chrome","124.0.0.0","Windows","10.0","https://hz8g1ckzuq.cognition.run/","en-US,en;q=0.9","r1czgb0z3obfoze","39","[""White""]","No","Male","2962513.8999999985","null","","<p></p>","null","rating","cdt","attraction_2","1","televisions","null","null","null","null","null","null","1","","","","","","","","","",""
"","","","","","rating_trial","survey-html-form","14","868425","0.0-3.0-1.5","203","1","2025-04-14 14:57:00","bb671e3ae32f654b8954ea4c4635f915","","Mozilla/5.0 (Windows NT 10.0; Win64; x64) AppleWebKit/537.36 (KHTML, like Gecko) Chrome/124.0.0.0 Safari/537.36","WebKit","Chrome","124.0.0.0","Windows","10.0","https://hz8g1ckzuq.cognition.run/","en-US,en;q=0.9","r1czgb0z3obfoze","39","[""White""]","No","Male","2962513.8999999985","28121","","","{""price_1"":""200"",""price_2"":""250"",""price_3"":""270""}","rating","cdt","attraction_2","1","televisions","null","null","null","null","null","null","1","60","50","60","50","60","40","Screen size","Average lifespan","",""
"","","","","","rating_trial_setup","html-keyboard-response","15","868731","0.0-3.0-0.6","203","1","2025-04-14 14:57:00","bb671e3ae32f654b8954ea4c4635f915","","Mozilla/5.0 (Windows NT 10.0; Win64; x64) AppleWebKit/537.36 (KHTML, like Gecko) Chrome/124.0.0.0 Safari/537.36","WebKit","Chrome","124.0.0.0","Windows","10.0","https://hz8g1ckzuq.cognition.run/","en-US,en;q=0.9","r1czgb0z3obfoze","39","[""White""]","No","Male","2962513.8999999985","null","","<p></p>","null","rating","tdc","attraction_1","1","televisions","null","null","null","null","null","null","1","","","","","","","","","",""
"","","","","","rating_trial","survey-html-form","16","944534","0.0-3.0-1.6","203","1","2025-04-14 14:57:00","bb671e3ae32f654b8954ea4c4635f915","","Mozilla/5.0 (Windows NT 10.0; Win64; x64) AppleWebKit/537.36 (KHTML, like Gecko) Chrome/124.0.0.0 Safari/537.36","WebKit","Chrome","124.0.0.0","Windows","10.0","https://hz8g1ckzuq.cognition.run/","en-US,en;q=0.9","r1czgb0z3obfoze","39","[""White""]","No","Male","2962513.8999999985","75785","","","{""price_1"":""250"",""price_2"":""275"",""price_3"":""240""}","rating","tdc","attraction_1","1","televisions","null","null","null","null","null","null","1","60","50","60","50","60","45","Screen size","Average lifespan","",""
"","","","","","rating_trial_setup","html-keyboard-response","17","944840","0.0-3.0-0.7","203","1","2025-04-14 14:57:00","bb671e3ae32f654b8954ea4c4635f915","","Mozilla/5.0 (Windows NT 10.0; Win64; x64) AppleWebKit/537.36 (KHTML, like Gecko) Chrome/124.0.0.0 Safari/537.36","WebKit","Chrome","124.0.0.0","Windows","10.0","https://hz8g1ckzuq.cognition.run/","en-US,en;q=0.9","r1czgb0z3obfoze","39","[""White""]","No","Male","2962513.8999999985","null","","<p></p>","null","rating","bww","catch","null","laptops","55","70","15","10","25","40","1","","","","","","","","","",""
"","","","","","rating_trial","survey-html-form","18","1020353","0.0-3.0-1.7","203","1","2025-04-14 14:57:00","bb671e3ae32f654b8954ea4c4635f915","","Mozilla/5.0 (Windows NT 10.0; Win64; x64) AppleWebKit/537.36 (KHTML, like Gecko) Chrome/124.0.0.0 Safari/537.36","WebKit","Chrome","124.0.0.0","Windows","10.0","https://hz8g1ckzuq.cognition.run/","en-US,en;q=0.9","r1czgb0z3obfoze","39","[""White""]","No","Male","2962513.8999999985","75501","","","{""price_1"":""500"",""price_2"":""200"",""price_3"":""300""}","rating","bww","catch","null","laptops","55","70","15","10","25","40","1","null","null","null","null","null","null","Processing speed","Memory (RAM)","",""
"","","","","","rating_trial_setup","html-keyboard-response","19","1020658","0.0-3.0-0.8","203","1","2025-04-14 14:57:00","bb671e3ae32f654b8954ea4c4635f915","","Mozilla/5.0 (Windows NT 10.0; Win64; x64) AppleWebKit/537.36 (KHTML, like Gecko) Chrome/124.0.0.0 Safari/537.36","WebKit","Chrome","124.0.0.0","Windows","10.0","https://hz8g1ckzuq.cognition.run/","en-US,en;q=0.9","r1czgb0z3obfoze","39","[""White""]","No","Male","2962513.8999999985","null","","<p></p>","null","rating","tcd","repulsion_2","2","televisions","null","null","null","null","null","null","2","","","","","","","","","",""
"","","","","","rating_trial","survey-html-form","20","1055677","0.0-3.0-1.8","203","1","2025-04-14 14:57:00","bb671e3ae32f654b8954ea4c4635f915","","Mozilla/5.0 (Windows NT 10.0; Win64; x64) AppleWebKit/537.36 (KHTML, like Gecko) Chrome/124.0.0.0 Safari/537.36","WebKit","Chrome","124.0.0.0","Windows","10.0","https://hz8g1ckzuq.cognition.run/","en-US,en;q=0.9","r1czgb0z3obfoze","39","[""White""]","No","Male","2962513.8999999985","35005","","","{""price_1"":""250"",""price_2"":""300"",""price_3"":""200""}","rating","tcd","repulsion_2","2","televisions","null","null","null","null","null","null","2","30","40","20","100","90","100","Screen size","Average lifespan","",""
"","","","","","rating_trial_setup","html-keyboard-response","21","1055984","0.0-3.0-0.9","203","1","2025-04-14 14:57:00","bb671e3ae32f654b8954ea4c4635f915","","Mozilla/5.0 (Windows NT 10.0; Win64; x64) AppleWebKit/537.36 (KHTML, like Gecko) Chrome/124.0.0.0 Safari/537.36","WebKit","Chrome","124.0.0.0","Windows","10.0","https://hz8g1ckzuq.cognition.run/","en-US,en;q=0.9","r1czgb0z3obfoze","39","[""White""]","No","Male","2962513.8999999985","null","","<p></p>","null","rating","wbw","catch","null","televisions","85","80","40","45","50","35","1","","","","","","","","","",""
"","","","","","rating_trial","survey-html-form","22","1107129","0.0-3.0-1.9","203","1","2025-04-14 14:57:00","bb671e3ae32f654b8954ea4c4635f915","","Mozilla/5.0 (Windows NT 10.0; Win64; x64) AppleWebKit/537.36 (KHTML, like Gecko) Chrome/124.0.0.0 Safari/537.36","WebKit","Chrome","124.0.0.0","Windows","10.0","https://hz8g1ckzuq.cognition.run/","en-US,en;q=0.9","r1czgb0z3obfoze","39","[""White""]","No","Male","2962513.8999999985","51122","","","{""price_1"":""250"",""price_2"":""400"",""price_3"":""300""}","rating","wbw","catch","null","televisions","85","80","40","45","50","35","1","null","null","null","null","null","null","Screen size","Average lifespan","",""
"","","","","","rating_trial_setup","html-keyboard-response","23","1107435","0.0-3.0-0.10","203","1","2025-04-14 14:57:00","bb671e3ae32f654b8954ea4c4635f915","","Mozilla/5.0 (Windows NT 10.0; Win64; x64) AppleWebKit/537.36 (KHTML, like Gecko) Chrome/124.0.0.0 Safari/537.36","WebKit","Chrome","124.0.0.0","Windows","10.0","https://hz8g1ckzuq.cognition.run/","en-US,en;q=0.9","r1czgb0z3obfoze","39","[""White""]","No","Male","2962513.8999999985","null","","<p></p>","null","rating","wbw","catch","null","microwave ovens","90","85","50","20","45","25","2","","","","","","","","","",""
"","","","","","rating_trial","survey-html-form","24","1128515","0.0-3.0-1.10","203","1","2025-04-14 14:57:00","bb671e3ae32f654b8954ea4c4635f915","","Mozilla/5.0 (Windows NT 10.0; Win64; x64) AppleWebKit/537.36 (KHTML, like Gecko) Chrome/124.0.0.0 Safari/537.36","WebKit","Chrome","124.0.0.0","Windows","10.0","https://hz8g1ckzuq.cognition.run/","en-US,en;q=0.9","r1czgb0z3obfoze","39","[""White""]","No","Male","2962513.8999999985","21063","","","{""price_1"":""70"",""price_2"":""130"",""price_3"":""75""}","rating","wbw","catch","null","microwave ovens","90","85","50","20","45","25","2","null","null","null","null","null","null","Warranty","Cooking power","",""
"","","","","","rating_trial_setup","html-keyboard-response","25","1128824","0.0-3.0-0.11","203","1","2025-04-14 14:57:00","bb671e3ae32f654b8954ea4c4635f915","","Mozilla/5.0 (Windows NT 10.0; Win64; x64) AppleWebKit/537.36 (KHTML, like Gecko) Chrome/124.0.0.0 Safari/537.36","WebKit","Chrome","124.0.0.0","Windows","10.0","https://hz8g1ckzuq.cognition.run/","en-US,en;q=0.9","r1czgb0z3obfoze","39","[""White""]","No","Male","2962513.8999999985","null","","<p></p>","null","rating","ctd","attraction_1","2","televisions","null","null","null","null","null","null","1","","","","","","","","","",""
"","","","","","rating_trial","survey-html-form","26","1148625","0.0-3.0-1.11","203","1","2025-04-14 14:57:00","bb671e3ae32f654b8954ea4c4635f915","","Mozilla/5.0 (Windows NT 10.0; Win64; x64) AppleWebKit/537.36 (KHTML, like Gecko) Chrome/124.0.0.0 Safari/537.36","WebKit","Chrome","124.0.0.0","Windows","10.0","https://hz8g1ckzuq.cognition.run/","en-US,en;q=0.9","r1czgb0z3obfoze","39","[""White""]","No","Male","2962513.8999999985","19788","","","{""price_1"":""300"",""price_2"":""250"",""price_3"":""200""}","rating","ctd","attraction_1","2","televisions","null","null","null","null","null","null","1","50","60","45","60","50","60","Screen size","Average lifespan","",""
"","","","","","rating_trial_setup","html-keyboard-response","27","1148930","0.0-3.0-0.12","203","1","2025-04-14 14:57:00","bb671e3ae32f654b8954ea4c4635f915","","Mozilla/5.0 (Windows NT 10.0; Win64; x64) AppleWebKit/537.36 (KHTML, like Gecko) Chrome/124.0.0.0 Safari/537.36","WebKit","Chrome","124.0.0.0","Windows","10.0","https://hz8g1ckzuq.cognition.run/","en-US,en;q=0.9","r1czgb0z3obfoze","39","[""White""]","No","Male","2962513.8999999985","null","","<p></p>","null","rating","cdt","attraction_1","2","washing machines","null","null","null","null","null","null","1","","","","","","","","","",""
"","","","","","rating_trial","survey-html-form","28","1188794","0.0-3.0-1.12","203","1","2025-04-14 14:57:00","bb671e3ae32f654b8954ea4c4635f915","","Mozilla/5.0 (Windows NT 10.0; Win64; x64) AppleWebKit/537.36 (KHTML, like Gecko) Chrome/124.0.0.0 Safari/537.36","WebKit","Chrome","124.0.0.0","Windows","10.0","https://hz8g1ckzuq.cognition.run/","en-US,en;q=0.9","r1czgb0z3obfoze","39","[""White""]","No","Male","2962513.8999999985","39840","","","{""price_1"":""300"",""price_2"":""250"",""price_3"":""300""}","rating","cdt","attraction_1","2","washing machines","null","null","null","null","null","null","1","50","60","45","60","50","60","Average lifespan","Energy savings","",""
"","","","","","rating_trial_setup","html-keyboard-response","29","1189103","0.0-3.0-0.13","203","1","2025-04-14 14:57:00","bb671e3ae32f654b8954ea4c4635f915","","Mozilla/5.0 (Windows NT 10.0; Win64; x64) AppleWebKit/537.36 (KHTML, like Gecko) Chrome/124.0.0.0 Safari/537.36","WebKit","Chrome","124.0.0.0","Windows","10.0","https://hz8g1ckzuq.cognition.run/","en-US,en;q=0.9","r1czgb0z3obfoze","39","[""White""]","No","Male","2962513.8999999985","null","","<p></p>","null","rating","ctd","attraction_1","1","laptops","null","null","null","null","null","null","1","","","","","","","","","",""
"","","","","","rating_trial","survey-html-form","30","1209846","0.0-3.0-1.13","203","1","2025-04-14 14:57:00","bb671e3ae32f654b8954ea4c4635f915","","Mozilla/5.0 (Windows NT 10.0; Win64; x64) AppleWebKit/537.36 (KHTML, like Gecko) Chrome/124.0.0.0 Safari/537.36","WebKit","Chrome","124.0.0.0","Windows","10.0","https://hz8g1ckzuq.cognition.run/","en-US,en;q=0.9","r1czgb0z3obfoze","39","[""White""]","No","Male","2962513.8999999985","20722","","","{""price_1"":""400"",""price_2"":""400"",""price_3"":""350""}","rating","ctd","attraction_1","1","laptops","null","null","null","null","null","null","1","60","50","60","50","60","45","Processing speed","Memory (RAM)","",""
"","","","","","rating_trial_setup","html-keyboard-response","31","1210153","0.0-3.0-0.14","203","1","2025-04-14 14:57:00","bb671e3ae32f654b8954ea4c4635f915","","Mozilla/5.0 (Windows NT 10.0; Win64; x64) AppleWebKit/537.36 (KHTML, like Gecko) Chrome/124.0.0.0 Safari/537.36","WebKit","Chrome","124.0.0.0","Windows","10.0","https://hz8g1ckzuq.cognition.run/","en-US,en;q=0.9","r1czgb0z3obfoze","39","[""White""]","No","Male","2962513.8999999985","null","","<p></p>","null","rating","cdt","repulsion_1","2","microwave ovens","null","null","null","null","null","null","1","","","","","","","","","",""
"","","","","","rating_trial","survey-html-form","32","1237240","0.0-3.0-1.14","203","1","2025-04-14 14:57:00","bb671e3ae32f654b8954ea4c4635f915","","Mozilla/5.0 (Windows NT 10.0; Win64; x64) AppleWebKit/537.36 (KHTML, like Gecko) Chrome/124.0.0.0 Safari/537.36","WebKit","Chrome","124.0.0.0","Windows","10.0","https://hz8g1ckzuq.cognition.run/","en-US,en;q=0.9","r1czgb0z3obfoze","39","[""White""]","No","Male","2962513.8999999985","27069","","","{""price_1"":""130"",""price_2"":""140"",""price_3"":""140""}","rating","cdt","repulsion_1","2","microwave ovens","null","null","null","null","null","null","1","30","40","25","100","90","100","Warranty","Cooking power","",""
"","","","","","rating_trial_setup","html-keyboard-response","33","1237545","0.0-3.0-0.15","203","1","2025-04-14 14:57:00","bb671e3ae32f654b8954ea4c4635f915","","Mozilla/5.0 (Windows NT 10.0; Win64; x64) AppleWebKit/537.36 (KHTML, like Gecko) Chrome/124.0.0.0 Safari/537.36","WebKit","Chrome","124.0.0.0","Windows","10.0","https://hz8g1ckzuq.cognition.run/","en-US,en;q=0.9","r1czgb0z3obfoze","39","[""White""]","No","Male","2962513.8999999985","null","","<p></p>","null","rating","tdc","attraction_1","1","microwave ovens","null","null","null","null","null","null","2","","","","","","","","","",""
"","","","","","rating_trial","survey-html-form","34","1259888","0.0-3.0-1.15","203","1","2025-04-14 14:57:00","bb671e3ae32f654b8954ea4c4635f915","","Mozilla/5.0 (Windows NT 10.0; Win64; x64) AppleWebKit/537.36 (KHTML, like Gecko) Chrome/124.0.0.0 Safari/537.36","WebKit","Chrome","124.0.0.0","Windows","10.0","https://hz8g1ckzuq.cognition.run/","en-US,en;q=0.9","r1czgb0z3obfoze","39","[""White""]","No","Male","2962513.8999999985","22332","","","{""price_1"":""100"",""price_2"":""100"",""price_3"":""90""}","rating","tdc","attraction_1","1","microwave ovens","null","null","null","null","null","null","2","60","50","60","50","60","45","Warranty","Cooking power","",""
"","","","","","rating_trial_setup","html-keyboard-response","35","1260196","0.0-3.0-0.16","203","1","2025-04-14 14:57:00","bb671e3ae32f654b8954ea4c4635f915","","Mozilla/5.0 (Windows NT 10.0; Win64; x64) AppleWebKit/537.36 (KHTML, like Gecko) Chrome/124.0.0.0 Safari/537.36","WebKit","Chrome","124.0.0.0","Windows","10.0","https://hz8g1ckzuq.cognition.run/","en-US,en;q=0.9","r1czgb0z3obfoze","39","[""White""]","No","Male","2962513.8999999985","null","","<p></p>","null","rating","tcd","attraction_1","1","washing machines","null","null","null","null","null","null","1","","","","","","","","","",""
"","","","","","rating_trial","survey-html-form","36","1290970","0.0-3.0-1.16","203","1","2025-04-14 14:57:00","bb671e3ae32f654b8954ea4c4635f915","","Mozilla/5.0 (Windows NT 10.0; Win64; x64) AppleWebKit/537.36 (KHTML, like Gecko) Chrome/124.0.0.0 Safari/537.36","WebKit","Chrome","124.0.0.0","Windows","10.0","https://hz8g1ckzuq.cognition.run/","en-US,en;q=0.9","r1czgb0z3obfoze","39","[""White""]","No","Male","2962513.8999999985","30752","","","{""price_1"":""300"",""price_2"":""250"",""price_3"":""200""}","rating","tcd","attraction_1","1","washing machines","null","null","null","null","null","null","1","60","50","60","50","60","45","Average lifespan","Energy savings","",""
"","","","","","rating_trial_setup","html-keyboard-response","37","1291276","0.0-3.0-0.17","203","1","2025-04-14 14:57:00","bb671e3ae32f654b8954ea4c4635f915","","Mozilla/5.0 (Windows NT 10.0; Win64; x64) AppleWebKit/537.36 (KHTML, like Gecko) Chrome/124.0.0.0 Safari/537.36","WebKit","Chrome","124.0.0.0","Windows","10.0","https://hz8g1ckzuq.cognition.run/","en-US,en;q=0.9","r1czgb0z3obfoze","39","[""White""]","No","Male","2962513.8999999985","null","","<p></p>","null","rating","wbw","catch","null","washing machines","95","75","45","15","40","30","2","","","","","","","","","",""
"","","","","","rating_trial","survey-html-form","38","1314839","0.0-3.0-1.17","203","1","2025-04-14 14:57:00","bb671e3ae32f654b8954ea4c4635f915","","Mozilla/5.0 (Windows NT 10.0; Win64; x64) AppleWebKit/537.36 (KHTML, like Gecko) Chrome/124.0.0.0 Safari/537.36","WebKit","Chrome","124.0.0.0","Windows","10.0","https://hz8g1ckzuq.cognition.run/","en-US,en;q=0.9","r1czgb0z3obfoze","39","[""White""]","No","Male","2962513.8999999985","23538","","","{""price_1"":""200"",""price_2"":""215"",""price_3"":""190""}","rating","wbw","catch","null","washing machines","95","75","45","15","40","30","2","null","null","null","null","null","null","Average lifespan","Energy savings","",""
"","","","","","rating_trial_setup","html-keyboard-response","39","1315148","0.0-3.0-0.18","203","1","2025-04-14 14:57:00","bb671e3ae32f654b8954ea4c4635f915","","Mozilla/5.0 (Windows NT 10.0; Win64; x64) AppleWebKit/537.36 (KHTML, like Gecko) Chrome/124.0.0.0 Safari/537.36","WebKit","Chrome","124.0.0.0","Windows","10.0","https://hz8g1ckzuq.cognition.run/","en-US,en;q=0.9","r1czgb0z3obfoze","39","[""White""]","No","Male","2962513.8999999985","null","","<p></p>","null","rating","ctd","repulsion_2","1","laptops","null","null","null","null","null","null","2","","","","","","","","","",""
"","","","","","rating_trial","survey-html-form","40","1336206","0.0-3.0-1.18","203","1","2025-04-14 14:57:00","bb671e3ae32f654b8954ea4c4635f915","","Mozilla/5.0 (Windows NT 10.0; Win64; x64) AppleWebKit/537.36 (KHTML, like Gecko) Chrome/124.0.0.0 Safari/537.36","WebKit","Chrome","124.0.0.0","Windows","10.0","https://hz8g1ckzuq.cognition.run/","en-US,en;q=0.9","r1czgb0z3obfoze","39","[""White""]","No","Male","2962513.8999999985","21028","","","{""price_1"":""300"",""price_2"":""400"",""price_3"":""400""}","rating","ctd","repulsion_2","1","laptops","null","null","null","null","null","null","2","100","90","100","30","40","20","Processing speed","Memory (RAM)","",""
"","","","","","rating_trial_setup","html-keyboard-response","41","1336515","0.0-3.0-0.19","203","1","2025-04-14 14:57:00","bb671e3ae32f654b8954ea4c4635f915","","Mozilla/5.0 (Windows NT 10.0; Win64; x64) AppleWebKit/537.36 (KHTML, like Gecko) Chrome/124.0.0.0 Safari/537.36","WebKit","Chrome","124.0.0.0","Windows","10.0","https://hz8g1ckzuq.cognition.run/","en-US,en;q=0.9","r1czgb0z3obfoze","39","[""White""]","No","Male","2962513.8999999985","null","","<p></p>","null","rating","ctd","repulsion_2","1","washing machines","null","null","null","null","null","null","1","","","","","","","","","",""
"","","","","","rating_trial","survey-html-form","42","1374245","0.0-3.0-1.19","203","1","2025-04-14 14:57:00","bb671e3ae32f654b8954ea4c4635f915","","Mozilla/5.0 (Windows NT 10.0; Win64; x64) AppleWebKit/537.36 (KHTML, like Gecko) Chrome/124.0.0.0 Safari/537.36","WebKit","Chrome","124.0.0.0","Windows","10.0","https://hz8g1ckzuq.cognition.run/","en-US,en;q=0.9","r1czgb0z3obfoze","39","[""White""]","No","Male","2962513.8999999985","37724","","","{""price_1"":""260"",""price_2"":""250"",""price_3"":""200""}","rating","ctd","repulsion_2","1","washing machines","null","null","null","null","null","null","1","100","90","100","30","40","20","Average lifespan","Energy savings","",""
"","","","","","rating_trial_setup","html-keyboard-response","43","1374557","0.0-3.0-0.20","203","1","2025-04-14 14:57:00","bb671e3ae32f654b8954ea4c4635f915","","Mozilla/5.0 (Windows NT 10.0; Win64; x64) AppleWebKit/537.36 (KHTML, like Gecko) Chrome/124.0.0.0 Safari/537.36","WebKit","Chrome","124.0.0.0","Windows","10.0","https://hz8g1ckzuq.cognition.run/","en-US,en;q=0.9","r1czgb0z3obfoze","39","[""White""]","No","Male","2962513.8999999985","null","","<p></p>","null","rating","dct","attraction_2","1","laptops","null","null","null","null","null","null","1","","","","","","","","","",""
"","","","","","rating_trial","survey-html-form","44","1395341","0.0-3.0-1.20","203","1","2025-04-14 14:57:00","bb671e3ae32f654b8954ea4c4635f915","","Mozilla/5.0 (Windows NT 10.0; Win64; x64) AppleWebKit/537.36 (KHTML, like Gecko) Chrome/124.0.0.0 Safari/537.36","WebKit","Chrome","124.0.0.0","Windows","10.0","https://hz8g1ckzuq.cognition.run/","en-US,en;q=0.9","r1czgb0z3obfoze","39","[""White""]","No","Male","2962513.8999999985","20757","","","{""price_1"":""300"",""price_2"":""300"",""price_3"":""300""}","rating","dct","attraction_2","1","laptops","null","null","null","null","null","null","1","60","50","60","50","60","40","Processing speed","Memory (RAM)","",""
"","","","","","rating_trial_setup","html-keyboard-response","45","1395648","0.0-3.0-0.21","203","1","2025-04-14 14:57:00","bb671e3ae32f654b8954ea4c4635f915","","Mozilla/5.0 (Windows NT 10.0; Win64; x64) AppleWebKit/537.36 (KHTML, like Gecko) Chrome/124.0.0.0 Safari/537.36","WebKit","Chrome","124.0.0.0","Windows","10.0","https://hz8g1ckzuq.cognition.run/","en-US,en;q=0.9","r1czgb0z3obfoze","39","[""White""]","No","Male","2962513.8999999985","null","","<p></p>","null","rating","dct","attraction_2","2","laptops","null","null","null","null","null","null","2","","","","","","","","","",""
"","","","","","rating_trial","survey-html-form","46","1421366","0.0-3.0-1.21","203","1","2025-04-14 14:57:00","bb671e3ae32f654b8954ea4c4635f915","","Mozilla/5.0 (Windows NT 10.0; Win64; x64) AppleWebKit/537.36 (KHTML, like Gecko) Chrome/124.0.0.0 Safari/537.36","WebKit","Chrome","124.0.0.0","Windows","10.0","https://hz8g1ckzuq.cognition.run/","en-US,en;q=0.9","r1czgb0z3obfoze","39","[""White""]","No","Male","2962513.8999999985","25692","","","{""price_1"":""300"",""price_2"":""350"",""price_3"":""350""}","rating","dct","attraction_2","2","laptops","null","null","null","null","null","null","2","50","60","40","60","50","60","Processing speed","Memory (RAM)","",""
"","","","","","rating_trial_setup","html-keyboard-response","47","1421674","0.0-3.0-0.22","203","1","2025-04-14 14:57:00","bb671e3ae32f654b8954ea4c4635f915","","Mozilla/5.0 (Windows NT 10.0; Win64; x64) AppleWebKit/537.36 (KHTML, like Gecko) Chrome/124.0.0.0 Safari/537.36","WebKit","Chrome","124.0.0.0","Windows","10.0","https://hz8g1ckzuq.cognition.run/","en-US,en;q=0.9","r1czgb0z3obfoze","39","[""White""]","No","Male","2962513.8999999985","null","","<p></p>","null","rating","dtc","repulsion_2","2","washing machines","null","null","null","null","null","null","1","","","","","","","","","",""
"","","","","","rating_trial","survey-html-form","48","1451952","0.0-3.0-1.22","203","1","2025-04-14 14:57:00","bb671e3ae32f654b8954ea4c4635f915","","Mozilla/5.0 (Windows NT 10.0; Win64; x64) AppleWebKit/537.36 (KHTML, like Gecko) Chrome/124.0.0.0 Safari/537.36","WebKit","Chrome","124.0.0.0","Windows","10.0","https://hz8g1ckzuq.cognition.run/","en-US,en;q=0.9","r1czgb0z3obfoze","39","[""White""]","No","Male","2962513.8999999985","30248","","","{""price_1"":""250"",""price_2"":""265"",""price_3"":""240""}","rating","dtc","repulsion_2","2","washing machines","null","null","null","null","null","null","1","30","40","20","100","90","100","Average lifespan","Energy savings","",""
"","","","","","rating_trial_setup","html-keyboard-response","49","1452261","0.0-3.0-0.23","203","1","2025-04-14 14:57:00","bb671e3ae32f654b8954ea4c4635f915","","Mozilla/5.0 (Windows NT 10.0; Win64; x64) AppleWebKit/537.36 (KHTML, like Gecko) Chrome/124.0.0.0 Safari/537.36","WebKit","Chrome","124.0.0.0","Windows","10.0","https://hz8g1ckzuq.cognition.run/","en-US,en;q=0.9","r1czgb0z3obfoze","39","[""White""]","No","Male","2962513.8999999985","null","","<p></p>","null","rating","tcd","repulsion_1","1","washing machines","null","null","null","null","null","null","1","","","","","","","","","",""
"","","","","","rating_trial","survey-html-form","50","1471279","0.0-3.0-1.23","203","1","2025-04-14 14:57:00","bb671e3ae32f654b8954ea4c4635f915","","Mozilla/5.0 (Windows NT 10.0; Win64; x64) AppleWebKit/537.36 (KHTML, like Gecko) Chrome/124.0.0.0 Safari/537.36","WebKit","Chrome","124.0.0.0","Windows","10.0","https://hz8g1ckzuq.cognition.run/","en-US,en;q=0.9","r1czgb0z3obfoze","39","[""White""]","No","Male","2962513.8999999985","18986","","","{""price_1"":""200"",""price_2"":""200"",""price_3"":""200""}","rating","tcd","repulsion_1","1","washing machines","null","null","null","null","null","null","1","100","90","100","30","40","25","Average lifespan","Energy savings","",""
"","","","","","rating_trial_setup","html-keyboard-response","51","1471596","0.0-3.0-0.24","203","1","2025-04-14 14:57:00","bb671e3ae32f654b8954ea4c4635f915","","Mozilla/5.0 (Windows NT 10.0; Win64; x64) AppleWebKit/537.36 (KHTML, like Gecko) Chrome/124.0.0.0 Safari/537.36","WebKit","Chrome","124.0.0.0","Windows","10.0","https://hz8g1ckzuq.cognition.run/","en-US,en;q=0.9","r1czgb0z3obfoze","39","[""White""]","No","Male","2962513.8999999985","null","","<p></p>","null","rating","wbw","catch","null","washing machines","50","70","50","25","25","15","1","","","","","","","","","",""
"","","","","","rating_trial","survey-html-form","52","1580056","0.0-3.0-1.24","203","1","2025-04-14 14:57:00","bb671e3ae32f654b8954ea4c4635f915","","Mozilla/5.0 (Windows NT 10.0; Win64; x64) AppleWebKit/537.36 (KHTML, like Gecko) Chrome/124.0.0.0 Safari/537.36","WebKit","Chrome","124.0.0.0","Windows","10.0","https://hz8g1ckzuq.cognition.run/","en-US,en;q=0.9","r1czgb0z3obfoze","39","[""White""]","No","Male","2962513.8999999985","108429","","","{""price_1"":""215"",""price_2"":""220"",""price_3"":""175""}","rating","wbw","catch","null","washing machines","50","70","50","25","25","15","1","null","null","null","null","null","null","Average lifespan","Energy savings","",""
"","","","","","rating_trial_setup","html-keyboard-response","53","1580364","0.0-3.0-0.25","203","1","2025-04-14 14:57:00","bb671e3ae32f654b8954ea4c4635f915","","Mozilla/5.0 (Windows NT 10.0; Win64; x64) AppleWebKit/537.36 (KHTML, like Gecko) Chrome/124.0.0.0 Safari/537.36","WebKit","Chrome","124.0.0.0","Windows","10.0","https://hz8g1ckzuq.cognition.run/","en-US,en;q=0.9","r1czgb0z3obfoze","39","[""White""]","No","Male","2962513.8999999985","null","","<p></p>","null","rating","bww","catch","null","microwave ovens","65","60","5","35","45","25","2","","","","","","","","","",""
"","","","","","rating_trial","survey-html-form","54","1614784","0.0-3.0-1.25","203","1","2025-04-14 14:57:00","bb671e3ae32f654b8954ea4c4635f915","","Mozilla/5.0 (Windows NT 10.0; Win64; x64) AppleWebKit/537.36 (KHTML, like Gecko) Chrome/124.0.0.0 Safari/537.36","WebKit","Chrome","124.0.0.0","Windows","10.0","https://hz8g1ckzuq.cognition.run/","en-US,en;q=0.9","r1czgb0z3obfoze","39","[""White""]","No","Male","2962513.8999999985","34389","","","{""price_1"":""80"",""price_2"":""60"",""price_3"":""50""}","rating","bww","catch","null","microwave ovens","65","60","5","35","45","25","2","null","null","null","null","null","null","Warranty","Cooking power","",""
"","","","","","rating_trial_setup","html-keyboard-response","55","1615093","0.0-3.0-0.26","203","1","2025-04-14 14:57:00","bb671e3ae32f654b8954ea4c4635f915","","Mozilla/5.0 (Windows NT 10.0; Win64; x64) AppleWebKit/537.36 (KHTML, like Gecko) Chrome/124.0.0.0 Safari/537.36","WebKit","Chrome","124.0.0.0","Windows","10.0","https://hz8g1ckzuq.cognition.run/","en-US,en;q=0.9","r1czgb0z3obfoze","39","[""White""]","No","Male","2962513.8999999985","null","","<p></p>","null","rating","tdc","repulsion_2","2","laptops","null","null","null","null","null","null","2","","","","","","","","","",""
"","","","","","rating_trial","survey-html-form","56","1640619","0.0-3.0-1.26","203","1","2025-04-14 14:57:00","bb671e3ae32f654b8954ea4c4635f915","","Mozilla/5.0 (Windows NT 10.0; Win64; x64) AppleWebKit/537.36 (KHTML, like Gecko) Chrome/124.0.0.0 Safari/537.36","WebKit","Chrome","124.0.0.0","Windows","10.0","https://hz8g1ckzuq.cognition.run/","en-US,en;q=0.9","r1czgb0z3obfoze","39","[""White""]","No","Male","2962513.8999999985","25496","","","{""price_1"":""300"",""price_2"":""300"",""price_3"":""250""}","rating","tdc","repulsion_2","2","laptops","null","null","null","null","null","null","2","30","40","20","100","90","100","Processing speed","Memory (RAM)","",""
"","","","","","rating_trial_setup","html-keyboard-response","57","1640927","0.0-3.0-0.27","203","1","2025-04-14 14:57:00","bb671e3ae32f654b8954ea4c4635f915","","Mozilla/5.0 (Windows NT 10.0; Win64; x64) AppleWebKit/537.36 (KHTML, like Gecko) Chrome/124.0.0.0 Safari/537.36","WebKit","Chrome","124.0.0.0","Windows","10.0","https://hz8g1ckzuq.cognition.run/","en-US,en;q=0.9","r1czgb0z3obfoze","39","[""White""]","No","Male","2962513.8999999985","null","","<p></p>","null","rating","bww","catch","null","laptops","60","85","45","35","45","25","1","","","","","","","","","",""
"","","","","","rating_trial","survey-html-form","58","1659670","0.0-3.0-1.27","203","1","2025-04-14 14:57:00","bb671e3ae32f654b8954ea4c4635f915","","Mozilla/5.0 (Windows NT 10.0; Win64; x64) AppleWebKit/537.36 (KHTML, like Gecko) Chrome/124.0.0.0 Safari/537.36","WebKit","Chrome","124.0.0.0","Windows","10.0","https://hz8g1ckzuq.cognition.run/","en-US,en;q=0.9","r1czgb0z3obfoze","39","[""White""]","No","Male","2962513.8999999985","18712","","","{""price_1"":""300"",""price_2"":""250"",""price_3"":""240""}","rating","bww","catch","null","laptops","60","85","45","35","45","25","1","null","null","null","null","null","null","Processing speed","Memory (RAM)","",""
"","","","","","rating_trial_setup","html-keyboard-response","59","1659979","0.0-3.0-0.28","203","1","2025-04-14 14:57:00","bb671e3ae32f654b8954ea4c4635f915","","Mozilla/5.0 (Windows NT 10.0; Win64; x64) AppleWebKit/537.36 (KHTML, like Gecko) Chrome/124.0.0.0 Safari/537.36","WebKit","Chrome","124.0.0.0","Windows","10.0","https://hz8g1ckzuq.cognition.run/","en-US,en;q=0.9","r1czgb0z3obfoze","39","[""White""]","No","Male","2962513.8999999985","null","","<p></p>","null","rating","dct","repulsion_2","1","microwave ovens","null","null","null","null","null","null","2","","","","","","","","","",""
"","","","","","rating_trial","survey-html-form","60","1679875","0.0-3.0-1.28","203","1","2025-04-14 14:57:00","bb671e3ae32f654b8954ea4c4635f915","","Mozilla/5.0 (Windows NT 10.0; Win64; x64) AppleWebKit/537.36 (KHTML, like Gecko) Chrome/124.0.0.0 Safari/537.36","WebKit","Chrome","124.0.0.0","Windows","10.0","https://hz8g1ckzuq.cognition.run/","en-US,en;q=0.9","r1czgb0z3obfoze","39","[""White""]","No","Male","2962513.8999999985","19863","","","{""price_1"":""80"",""price_2"":""90"",""price_3"":""80""}","rating","dct","repulsion_2","1","microwave ovens","null","null","null","null","null","null","2","100","90","100","30","40","20","Warranty","Cooking power","",""
"","","","","","rating_trial_setup","html-keyboard-response","61","1680184","0.0-3.0-0.29","203","1","2025-04-14 14:57:00","bb671e3ae32f654b8954ea4c4635f915","","Mozilla/5.0 (Windows NT 10.0; Win64; x64) AppleWebKit/537.36 (KHTML, like Gecko) Chrome/124.0.0.0 Safari/537.36","WebKit","Chrome","124.0.0.0","Windows","10.0","https://hz8g1ckzuq.cognition.run/","en-US,en;q=0.9","r1czgb0z3obfoze","39","[""White""]","No","Male","2962513.8999999985","null","","<p></p>","null","rating","wbw","catch","null","televisions","80","55","50","10","15","20","1","","","","","","","","","",""
"","","","","","rating_trial","survey-html-form","62","1776208","0.0-3.0-1.29","203","1","2025-04-14 14:57:00","bb671e3ae32f654b8954ea4c4635f915","","Mozilla/5.0 (Windows NT 10.0; Win64; x64) AppleWebKit/537.36 (KHTML, like Gecko) Chrome/124.0.0.0 Safari/537.36","WebKit","Chrome","124.0.0.0","Windows","10.0","https://hz8g1ckzuq.cognition.run/","en-US,en;q=0.9","r1czgb0z3obfoze","39","[""White""]","No","Male","2962513.8999999985","95993","","","{""price_1"":""250"",""price_2"":""300"",""price_3"":""150""}","rating","wbw","catch","null","televisions","80","55","50","10","15","20","1","null","null","null","null","null","null","Screen size","Average lifespan","",""
"","","","","","rating_trial_setup","html-keyboard-response","63","1776518","0.0-3.0-0.30","203","1","2025-04-14 14:57:00","bb671e3ae32f654b8954ea4c4635f915","","Mozilla/5.0 (Windows NT 10.0; Win64; x64) AppleWebKit/537.36 (KHTML, like Gecko) Chrome/124.0.0.0 Safari/537.36","WebKit","Chrome","124.0.0.0","Windows","10.0","https://hz8g1ckzuq.cognition.run/","en-US,en;q=0.9","r1czgb0z3obfoze","39","[""White""]","No","Male","2962513.8999999985","null","","<p></p>","null","rating","dct","attraction_2","1","washing machines","null","null","null","null","null","null","2","","","","","","","","","",""
"","","","","","rating_trial","survey-html-form","64","1817313","0.0-3.0-1.30","203","1","2025-04-14 14:57:00","bb671e3ae32f654b8954ea4c4635f915","","Mozilla/5.0 (Windows NT 10.0; Win64; x64) AppleWebKit/537.36 (KHTML, like Gecko) Chrome/124.0.0.0 Safari/537.36","WebKit","Chrome","124.0.0.0","Windows","10.0","https://hz8g1ckzuq.cognition.run/","en-US,en;q=0.9","r1czgb0z3obfoze","39","[""White""]","No","Male","2962513.8999999985","40761","","","{""price_1"":""230"",""price_2"":""200"",""price_3"":""230""}","rating","dct","attraction_2","1","washing machines","null","null","null","null","null","null","2","60","50","60","50","60","40","Average lifespan","Energy savings","",""
"","","","","","rating_trial_setup","html-keyboard-response","65","1817623","0.0-3.0-0.31","203","1","2025-04-14 14:57:00","bb671e3ae32f654b8954ea4c4635f915","","Mozilla/5.0 (Windows NT 10.0; Win64; x64) AppleWebKit/537.36 (KHTML, like Gecko) Chrome/124.0.0.0 Safari/537.36","WebKit","Chrome","124.0.0.0","Windows","10.0","https://hz8g1ckzuq.cognition.run/","en-US,en;q=0.9","r1czgb0z3obfoze","39","[""White""]","No","Male","2962513.8999999985","null","","<p></p>","null","rating","cdt","attraction_2","2","microwave ovens","null","null","null","null","null","null","1","","","","","","","","","",""
"","","","","","rating_trial","survey-html-form","66","1837716","0.0-3.0-1.31","203","1","2025-04-14 14:57:00","bb671e3ae32f654b8954ea4c4635f915","","Mozilla/5.0 (Windows NT 10.0; Win64; x64) AppleWebKit/537.36 (KHTML, like Gecko) Chrome/124.0.0.0 Safari/537.36","WebKit","Chrome","124.0.0.0","Windows","10.0","https://hz8g1ckzuq.cognition.run/","en-US,en;q=0.9","r1czgb0z3obfoze","39","[""White""]","No","Male","2962513.8999999985","20053","","","{""price_1"":""80"",""price_2"":""90"",""price_3"":""70""}","rating","cdt","attraction_2","2","microwave ovens","null","null","null","null","null","null","1","50","60","40","60","50","60","Warranty","Cooking power","",""
"","","","","","rating_trial_setup","html-keyboard-response","67","1838027","0.0-3.0-0.32","203","1","2025-04-14 14:57:00","bb671e3ae32f654b8954ea4c4635f915","","Mozilla/5.0 (Windows NT 10.0; Win64; x64) AppleWebKit/537.36 (KHTML, like Gecko) Chrome/124.0.0.0 Safari/537.36","WebKit","Chrome","124.0.0.0","Windows","10.0","https://hz8g1ckzuq.cognition.run/","en-US,en;q=0.9","r1czgb0z3obfoze","39","[""White""]","No","Male","2962513.8999999985","null","","<p></p>","null","rating","dtc","repulsion_1","1","laptops","null","null","null","null","null","null","2","","","","","","","","","",""
"","","","","","rating_trial","survey-html-form","68","1854239","0.0-3.0-1.32","203","1","2025-04-14 14:57:00","bb671e3ae32f654b8954ea4c4635f915","","Mozilla/5.0 (Windows NT 10.0; Win64; x64) AppleWebKit/537.36 (KHTML, like Gecko) Chrome/124.0.0.0 Safari/537.36","WebKit","Chrome","124.0.0.0","Windows","10.0","https://hz8g1ckzuq.cognition.run/","en-US,en;q=0.9","r1czgb0z3obfoze","39","[""White""]","No","Male","2962513.8999999985","16174","","","{""price_1"":""450"",""price_2"":""450"",""price_3"":""400""}","rating","dtc","repulsion_1","1","laptops","null","null","null","null","null","null","2","100","90","100","30","40","25","Processing speed","Memory (RAM)","",""
"","","","","","rating_trial_setup","html-keyboard-response","69","1854549","0.0-3.0-0.33","203","1","2025-04-14 14:57:00","bb671e3ae32f654b8954ea4c4635f915","","Mozilla/5.0 (Windows NT 10.0; Win64; x64) AppleWebKit/537.36 (KHTML, like Gecko) Chrome/124.0.0.0 Safari/537.36","WebKit","Chrome","124.0.0.0","Windows","10.0","https://hz8g1ckzuq.cognition.run/","en-US,en;q=0.9","r1czgb0z3obfoze","39","[""White""]","No","Male","2962513.8999999985","null","","<p></p>","null","rating","tcd","repulsion_1","2","washing machines","null","null","null","null","null","null","2","","","","","","","","","",""
"","","","","","rating_trial","survey-html-form","70","1873774","0.0-3.0-1.33","203","1","2025-04-14 14:57:00","bb671e3ae32f654b8954ea4c4635f915","","Mozilla/5.0 (Windows NT 10.0; Win64; x64) AppleWebKit/537.36 (KHTML, like Gecko) Chrome/124.0.0.0 Safari/537.36","WebKit","Chrome","124.0.0.0","Windows","10.0","https://hz8g1ckzuq.cognition.run/","en-US,en;q=0.9","r1czgb0z3obfoze","39","[""White""]","No","Male","2962513.8999999985","19190","","","{""price_1"":""250"",""price_2"":""250"",""price_3"":""300""}","rating","tcd","repulsion_1","2","washing machines","null","null","null","null","null","null","2","30","40","25","100","90","100","Average lifespan","Energy savings","",""
"","","","","","rating_trial_setup","html-keyboard-response","71","1874082","0.0-3.0-0.34","203","1","2025-04-14 14:57:00","bb671e3ae32f654b8954ea4c4635f915","","Mozilla/5.0 (Windows NT 10.0; Win64; x64) AppleWebKit/537.36 (KHTML, like Gecko) Chrome/124.0.0.0 Safari/537.36","WebKit","Chrome","124.0.0.0","Windows","10.0","https://hz8g1ckzuq.cognition.run/","en-US,en;q=0.9","r1czgb0z3obfoze","39","[""White""]","No","Male","2962513.8999999985","null","","<p></p>","null","rating","cdt","attraction_1","2","microwave ovens","null","null","null","null","null","null","2","","","","","","","","","",""
"","","","","","rating_trial","survey-html-form","72","1909409","0.0-3.0-1.34","203","1","2025-04-14 14:57:00","bb671e3ae32f654b8954ea4c4635f915","","Mozilla/5.0 (Windows NT 10.0; Win64; x64) AppleWebKit/537.36 (KHTML, like Gecko) Chrome/124.0.0.0 Safari/537.36","WebKit","Chrome","124.0.0.0","Windows","10.0","https://hz8g1ckzuq.cognition.run/","en-US,en;q=0.9","r1czgb0z3obfoze","39","[""White""]","No","Male","2962513.8999999985","35300","","","{""price_1"":""90"",""price_2"":""100"",""price_3"":""90""}","rating","cdt","attraction_1","2","microwave ovens","null","null","null","null","null","null","2","50","60","45","60","50","60","Warranty","Cooking power","",""
"","","","","","rating_trial_setup","html-keyboard-response","73","1909726","0.0-3.0-0.35","203","1","2025-04-14 14:57:00","bb671e3ae32f654b8954ea4c4635f915","","Mozilla/5.0 (Windows NT 10.0; Win64; x64) AppleWebKit/537.36 (KHTML, like Gecko) Chrome/124.0.0.0 Safari/537.36","WebKit","Chrome","124.0.0.0","Windows","10.0","https://hz8g1ckzuq.cognition.run/","en-US,en;q=0.9","r1czgb0z3obfoze","39","[""White""]","No","Male","2962513.8999999985","null","","<p></p>","null","rating","dct","repulsion_2","1","televisions","null","null","null","null","null","null","2","","","","","","","","","",""
"","","","","","rating_trial","survey-html-form","74","1926731","0.0-3.0-1.35","203","1","2025-04-14 14:57:00","bb671e3ae32f654b8954ea4c4635f915","","Mozilla/5.0 (Windows NT 10.0; Win64; x64) AppleWebKit/537.36 (KHTML, like Gecko) Chrome/124.0.0.0 Safari/537.36","WebKit","Chrome","124.0.0.0","Windows","10.0","https://hz8g1ckzuq.cognition.run/","en-US,en;q=0.9","r1czgb0z3obfoze","39","[""White""]","No","Male","2962513.8999999985","16994","","","{""price_1"":""300"",""price_2"":""250"",""price_3"":""300""}","rating","dct","repulsion_2","1","televisions","null","null","null","null","null","null","2","100","90","100","30","40","20","Screen size","Average lifespan","",""
"","","","","","rating_trial_setup","html-keyboard-response","75","1927043","0.0-3.0-0.36","203","1","2025-04-14 14:57:00","bb671e3ae32f654b8954ea4c4635f915","","Mozilla/5.0 (Windows NT 10.0; Win64; x64) AppleWebKit/537.36 (KHTML, like Gecko) Chrome/124.0.0.0 Safari/537.36","WebKit","Chrome","124.0.0.0","Windows","10.0","https://hz8g1ckzuq.cognition.run/","en-US,en;q=0.9","r1czgb0z3obfoze","39","[""White""]","No","Male","2962513.8999999985","null","","<p></p>","null","rating","tcd","attraction_2","2","televisions","null","null","null","null","null","null","2","","","","","","","","","",""
"","","","","","rating_trial","survey-html-form","76","1989690","0.0-3.0-1.36","203","1","2025-04-14 14:57:00","bb671e3ae32f654b8954ea4c4635f915","","Mozilla/5.0 (Windows NT 10.0; Win64; x64) AppleWebKit/537.36 (KHTML, like Gecko) Chrome/124.0.0.0 Safari/537.36","WebKit","Chrome","124.0.0.0","Windows","10.0","https://hz8g1ckzuq.cognition.run/","en-US,en;q=0.9","r1czgb0z3obfoze","39","[""White""]","No","Male","2962513.8999999985","62611","","","{""price_1"":""300"",""price_2"":""250"",""price_3"":""300""}","rating","tcd","attraction_2","2","televisions","null","null","null","null","null","null","2","50","60","40","60","50","60","Screen size","Average lifespan","",""
"","","","","","rating_trial_setup","html-keyboard-response","77","1990000","0.0-3.0-0.37","203","1","2025-04-14 14:57:00","bb671e3ae32f654b8954ea4c4635f915","","Mozilla/5.0 (Windows NT 10.0; Win64; x64) AppleWebKit/537.36 (KHTML, like Gecko) Chrome/124.0.0.0 Safari/537.36","WebKit","Chrome","124.0.0.0","Windows","10.0","https://hz8g1ckzuq.cognition.run/","en-US,en;q=0.9","r1czgb0z3obfoze","39","[""White""]","No","Male","2962513.8999999985","null","","<p></p>","null","rating","dct","attraction_1","2","laptops","null","null","null","null","null","null","1","","","","","","","","","",""
"","","","","","rating_trial","survey-html-form","78","2036600","0.0-3.0-1.37","203","1","2025-04-14 14:57:00","bb671e3ae32f654b8954ea4c4635f915","","Mozilla/5.0 (Windows NT 10.0; Win64; x64) AppleWebKit/537.36 (KHTML, like Gecko) Chrome/124.0.0.0 Safari/537.36","WebKit","Chrome","124.0.0.0","Windows","10.0","https://hz8g1ckzuq.cognition.run/","en-US,en;q=0.9","r1czgb0z3obfoze","39","[""White""]","No","Male","2962513.8999999985","46564","","","{""price_1"":""300"",""price_2"":""300"",""price_3"":""250""}","rating","dct","attraction_1","2","laptops","null","null","null","null","null","null","1","50","60","45","60","50","60","Processing speed","Memory (RAM)","",""
"","","","","","rating_trial_setup","html-keyboard-response","79","2036912","0.0-3.0-0.38","203","1","2025-04-14 14:57:00","bb671e3ae32f654b8954ea4c4635f915","","Mozilla/5.0 (Windows NT 10.0; Win64; x64) AppleWebKit/537.36 (KHTML, like Gecko) Chrome/124.0.0.0 Safari/537.36","WebKit","Chrome","124.0.0.0","Windows","10.0","https://hz8g1ckzuq.cognition.run/","en-US,en;q=0.9","r1czgb0z3obfoze","39","[""White""]","No","Male","2962513.8999999985","null","","<p></p>","null","rating","ctd","repulsion_1","2","laptops","null","null","null","null","null","null","1","","","","","","","","","",""
"","","","","","rating_trial","survey-html-form","80","2054559","0.0-3.0-1.38","203","1","2025-04-14 14:57:00","bb671e3ae32f654b8954ea4c4635f915","","Mozilla/5.0 (Windows NT 10.0; Win64; x64) AppleWebKit/537.36 (KHTML, like Gecko) Chrome/124.0.0.0 Safari/537.36","WebKit","Chrome","124.0.0.0","Windows","10.0","https://hz8g1ckzuq.cognition.run/","en-US,en;q=0.9","r1czgb0z3obfoze","39","[""White""]","No","Male","2962513.8999999985","17618","","","{""price_1"":""350"",""price_2"":""400"",""price_3"":""400""}","rating","ctd","repulsion_1","2","laptops","null","null","null","null","null","null","1","30","40","25","100","90","100","Processing speed","Memory (RAM)","",""
"","","","","","rating_trial_setup","html-keyboard-response","81","2054869","0.0-3.0-0.39","203","1","2025-04-14 14:57:00","bb671e3ae32f654b8954ea4c4635f915","","Mozilla/5.0 (Windows NT 10.0; Win64; x64) AppleWebKit/537.36 (KHTML, like Gecko) Chrome/124.0.0.0 Safari/537.36","WebKit","Chrome","124.0.0.0","Windows","10.0","https://hz8g1ckzuq.cognition.run/","en-US,en;q=0.9","r1czgb0z3obfoze","39","[""White""]","No","Male","2962513.8999999985","null","","<p></p>","null","rating","cdt","repulsion_1","2","televisions","null","null","null","null","null","null","2","","","","","","","","","",""
"","","","","","rating_trial","survey-html-form","82","2072357","0.0-3.0-1.39","203","1","2025-04-14 14:57:00","bb671e3ae32f654b8954ea4c4635f915","","Mozilla/5.0 (Windows NT 10.0; Win64; x64) AppleWebKit/537.36 (KHTML, like Gecko) Chrome/124.0.0.0 Safari/537.36","WebKit","Chrome","124.0.0.0","Windows","10.0","https://hz8g1ckzuq.cognition.run/","en-US,en;q=0.9","r1czgb0z3obfoze","39","[""White""]","No","Male","2962513.8999999985","17452","","","{""price_1"":""250"",""price_2"":""200"",""price_3"":""250""}","rating","cdt","repulsion_1","2","televisions","null","null","null","null","null","null","2","30","40","25","100","90","100","Screen size","Average lifespan","",""
"","","","","","","instructions","83","2163399","0.0-4.0","203","1","2025-04-14 14:57:00","bb671e3ae32f654b8954ea4c4635f915","","Mozilla/5.0 (Windows NT 10.0; Win64; x64) AppleWebKit/537.36 (KHTML, like Gecko) Chrome/124.0.0.0 Safari/537.36","WebKit","Chrome","124.0.0.0","Windows","10.0","https://hz8g1ckzuq.cognition.run/","en-US,en;q=0.9","r1czgb0z3obfoze","39","[""White""]","No","Male","2962513.8999999985","91029","[{""page_index"":0,""viewing_time"":4320},{""page_index"":1,""viewing_time"":1884},{""page_index"":2,""viewing_time"":56790},{""page_index"":3,""viewing_time"":4721},{""page_index"":4,""viewing_time"":2543},{""page_index"":5,""viewing_time"":2026},{""page_index"":6,""viewing_time"":11658},{""page_index"":7,""viewing_time"":7087}]","","","","","","","","","","","","","","","","","","","","","","","",""
"","","","","","choice_trial_setup","html-keyboard-response","84","2163712","0.0-5.0-0.0","203","1","2025-04-14 14:57:00","bb671e3ae32f654b8954ea4c4635f915","","Mozilla/5.0 (Windows NT 10.0; Win64; x64) AppleWebKit/537.36 (KHTML, like Gecko) Chrome/124.0.0.0 Safari/537.36","WebKit","Chrome","124.0.0.0","Windows","10.0","https://hz8g1ckzuq.cognition.run/","en-US,en;q=0.9","r1czgb0z3obfoze","39","[""White""]","No","Male","2962513.8999999985","null","","<p></p>","null","choice","cdt","attraction_2","1","washing machines","null","null","null","null","null","null","2","","","","","","","","","",""
"","","","","","choice_trial","survey-html-form","85","2176405","0.0-5.0-1.0","203","1","2025-04-14 14:57:00","bb671e3ae32f654b8954ea4c4635f915","","Mozilla/5.0 (Windows NT 10.0; Win64; x64) AppleWebKit/537.36 (KHTML, like Gecko) Chrome/124.0.0.0 Safari/537.36","WebKit","Chrome","124.0.0.0","Windows","10.0","https://hz8g1ckzuq.cognition.run/","en-US,en;q=0.9","r1czgb0z3obfoze","39","[""White""]","No","Male","2962513.8999999985","12642","","","{""product_choice"":""B""}","choice","cdt","attraction_2","1","washing machines","null","null","null","null","null","null","2","60","50","60","50","60","40","Average lifespan","Energy savings","",""
"","","","","","choice_trial_setup","html-keyboard-response","86","2176714","0.0-5.0-0.1","203","1","2025-04-14 14:57:00","bb671e3ae32f654b8954ea4c4635f915","","Mozilla/5.0 (Windows NT 10.0; Win64; x64) AppleWebKit/537.36 (KHTML, like Gecko) Chrome/124.0.0.0 Safari/537.36","WebKit","Chrome","124.0.0.0","Windows","10.0","https://hz8g1ckzuq.cognition.run/","en-US,en;q=0.9","r1czgb0z3obfoze","39","[""White""]","No","Male","2962513.8999999985","null","","<p></p>","null","choice","wwb","catch","null","washing machines","90","60","40","20","30","35","1","","","","","","","","","",""
"","","","","","choice_trial","survey-html-form","87","2194927","0.0-5.0-1.1","203","1","2025-04-14 14:57:00","bb671e3ae32f654b8954ea4c4635f915","","Mozilla/5.0 (Windows NT 10.0; Win64; x64) AppleWebKit/537.36 (KHTML, like Gecko) Chrome/124.0.0.0 Safari/537.36","WebKit","Chrome","124.0.0.0","Windows","10.0","https://hz8g1ckzuq.cognition.run/","en-US,en;q=0.9","r1czgb0z3obfoze","39","[""White""]","No","Male","2962513.8999999985","18179","","","{""product_choice"":""C""}","choice","wwb","catch","null","washing machines","90","60","40","20","30","35","1","null","null","null","null","null","null","Average lifespan","Energy savings","",""
"","","","","","choice_trial_setup","html-keyboard-response","88","2195239","0.0-5.0-0.2","203","1","2025-04-14 14:57:00","bb671e3ae32f654b8954ea4c4635f915","","Mozilla/5.0 (Windows NT 10.0; Win64; x64) AppleWebKit/537.36 (KHTML, like Gecko) Chrome/124.0.0.0 Safari/537.36","WebKit","Chrome","124.0.0.0","Windows","10.0","https://hz8g1ckzuq.cognition.run/","en-US,en;q=0.9","r1czgb0z3obfoze","39","[""White""]","No","Male","2962513.8999999985","null","","<p></p>","null","choice","tdc","repulsion_1","2","laptops","null","null","null","null","null","null","1","","","","","","","","","",""
"","","","","","choice_trial","survey-html-form","89","2203041","0.0-5.0-1.2","203","1","2025-04-14 14:57:00","bb671e3ae32f654b8954ea4c4635f915","","Mozilla/5.0 (Windows NT 10.0; Win64; x64) AppleWebKit/537.36 (KHTML, like Gecko) Chrome/124.0.0.0 Safari/537.36","WebKit","Chrome","124.0.0.0","Windows","10.0","https://hz8g1ckzuq.cognition.run/","en-US,en;q=0.9","r1czgb0z3obfoze","39","[""White""]","No","Male","2962513.8999999985","7763","","","{""product_choice"":""C""}","choice","tdc","repulsion_1","2","laptops","null","null","null","null","null","null","1","30","40","25","100","90","100","Processing speed","Memory (RAM)","",""
"","","","","","choice_trial_setup","html-keyboard-response","90","2203352","0.0-5.0-0.3","203","1","2025-04-14 14:57:00","bb671e3ae32f654b8954ea4c4635f915","","Mozilla/5.0 (Windows NT 10.0; Win64; x64) AppleWebKit/537.36 (KHTML, like Gecko) Chrome/124.0.0.0 Safari/537.36","WebKit","Chrome","124.0.0.0","Windows","10.0","https://hz8g1ckzuq.cognition.run/","en-US,en;q=0.9","r1czgb0z3obfoze","39","[""White""]","No","Male","2962513.8999999985","null","","<p></p>","null","choice","tdc","repulsion_1","1","microwave ovens","null","null","null","null","null","null","2","","","","","","","","","",""
"","","","","","choice_trial","survey-html-form","91","2228812","0.0-5.0-1.3","203","1","2025-04-14 14:57:00","bb671e3ae32f654b8954ea4c4635f915","","Mozilla/5.0 (Windows NT 10.0; Win64; x64) AppleWebKit/537.36 (KHTML, like Gecko) Chrome/124.0.0.0 Safari/537.36","WebKit","Chrome","124.0.0.0","Windows","10.0","https://hz8g1ckzuq.cognition.run/","en-US,en;q=0.9","r1czgb0z3obfoze","39","[""White""]","No","Male","2962513.8999999985","25429","","","{""product_choice"":""C""}","choice","tdc","repulsion_1","1","microwave ovens","null","null","null","null","null","null","2","100","90","100","30","40","25","Warranty","Cooking power","",""
"","","","","","choice_trial_setup","html-keyboard-response","92","2229125","0.0-5.0-0.4","203","1","2025-04-14 14:57:00","bb671e3ae32f654b8954ea4c4635f915","","Mozilla/5.0 (Windows NT 10.0; Win64; x64) AppleWebKit/537.36 (KHTML, like Gecko) Chrome/124.0.0.0 Safari/537.36","WebKit","Chrome","124.0.0.0","Windows","10.0","https://hz8g1ckzuq.cognition.run/","en-US,en;q=0.9","r1czgb0z3obfoze","39","[""White""]","No","Male","2962513.8999999985","null","","<p></p>","null","choice","tcd","attraction_1","1","washing machines","null","null","null","null","null","null","1","","","","","","","","","",""
"","","","","","choice_trial","survey-html-form","93","2253097","0.0-5.0-1.4","203","1","2025-04-14 14:57:00","bb671e3ae32f654b8954ea4c4635f915","","Mozilla/5.0 (Windows NT 10.0; Win64; x64) AppleWebKit/537.36 (KHTML, like Gecko) Chrome/124.0.0.0 Safari/537.36","WebKit","Chrome","124.0.0.0","Windows","10.0","https://hz8g1ckzuq.cognition.run/","en-US,en;q=0.9","r1czgb0z3obfoze","39","[""White""]","No","Male","2962513.8999999985","23925","","","{""product_choice"":""B""}","choice","tcd","attraction_1","1","washing machines","null","null","null","null","null","null","1","60","50","60","50","60","45","Average lifespan","Energy savings","",""
"","","","","","choice_trial_setup","html-keyboard-response","94","2253411","0.0-5.0-0.5","203","1","2025-04-14 14:57:00","bb671e3ae32f654b8954ea4c4635f915","","Mozilla/5.0 (Windows NT 10.0; Win64; x64) AppleWebKit/537.36 (KHTML, like Gecko) Chrome/124.0.0.0 Safari/537.36","WebKit","Chrome","124.0.0.0","Windows","10.0","https://hz8g1ckzuq.cognition.run/","en-US,en;q=0.9","r1czgb0z3obfoze","39","[""White""]","No","Male","2962513.8999999985","null","","<p></p>","null","choice","dtc","attraction_1","2","washing machines","null","null","null","null","null","null","2","","","","","","","","","",""
"","","","","","choice_trial","survey-html-form","95","2262749","0.0-5.0-1.5","203","1","2025-04-14 14:57:00","bb671e3ae32f654b8954ea4c4635f915","","Mozilla/5.0 (Windows NT 10.0; Win64; x64) AppleWebKit/537.36 (KHTML, like Gecko) Chrome/124.0.0.0 Safari/537.36","WebKit","Chrome","124.0.0.0","Windows","10.0","https://hz8g1ckzuq.cognition.run/","en-US,en;q=0.9","r1czgb0z3obfoze","39","[""White""]","No","Male","2962513.8999999985","9299","","","{""product_choice"":""B""}","choice","dtc","attraction_1","2","washing machines","null","null","null","null","null","null","2","50","60","45","60","50","60","Average lifespan","Energy savings","",""
"","","","","","choice_trial_setup","html-keyboard-response","96","2263059","0.0-5.0-0.6","203","1","2025-04-14 14:57:00","bb671e3ae32f654b8954ea4c4635f915","","Mozilla/5.0 (Windows NT 10.0; Win64; x64) AppleWebKit/537.36 (KHTML, like Gecko) Chrome/124.0.0.0 Safari/537.36","WebKit","Chrome","124.0.0.0","Windows","10.0","https://hz8g1ckzuq.cognition.run/","en-US,en;q=0.9","r1czgb0z3obfoze","39","[""White""]","No","Male","2962513.8999999985","null","","<p></p>","null","choice","tdc","repulsion_2","1","televisions","null","null","null","null","null","null","2","","","","","","","","","",""
"","","","","","choice_trial","survey-html-form","97","2282174","0.0-5.0-1.6","203","1","2025-04-14 14:57:00","bb671e3ae32f654b8954ea4c4635f915","","Mozilla/5.0 (Windows NT 10.0; Win64; x64) AppleWebKit/537.36 (KHTML, like Gecko) Chrome/124.0.0.0 Safari/537.36","WebKit","Chrome","124.0.0.0","Windows","10.0","https://hz8g1ckzuq.cognition.run/","en-US,en;q=0.9","r1czgb0z3obfoze","39","[""White""]","No","Male","2962513.8999999985","19075","","","{""product_choice"":""C""}","choice","tdc","repulsion_2","1","televisions","null","null","null","null","null","null","2","100","90","100","30","40","20","Screen size","Average lifespan","",""
"","","","","","choice_trial_setup","html-keyboard-response","98","2282497","0.0-5.0-0.7","203","1","2025-04-14 14:57:00","bb671e3ae32f654b8954ea4c4635f915","","Mozilla/5.0 (Windows NT 10.0; Win64; x64) AppleWebKit/537.36 (KHTML, like Gecko) Chrome/124.0.0.0 Safari/537.36","WebKit","Chrome","124.0.0.0","Windows","10.0","https://hz8g1ckzuq.cognition.run/","en-US,en;q=0.9","r1czgb0z3obfoze","39","[""White""]","No","Male","2962513.8999999985","null","","<p></p>","null","choice","tdc","repulsion_1","2","microwave ovens","null","null","null","null","null","null","1","","","","","","","","","",""
"","","","","","choice_trial","survey-html-form","99","2290450","0.0-5.0-1.7","203","1","2025-04-14 14:57:00","bb671e3ae32f654b8954ea4c4635f915","","Mozilla/5.0 (Windows NT 10.0; Win64; x64) AppleWebKit/537.36 (KHTML, like Gecko) Chrome/124.0.0.0 Safari/537.36","WebKit","Chrome","124.0.0.0","Windows","10.0","https://hz8g1ckzuq.cognition.run/","en-US,en;q=0.9","r1czgb0z3obfoze","39","[""White""]","No","Male","2962513.8999999985","7909","","","{""product_choice"":""C""}","choice","tdc","repulsion_1","2","microwave ovens","null","null","null","null","null","null","1","30","40","25","100","90","100","Warranty","Cooking power","",""
"","","","","","choice_trial_setup","html-keyboard-response","100","2290762","0.0-5.0-0.8","203","1","2025-04-14 14:57:00","bb671e3ae32f654b8954ea4c4635f915","","Mozilla/5.0 (Windows NT 10.0; Win64; x64) AppleWebKit/537.36 (KHTML, like Gecko) Chrome/124.0.0.0 Safari/537.36","WebKit","Chrome","124.0.0.0","Windows","10.0","https://hz8g1ckzuq.cognition.run/","en-US,en;q=0.9","r1czgb0z3obfoze","39","[""White""]","No","Male","2962513.8999999985","null","","<p></p>","null","choice","ctd","repulsion_2","1","laptops","null","null","null","null","null","null","2","","","","","","","","","",""
"","","","","","choice_trial","survey-html-form","101","2298176","0.0-5.0-1.8","203","1","2025-04-14 14:57:00","bb671e3ae32f654b8954ea4c4635f915","","Mozilla/5.0 (Windows NT 10.0; Win64; x64) AppleWebKit/537.36 (KHTML, like Gecko) Chrome/124.0.0.0 Safari/537.36","WebKit","Chrome","124.0.0.0","Windows","10.0","https://hz8g1ckzuq.cognition.run/","en-US,en;q=0.9","r1czgb0z3obfoze","39","[""White""]","No","Male","2962513.8999999985","7377","","","{""product_choice"":""B""}","choice","ctd","repulsion_2","1","laptops","null","null","null","null","null","null","2","100","90","100","30","40","20","Processing speed","Memory (RAM)","",""
"","","","","","choice_trial_setup","html-keyboard-response","102","2298489","0.0-5.0-0.9","203","1","2025-04-14 14:57:00","bb671e3ae32f654b8954ea4c4635f915","","Mozilla/5.0 (Windows NT 10.0; Win64; x64) AppleWebKit/537.36 (KHTML, like Gecko) Chrome/124.0.0.0 Safari/537.36","WebKit","Chrome","124.0.0.0","Windows","10.0","https://hz8g1ckzuq.cognition.run/","en-US,en;q=0.9","r1czgb0z3obfoze","39","[""White""]","No","Male","2962513.8999999985","null","","<p></p>","null","choice","tdc","repulsion_1","1","laptops","null","null","null","null","null","null","1","","","","","","","","","",""
"","","","","","choice_trial","survey-html-form","103","2422624","0.0-5.0-1.9","203","1","2025-04-14 14:57:00","bb671e3ae32f654b8954ea4c4635f915","","Mozilla/5.0 (Windows NT 10.0; Win64; x64) AppleWebKit/537.36 (KHTML, like Gecko) Chrome/124.0.0.0 Safari/537.36","WebKit","Chrome","124.0.0.0","Windows","10.0","https://hz8g1ckzuq.cognition.run/","en-US,en;q=0.9","r1czgb0z3obfoze","39","[""White""]","No","Male","2962513.8999999985","124094","","","{""product_choice"":""C""}","choice","tdc","repulsion_1","1","laptops","null","null","null","null","null","null","1","100","90","100","30","40","25","Processing speed","Memory (RAM)","",""
"","","","","","choice_trial_setup","html-keyboard-response","104","2422945","0.0-5.0-0.10","203","1","2025-04-14 14:57:00","bb671e3ae32f654b8954ea4c4635f915","","Mozilla/5.0 (Windows NT 10.0; Win64; x64) AppleWebKit/537.36 (KHTML, like Gecko) Chrome/124.0.0.0 Safari/537.36","WebKit","Chrome","124.0.0.0","Windows","10.0","https://hz8g1ckzuq.cognition.run/","en-US,en;q=0.9","r1czgb0z3obfoze","39","[""White""]","No","Male","2962513.8999999985","null","","<p></p>","null","choice","dct","attraction_1","2","laptops","null","null","null","null","null","null","2","","","","","","","","","",""
"","","","","","choice_trial","survey-html-form","105","2448861","0.0-5.0-1.10","203","1","2025-04-14 14:57:00","bb671e3ae32f654b8954ea4c4635f915","","Mozilla/5.0 (Windows NT 10.0; Win64; x64) AppleWebKit/537.36 (KHTML, like Gecko) Chrome/124.0.0.0 Safari/537.36","WebKit","Chrome","124.0.0.0","Windows","10.0","https://hz8g1ckzuq.cognition.run/","en-US,en;q=0.9","r1czgb0z3obfoze","39","[""White""]","No","Male","2962513.8999999985","25875","","","{""product_choice"":""B""}","choice","dct","attraction_1","2","laptops","null","null","null","null","null","null","2","50","60","45","60","50","60","Processing speed","Memory (RAM)","",""
"","","","","","choice_trial_setup","html-keyboard-response","106","2449173","0.0-5.0-0.11","203","1","2025-04-14 14:57:00","bb671e3ae32f654b8954ea4c4635f915","","Mozilla/5.0 (Windows NT 10.0; Win64; x64) AppleWebKit/537.36 (KHTML, like Gecko) Chrome/124.0.0.0 Safari/537.36","WebKit","Chrome","124.0.0.0","Windows","10.0","https://hz8g1ckzuq.cognition.run/","en-US,en;q=0.9","r1czgb0z3obfoze","39","[""White""]","No","Male","2962513.8999999985","null","","<p></p>","null","choice","dtc","repulsion_1","1","washing machines","null","null","null","null","null","null","2","","","","","","","","","",""
"","","","","","choice_trial","survey-html-form","107","2460224","0.0-5.0-1.11","203","1","2025-04-14 14:57:00","bb671e3ae32f654b8954ea4c4635f915","","Mozilla/5.0 (Windows NT 10.0; Win64; x64) AppleWebKit/537.36 (KHTML, like Gecko) Chrome/124.0.0.0 Safari/537.36","WebKit","Chrome","124.0.0.0","Windows","10.0","https://hz8g1ckzuq.cognition.run/","en-US,en;q=0.9","r1czgb0z3obfoze","39","[""White""]","No","Male","2962513.8999999985","11025","","","{""product_choice"":""C""}","choice","dtc","repulsion_1","1","washing machines","null","null","null","null","null","null","2","100","90","100","30","40","25","Average lifespan","Energy savings","",""
"","","","","","choice_trial_setup","html-keyboard-response","108","2460536","0.0-5.0-0.12","203","1","2025-04-14 14:57:00","bb671e3ae32f654b8954ea4c4635f915","","Mozilla/5.0 (Windows NT 10.0; Win64; x64) AppleWebKit/537.36 (KHTML, like Gecko) Chrome/124.0.0.0 Safari/537.36","WebKit","Chrome","124.0.0.0","Windows","10.0","https://hz8g1ckzuq.cognition.run/","en-US,en;q=0.9","r1czgb0z3obfoze","39","[""White""]","No","Male","2962513.8999999985","null","","<p></p>","null","choice","dct","repulsion_2","1","washing machines","null","null","null","null","null","null","1","","","","","","","","","",""
"","","","","","choice_trial","survey-html-form","109","2480314","0.0-5.0-1.12","203","1","2025-04-14 14:57:00","bb671e3ae32f654b8954ea4c4635f915","","Mozilla/5.0 (Windows NT 10.0; Win64; x64) AppleWebKit/537.36 (KHTML, like Gecko) Chrome/124.0.0.0 Safari/537.36","WebKit","Chrome","124.0.0.0","Windows","10.0","https://hz8g1ckzuq.cognition.run/","en-US,en;q=0.9","r1czgb0z3obfoze","39","[""White""]","No","Male","2962513.8999999985","19745","","","{""product_choice"":""B""}","choice","dct","repulsion_2","1","washing machines","null","null","null","null","null","null","1","100","90","100","30","40","20","Average lifespan","Energy savings","",""
"","","","","","choice_trial_setup","html-keyboard-response","110","2480628","0.0-5.0-0.13","203","1","2025-04-14 14:57:00","bb671e3ae32f654b8954ea4c4635f915","","Mozilla/5.0 (Windows NT 10.0; Win64; x64) AppleWebKit/537.36 (KHTML, like Gecko) Chrome/124.0.0.0 Safari/537.36","WebKit","Chrome","124.0.0.0","Windows","10.0","https://hz8g1ckzuq.cognition.run/","en-US,en;q=0.9","r1czgb0z3obfoze","39","[""White""]","No","Male","2962513.8999999985","null","","<p></p>","null","choice","dct","attraction_1","1","laptops","null","null","null","null","null","null","1","","","","","","","","","",""
"","","","","","choice_trial","survey-html-form","111","2496023","0.0-5.0-1.13","203","1","2025-04-14 14:57:00","bb671e3ae32f654b8954ea4c4635f915","","Mozilla/5.0 (Windows NT 10.0; Win64; x64) AppleWebKit/537.36 (KHTML, like Gecko) Chrome/124.0.0.0 Safari/537.36","WebKit","Chrome","124.0.0.0","Windows","10.0","https://hz8g1ckzuq.cognition.run/","en-US,en;q=0.9","r1czgb0z3obfoze","39","[""White""]","No","Male","2962513.8999999985","15351","","","{""product_choice"":""C""}","choice","dct","attraction_1","1","laptops","null","null","null","null","null","null","1","60","50","60","50","60","45","Processing speed","Memory (RAM)","",""
"","","","","","choice_trial_setup","html-keyboard-response","112","2496337","0.0-5.0-0.14","203","1","2025-04-14 14:57:00","bb671e3ae32f654b8954ea4c4635f915","","Mozilla/5.0 (Windows NT 10.0; Win64; x64) AppleWebKit/537.36 (KHTML, like Gecko) Chrome/124.0.0.0 Safari/537.36","WebKit","Chrome","124.0.0.0","Windows","10.0","https://hz8g1ckzuq.cognition.run/","en-US,en;q=0.9","r1czgb0z3obfoze","39","[""White""]","No","Male","2962513.8999999985","null","","<p></p>","null","choice","bww","catch","null","laptops","75","85","45","15","40","5","1","","","","","","","","","",""
"","","","","","choice_trial","survey-html-form","113","2502178","0.0-5.0-1.14","203","1","2025-04-14 14:57:00","bb671e3ae32f654b8954ea4c4635f915","","Mozilla/5.0 (Windows NT 10.0; Win64; x64) AppleWebKit/537.36 (KHTML, like Gecko) Chrome/124.0.0.0 Safari/537.36","WebKit","Chrome","124.0.0.0","Windows","10.0","https://hz8g1ckzuq.cognition.run/","en-US,en;q=0.9","r1czgb0z3obfoze","39","[""White""]","No","Male","2962513.8999999985","5787","","","{""product_choice"":""A""}","choice","bww","catch","null","laptops","75","85","45","15","40","5","1","null","null","null","null","null","null","Processing speed","Memory (RAM)","",""
"","","","","","choice_trial_setup","html-keyboard-response","114","2502491","0.0-5.0-0.15","203","1","2025-04-14 14:57:00","bb671e3ae32f654b8954ea4c4635f915","","Mozilla/5.0 (Windows NT 10.0; Win64; x64) AppleWebKit/537.36 (KHTML, like Gecko) Chrome/124.0.0.0 Safari/537.36","WebKit","Chrome","124.0.0.0","Windows","10.0","https://hz8g1ckzuq.cognition.run/","en-US,en;q=0.9","r1czgb0z3obfoze","39","[""White""]","No","Male","2962513.8999999985","null","","<p></p>","null","choice","wwb","catch","null","microwave ovens","70","55","25","15","5","45","2","","","","","","","","","",""
"","","","","","choice_trial","survey-html-form","115","2508697","0.0-5.0-1.15","203","1","2025-04-14 14:57:00","bb671e3ae32f654b8954ea4c4635f915","","Mozilla/5.0 (Windows NT 10.0; Win64; x64) AppleWebKit/537.36 (KHTML, like Gecko) Chrome/124.0.0.0 Safari/537.36","WebKit","Chrome","124.0.0.0","Windows","10.0","https://hz8g1ckzuq.cognition.run/","en-US,en;q=0.9","r1czgb0z3obfoze","39","[""White""]","No","Male","2962513.8999999985","6156","","","{""product_choice"":""C""}","choice","wwb","catch","null","microwave ovens","70","55","25","15","5","45","2","null","null","null","null","null","null","Warranty","Cooking power","",""
"","","","","","choice_trial_setup","html-keyboard-response","116","2509013","0.0-5.0-0.16","203","1","2025-04-14 14:57:00","bb671e3ae32f654b8954ea4c4635f915","","Mozilla/5.0 (Windows NT 10.0; Win64; x64) AppleWebKit/537.36 (KHTML, like Gecko) Chrome/124.0.0.0 Safari/537.36","WebKit","Chrome","124.0.0.0","Windows","10.0","https://hz8g1ckzuq.cognition.run/","en-US,en;q=0.9","r1czgb0z3obfoze","39","[""White""]","No","Male","2962513.8999999985","null","","<p></p>","null","choice","wwb","catch","null","televisions","75","50","40","30","50","30","2","","","","","","","","","",""
"","","","","","choice_trial","survey-html-form","117","2523965","0.0-5.0-1.16","203","1","2025-04-14 14:57:00","bb671e3ae32f654b8954ea4c4635f915","","Mozilla/5.0 (Windows NT 10.0; Win64; x64) AppleWebKit/537.36 (KHTML, like Gecko) Chrome/124.0.0.0 Safari/537.36","WebKit","Chrome","124.0.0.0","Windows","10.0","https://hz8g1ckzuq.cognition.run/","en-US,en;q=0.9","r1czgb0z3obfoze","39","[""White""]","No","Male","2962513.8999999985","14912","","","{""product_choice"":""C""}","choice","wwb","catch","null","televisions","75","50","40","30","50","30","2","null","null","null","null","null","null","Screen size","Average lifespan","",""
"","","","","","choice_trial_setup","html-keyboard-response","118","2524281","0.0-5.0-0.17","203","1","2025-04-14 14:57:00","bb671e3ae32f654b8954ea4c4635f915","","Mozilla/5.0 (Windows NT 10.0; Win64; x64) AppleWebKit/537.36 (KHTML, like Gecko) Chrome/124.0.0.0 Safari/537.36","WebKit","Chrome","124.0.0.0","Windows","10.0","https://hz8g1ckzuq.cognition.run/","en-US,en;q=0.9","r1czgb0z3obfoze","39","[""White""]","No","Male","2962513.8999999985","null","","<p></p>","null","choice","dct","attraction_1","1","microwave ovens","null","null","null","null","null","null","2","","","","","","","","","",""
"","","","","","choice_trial","survey-html-form","119","2571002","0.0-5.0-1.17","203","1","2025-04-14 14:57:00","bb671e3ae32f654b8954ea4c4635f915","","Mozilla/5.0 (Windows NT 10.0; Win64; x64) AppleWebKit/537.36 (KHTML, like Gecko) Chrome/124.0.0.0 Safari/537.36","WebKit","Chrome","124.0.0.0","Windows","10.0","https://hz8g1ckzuq.cognition.run/","en-US,en;q=0.9","r1czgb0z3obfoze","39","[""White""]","No","Male","2962513.8999999985","46678","","","{""product_choice"":""B""}","choice","dct","attraction_1","1","microwave ovens","null","null","null","null","null","null","2","60","50","60","50","60","45","Warranty","Cooking power","",""
"","","","","","choice_trial_setup","html-keyboard-response","120","2571315","0.0-5.0-0.18","203","1","2025-04-14 14:57:00","bb671e3ae32f654b8954ea4c4635f915","","Mozilla/5.0 (Windows NT 10.0; Win64; x64) AppleWebKit/537.36 (KHTML, like Gecko) Chrome/124.0.0.0 Safari/537.36","WebKit","Chrome","124.0.0.0","Windows","10.0","https://hz8g1ckzuq.cognition.run/","en-US,en;q=0.9","r1czgb0z3obfoze","39","[""White""]","No","Male","2962513.8999999985","null","","<p></p>","null","choice","ctd","attraction_1","2","microwave ovens","null","null","null","null","null","null","1","","","","","","","","","",""
"","","","","","choice_trial","survey-html-form","121","2582303","0.0-5.0-1.18","203","1","2025-04-14 14:57:00","bb671e3ae32f654b8954ea4c4635f915","","Mozilla/5.0 (Windows NT 10.0; Win64; x64) AppleWebKit/537.36 (KHTML, like Gecko) Chrome/124.0.0.0 Safari/537.36","WebKit","Chrome","124.0.0.0","Windows","10.0","https://hz8g1ckzuq.cognition.run/","en-US,en;q=0.9","r1czgb0z3obfoze","39","[""White""]","No","Male","2962513.8999999985","10943","","","{""product_choice"":""A""}","choice","ctd","attraction_1","2","microwave ovens","null","null","null","null","null","null","1","50","60","45","60","50","60","Warranty","Cooking power","",""
"","","","","","choice_trial_setup","html-keyboard-response","122","2582617","0.0-5.0-0.19","203","1","2025-04-14 14:57:00","bb671e3ae32f654b8954ea4c4635f915","","Mozilla/5.0 (Windows NT 10.0; Win64; x64) AppleWebKit/537.36 (KHTML, like Gecko) Chrome/124.0.0.0 Safari/537.36","WebKit","Chrome","124.0.0.0","Windows","10.0","https://hz8g1ckzuq.cognition.run/","en-US,en;q=0.9","r1czgb0z3obfoze","39","[""White""]","No","Male","2962513.8999999985","null","","<p></p>","null","choice","cdt","repulsion_1","2","televisions","null","null","null","null","null","null","1","","","","","","","","","",""
"","","","","","choice_trial","survey-html-form","123","2602148","0.0-5.0-1.19","203","1","2025-04-14 14:57:00","bb671e3ae32f654b8954ea4c4635f915","","Mozilla/5.0 (Windows NT 10.0; Win64; x64) AppleWebKit/537.36 (KHTML, like Gecko) Chrome/124.0.0.0 Safari/537.36","WebKit","Chrome","124.0.0.0","Windows","10.0","https://hz8g1ckzuq.cognition.run/","en-US,en;q=0.9","r1czgb0z3obfoze","39","[""White""]","No","Male","2962513.8999999985","19482","","","{""product_choice"":""A""}","choice","cdt","repulsion_1","2","televisions","null","null","null","null","null","null","1","30","40","25","100","90","100","Screen size","Average lifespan","",""
"","","","","","choice_trial_setup","html-keyboard-response","124","2602464","0.0-5.0-0.20","203","1","2025-04-14 14:57:00","bb671e3ae32f654b8954ea4c4635f915","","Mozilla/5.0 (Windows NT 10.0; Win64; x64) AppleWebKit/537.36 (KHTML, like Gecko) Chrome/124.0.0.0 Safari/537.36","WebKit","Chrome","124.0.0.0","Windows","10.0","https://hz8g1ckzuq.cognition.run/","en-US,en;q=0.9","r1czgb0z3obfoze","39","[""White""]","No","Male","2962513.8999999985","null","","<p></p>","null","choice","tdc","attraction_2","2","laptops","null","null","null","null","null","null","1","","","","","","","","","",""
"","","","","","choice_trial","survey-html-form","125","2610467","0.0-5.0-1.20","203","1","2025-04-14 14:57:00","bb671e3ae32f654b8954ea4c4635f915","","Mozilla/5.0 (Windows NT 10.0; Win64; x64) AppleWebKit/537.36 (KHTML, like Gecko) Chrome/124.0.0.0 Safari/537.36","WebKit","Chrome","124.0.0.0","Windows","10.0","https://hz8g1ckzuq.cognition.run/","en-US,en;q=0.9","r1czgb0z3obfoze","39","[""White""]","No","Male","2962513.8999999985","7955","","","{""product_choice"":""C""}","choice","tdc","attraction_2","2","laptops","null","null","null","null","null","null","1","50","60","40","60","50","60","Processing speed","Memory (RAM)","",""
"","","","","","choice_trial_setup","html-keyboard-response","126","2610782","0.0-5.0-0.21","203","1","2025-04-14 14:57:00","bb671e3ae32f654b8954ea4c4635f915","","Mozilla/5.0 (Windows NT 10.0; Win64; x64) AppleWebKit/537.36 (KHTML, like Gecko) Chrome/124.0.0.0 Safari/537.36","WebKit","Chrome","124.0.0.0","Windows","10.0","https://hz8g1ckzuq.cognition.run/","en-US,en;q=0.9","r1czgb0z3obfoze","39","[""White""]","No","Male","2962513.8999999985","null","","<p></p>","null","choice","bww","catch","null","microwave ovens","55","85","50","45","45","5","1","","","","","","","","","",""
"","","","","","choice_trial","survey-html-form","127","2615460","0.0-5.0-1.21","203","1","2025-04-14 14:57:00","bb671e3ae32f654b8954ea4c4635f915","","Mozilla/5.0 (Windows NT 10.0; Win64; x64) AppleWebKit/537.36 (KHTML, like Gecko) Chrome/124.0.0.0 Safari/537.36","WebKit","Chrome","124.0.0.0","Windows","10.0","https://hz8g1ckzuq.cognition.run/","en-US,en;q=0.9","r1czgb0z3obfoze","39","[""White""]","No","Male","2962513.8999999985","4621","","","{""product_choice"":""A""}","choice","bww","catch","null","microwave ovens","55","85","50","45","45","5","1","null","null","null","null","null","null","Warranty","Cooking power","",""
"","","","","","choice_trial_setup","html-keyboard-response","128","2615773","0.0-5.0-0.22","203","1","2025-04-14 14:57:00","bb671e3ae32f654b8954ea4c4635f915","","Mozilla/5.0 (Windows NT 10.0; Win64; x64) AppleWebKit/537.36 (KHTML, like Gecko) Chrome/124.0.0.0 Safari/537.36","WebKit","Chrome","124.0.0.0","Windows","10.0","https://hz8g1ckzuq.cognition.run/","en-US,en;q=0.9","r1czgb0z3obfoze","39","[""White""]","No","Male","2962513.8999999985","null","","<p></p>","null","choice","wbw","catch","null","televisions","50","60","50","10","25","15","1","","","","","","","","","",""
"","","","","","choice_trial","survey-html-form","129","2630362","0.0-5.0-1.22","203","1","2025-04-14 14:57:00","bb671e3ae32f654b8954ea4c4635f915","","Mozilla/5.0 (Windows NT 10.0; Win64; x64) AppleWebKit/537.36 (KHTML, like Gecko) Chrome/124.0.0.0 Safari/537.36","WebKit","Chrome","124.0.0.0","Windows","10.0","https://hz8g1ckzuq.cognition.run/","en-US,en;q=0.9","r1czgb0z3obfoze","39","[""White""]","No","Male","2962513.8999999985","14530","","","{""product_choice"":""B""}","choice","wbw","catch","null","televisions","50","60","50","10","25","15","1","null","null","null","null","null","null","Screen size","Average lifespan","",""
"","","","","","choice_trial_setup","html-keyboard-response","130","2630676","0.0-5.0-0.23","203","1","2025-04-14 14:57:00","bb671e3ae32f654b8954ea4c4635f915","","Mozilla/5.0 (Windows NT 10.0; Win64; x64) AppleWebKit/537.36 (KHTML, like Gecko) Chrome/124.0.0.0 Safari/537.36","WebKit","Chrome","124.0.0.0","Windows","10.0","https://hz8g1ckzuq.cognition.run/","en-US,en;q=0.9","r1czgb0z3obfoze","39","[""White""]","No","Male","2962513.8999999985","null","","<p></p>","null","choice","tdc","repulsion_2","2","microwave ovens","null","null","null","null","null","null","1","","","","","","","","","",""
"","","","","","choice_trial","survey-html-form","131","2646316","0.0-5.0-1.23","203","1","2025-04-14 14:57:00","bb671e3ae32f654b8954ea4c4635f915","","Mozilla/5.0 (Windows NT 10.0; Win64; x64) AppleWebKit/537.36 (KHTML, like Gecko) Chrome/124.0.0.0 Safari/537.36","WebKit","Chrome","124.0.0.0","Windows","10.0","https://hz8g1ckzuq.cognition.run/","en-US,en;q=0.9","r1czgb0z3obfoze","39","[""White""]","No","Male","2962513.8999999985","15602","","","{""product_choice"":""C""}","choice","tdc","repulsion_2","2","microwave ovens","null","null","null","null","null","null","1","30","40","20","100","90","100","Warranty","Cooking power","",""
"","","","","","choice_trial_setup","html-keyboard-response","132","2646629","0.0-5.0-0.24","203","1","2025-04-14 14:57:00","bb671e3ae32f654b8954ea4c4635f915","","Mozilla/5.0 (Windows NT 10.0; Win64; x64) AppleWebKit/537.36 (KHTML, like Gecko) Chrome/124.0.0.0 Safari/537.36","WebKit","Chrome","124.0.0.0","Windows","10.0","https://hz8g1ckzuq.cognition.run/","en-US,en;q=0.9","r1czgb0z3obfoze","39","[""White""]","No","Male","2962513.8999999985","null","","<p></p>","null","choice","tcd","repulsion_1","1","televisions","null","null","null","null","null","null","1","","","","","","","","","",""
"","","","","","choice_trial","survey-html-form","133","2692956","0.0-5.0-1.24","203","1","2025-04-14 14:57:00","bb671e3ae32f654b8954ea4c4635f915","","Mozilla/5.0 (Windows NT 10.0; Win64; x64) AppleWebKit/537.36 (KHTML, like Gecko) Chrome/124.0.0.0 Safari/537.36","WebKit","Chrome","124.0.0.0","Windows","10.0","https://hz8g1ckzuq.cognition.run/","en-US,en;q=0.9","r1czgb0z3obfoze","39","[""White""]","No","Male","2962513.8999999985","46285","","","{""product_choice"":""B""}","choice","tcd","repulsion_1","1","televisions","null","null","null","null","null","null","1","100","90","100","30","40","25","Screen size","Average lifespan","",""
"","","","","","choice_trial_setup","html-keyboard-response","134","2693270","0.0-5.0-0.25","203","1","2025-04-14 14:57:00","bb671e3ae32f654b8954ea4c4635f915","","Mozilla/5.0 (Windows NT 10.0; Win64; x64) AppleWebKit/537.36 (KHTML, like Gecko) Chrome/124.0.0.0 Safari/537.36","WebKit","Chrome","124.0.0.0","Windows","10.0","https://hz8g1ckzuq.cognition.run/","en-US,en;q=0.9","r1czgb0z3obfoze","39","[""White""]","No","Male","2962513.8999999985","null","","<p></p>","null","choice","tdc","repulsion_2","2","washing machines","null","null","null","null","null","null","1","","","","","","","","","",""
"","","","","","choice_trial","survey-html-form","135","2699496","0.0-5.0-1.25","203","1","2025-04-14 14:57:00","bb671e3ae32f654b8954ea4c4635f915","","Mozilla/5.0 (Windows NT 10.0; Win64; x64) AppleWebKit/537.36 (KHTML, like Gecko) Chrome/124.0.0.0 Safari/537.36","WebKit","Chrome","124.0.0.0","Windows","10.0","https://hz8g1ckzuq.cognition.run/","en-US,en;q=0.9","r1czgb0z3obfoze","39","[""White""]","No","Male","2962513.8999999985","6180","","","{""product_choice"":""C""}","choice","tdc","repulsion_2","2","washing machines","null","null","null","null","null","null","1","30","40","20","100","90","100","Average lifespan","Energy savings","",""
"","","","","","choice_trial_setup","html-keyboard-response","136","2699812","0.0-5.0-0.26","203","1","2025-04-14 14:57:00","bb671e3ae32f654b8954ea4c4635f915","","Mozilla/5.0 (Windows NT 10.0; Win64; x64) AppleWebKit/537.36 (KHTML, like Gecko) Chrome/124.0.0.0 Safari/537.36","WebKit","Chrome","124.0.0.0","Windows","10.0","https://hz8g1ckzuq.cognition.run/","en-US,en;q=0.9","r1czgb0z3obfoze","39","[""White""]","No","Male","2962513.8999999985","null","","<p></p>","null","choice","dtc","attraction_1","2","televisions","null","null","null","null","null","null","1","","","","","","","","","",""
"","","","","","choice_trial","survey-html-form","137","2709004","0.0-5.0-1.26","203","1","2025-04-14 14:57:00","bb671e3ae32f654b8954ea4c4635f915","","Mozilla/5.0 (Windows NT 10.0; Win64; x64) AppleWebKit/537.36 (KHTML, like Gecko) Chrome/124.0.0.0 Safari/537.36","WebKit","Chrome","124.0.0.0","Windows","10.0","https://hz8g1ckzuq.cognition.run/","en-US,en;q=0.9","r1czgb0z3obfoze","39","[""White""]","No","Male","2962513.8999999985","9149","","","{""product_choice"":""C""}","choice","dtc","attraction_1","2","televisions","null","null","null","null","null","null","1","50","60","45","60","50","60","Screen size","Average lifespan","",""
"","","","","","choice_trial_setup","html-keyboard-response","138","2709334","0.0-5.0-0.27","203","1","2025-04-14 14:57:00","bb671e3ae32f654b8954ea4c4635f915","","Mozilla/5.0 (Windows NT 10.0; Win64; x64) AppleWebKit/537.36 (KHTML, like Gecko) Chrome/124.0.0.0 Safari/537.36","WebKit","Chrome","124.0.0.0","Windows","10.0","https://hz8g1ckzuq.cognition.run/","en-US,en;q=0.9","r1czgb0z3obfoze","39","[""White""]","No","Male","2962513.8999999985","null","","<p></p>","null","choice","dct","attraction_2","2","washing machines","null","null","null","null","null","null","1","","","","","","","","","",""
"","","","","","choice_trial","survey-html-form","139","2721843","0.0-5.0-1.27","203","1","2025-04-14 14:57:00","bb671e3ae32f654b8954ea4c4635f915","","Mozilla/5.0 (Windows NT 10.0; Win64; x64) AppleWebKit/537.36 (KHTML, like Gecko) Chrome/124.0.0.0 Safari/537.36","WebKit","Chrome","124.0.0.0","Windows","10.0","https://hz8g1ckzuq.cognition.run/","en-US,en;q=0.9","r1czgb0z3obfoze","39","[""White""]","No","Male","2962513.8999999985","12467","","","{""product_choice"":""B""}","choice","dct","attraction_2","2","washing machines","null","null","null","null","null","null","1","50","60","40","60","50","60","Average lifespan","Energy savings","",""
"","","","","","choice_trial_setup","html-keyboard-response","140","2722159","0.0-5.0-0.28","203","1","2025-04-14 14:57:00","bb671e3ae32f654b8954ea4c4635f915","","Mozilla/5.0 (Windows NT 10.0; Win64; x64) AppleWebKit/537.36 (KHTML, like Gecko) Chrome/124.0.0.0 Safari/537.36","WebKit","Chrome","124.0.0.0","Windows","10.0","https://hz8g1ckzuq.cognition.run/","en-US,en;q=0.9","r1czgb0z3obfoze","39","[""White""]","No","Male","2962513.8999999985","null","","<p></p>","null","choice","dtc","attraction_1","1","televisions","null","null","null","null","null","null","1","","","","","","","","","",""
"","","","","","choice_trial","survey-html-form","141","2728286","0.0-5.0-1.28","203","1","2025-04-14 14:57:00","bb671e3ae32f654b8954ea4c4635f915","","Mozilla/5.0 (Windows NT 10.0; Win64; x64) AppleWebKit/537.36 (KHTML, like Gecko) Chrome/124.0.0.0 Safari/537.36","WebKit","Chrome","124.0.0.0","Windows","10.0","https://hz8g1ckzuq.cognition.run/","en-US,en;q=0.9","r1czgb0z3obfoze","39","[""White""]","No","Male","2962513.8999999985","6086","","","{""product_choice"":""B""}","choice","dtc","attraction_1","1","televisions","null","null","null","null","null","null","1","60","50","60","50","60","45","Screen size","Average lifespan","",""
"","","","","","choice_trial_setup","html-keyboard-response","142","2728604","0.0-5.0-0.29","203","1","2025-04-14 14:57:00","bb671e3ae32f654b8954ea4c4635f915","","Mozilla/5.0 (Windows NT 10.0; Win64; x64) AppleWebKit/537.36 (KHTML, like Gecko) Chrome/124.0.0.0 Safari/537.36","WebKit","Chrome","124.0.0.0","Windows","10.0","https://hz8g1ckzuq.cognition.run/","en-US,en;q=0.9","r1czgb0z3obfoze","39","[""White""]","No","Male","2962513.8999999985","null","","<p></p>","null","choice","tdc","repulsion_2","1","microwave ovens","null","null","null","null","null","null","2","","","","","","","","","",""
"","","","","","choice_trial","survey-html-form","143","2735580","0.0-5.0-1.29","203","1","2025-04-14 14:57:00","bb671e3ae32f654b8954ea4c4635f915","","Mozilla/5.0 (Windows NT 10.0; Win64; x64) AppleWebKit/537.36 (KHTML, like Gecko) Chrome/124.0.0.0 Safari/537.36","WebKit","Chrome","124.0.0.0","Windows","10.0","https://hz8g1ckzuq.cognition.run/","en-US,en;q=0.9","r1czgb0z3obfoze","39","[""White""]","No","Male","2962513.8999999985","6933","","","{""product_choice"":""C""}","choice","tdc","repulsion_2","1","microwave ovens","null","null","null","null","null","null","2","100","90","100","30","40","20","Warranty","Cooking power","",""
"","","","","","choice_trial_setup","html-keyboard-response","144","2735896","0.0-5.0-0.30","203","1","2025-04-14 14:57:00","bb671e3ae32f654b8954ea4c4635f915","","Mozilla/5.0 (Windows NT 10.0; Win64; x64) AppleWebKit/537.36 (KHTML, like Gecko) Chrome/124.0.0.0 Safari/537.36","WebKit","Chrome","124.0.0.0","Windows","10.0","https://hz8g1ckzuq.cognition.run/","en-US,en;q=0.9","r1czgb0z3obfoze","39","[""White""]","No","Male","2962513.8999999985","null","","<p></p>","null","choice","ctd","repulsion_1","2","washing machines","null","null","null","null","null","null","2","","","","","","","","","",""
"","","","","","choice_trial","survey-html-form","145","2742743","0.0-5.0-1.30","203","1","2025-04-14 14:57:00","bb671e3ae32f654b8954ea4c4635f915","","Mozilla/5.0 (Windows NT 10.0; Win64; x64) AppleWebKit/537.36 (KHTML, like Gecko) Chrome/124.0.0.0 Safari/537.36","WebKit","Chrome","124.0.0.0","Windows","10.0","https://hz8g1ckzuq.cognition.run/","en-US,en;q=0.9","r1czgb0z3obfoze","39","[""White""]","No","Male","2962513.8999999985","6804","","","{""product_choice"":""A""}","choice","ctd","repulsion_1","2","washing machines","null","null","null","null","null","null","2","30","40","25","100","90","100","Average lifespan","Energy savings","",""
"","","","","","choice_trial_setup","html-keyboard-response","146","2743057","0.0-5.0-0.31","203","1","2025-04-14 14:57:00","bb671e3ae32f654b8954ea4c4635f915","","Mozilla/5.0 (Windows NT 10.0; Win64; x64) AppleWebKit/537.36 (KHTML, like Gecko) Chrome/124.0.0.0 Safari/537.36","WebKit","Chrome","124.0.0.0","Windows","10.0","https://hz8g1ckzuq.cognition.run/","en-US,en;q=0.9","r1czgb0z3obfoze","39","[""White""]","No","Male","2962513.8999999985","null","","<p></p>","null","choice","cdt","attraction_2","1","televisions","null","null","null","null","null","null","2","","","","","","","","","",""
"","","","","","choice_trial","survey-html-form","147","2753502","0.0-5.0-1.31","203","1","2025-04-14 14:57:00","bb671e3ae32f654b8954ea4c4635f915","","Mozilla/5.0 (Windows NT 10.0; Win64; x64) AppleWebKit/537.36 (KHTML, like Gecko) Chrome/124.0.0.0 Safari/537.36","WebKit","Chrome","124.0.0.0","Windows","10.0","https://hz8g1ckzuq.cognition.run/","en-US,en;q=0.9","r1czgb0z3obfoze","39","[""White""]","No","Male","2962513.8999999985","10404","","","{""product_choice"":""C""}","choice","cdt","attraction_2","1","televisions","null","null","null","null","null","null","2","60","50","60","50","60","40","Screen size","Average lifespan","",""
"","","","","","choice_trial_setup","html-keyboard-response","148","2753816","0.0-5.0-0.32","203","1","2025-04-14 14:57:00","bb671e3ae32f654b8954ea4c4635f915","","Mozilla/5.0 (Windows NT 10.0; Win64; x64) AppleWebKit/537.36 (KHTML, like Gecko) Chrome/124.0.0.0 Safari/537.36","WebKit","Chrome","124.0.0.0","Windows","10.0","https://hz8g1ckzuq.cognition.run/","en-US,en;q=0.9","r1czgb0z3obfoze","39","[""White""]","No","Male","2962513.8999999985","null","","<p></p>","null","choice","tdc","attraction_2","1","laptops","null","null","null","null","null","null","2","","","","","","","","","",""
"","","","","","choice_trial","survey-html-form","149","2760372","0.0-5.0-1.32","203","1","2025-04-14 14:57:00","bb671e3ae32f654b8954ea4c4635f915","","Mozilla/5.0 (Windows NT 10.0; Win64; x64) AppleWebKit/537.36 (KHTML, like Gecko) Chrome/124.0.0.0 Safari/537.36","WebKit","Chrome","124.0.0.0","Windows","10.0","https://hz8g1ckzuq.cognition.run/","en-US,en;q=0.9","r1czgb0z3obfoze","39","[""White""]","No","Male","2962513.8999999985","6514","","","{""product_choice"":""A""}","choice","tdc","attraction_2","1","laptops","null","null","null","null","null","null","2","60","50","60","50","60","40","Processing speed","Memory (RAM)","",""
"","","","","","choice_trial_setup","html-keyboard-response","150","2760688","0.0-5.0-0.33","203","1","2025-04-14 14:57:00","bb671e3ae32f654b8954ea4c4635f915","","Mozilla/5.0 (Windows NT 10.0; Win64; x64) AppleWebKit/537.36 (KHTML, like Gecko) Chrome/124.0.0.0 Safari/537.36","WebKit","Chrome","124.0.0.0","Windows","10.0","https://hz8g1ckzuq.cognition.run/","en-US,en;q=0.9","r1czgb0z3obfoze","39","[""White""]","No","Male","2962513.8999999985","null","","<p></p>","null","choice","dtc","attraction_2","2","televisions","null","null","null","null","null","null","1","","","","","","","","","",""
"","","","","","choice_trial","survey-html-form","151","2769039","0.0-5.0-1.33","203","1","2025-04-14 14:57:00","bb671e3ae32f654b8954ea4c4635f915","","Mozilla/5.0 (Windows NT 10.0; Win64; x64) AppleWebKit/537.36 (KHTML, like Gecko) Chrome/124.0.0.0 Safari/537.36","WebKit","Chrome","124.0.0.0","Windows","10.0","https://hz8g1ckzuq.cognition.run/","en-US,en;q=0.9","r1czgb0z3obfoze","39","[""White""]","No","Male","2962513.8999999985","8294","","","{""product_choice"":""B""}","choice","dtc","attraction_2","2","televisions","null","null","null","null","null","null","1","50","60","40","60","50","60","Screen size","Average lifespan","",""
"","","","","","choice_trial_setup","html-keyboard-response","152","2769353","0.0-5.0-0.34","203","1","2025-04-14 14:57:00","bb671e3ae32f654b8954ea4c4635f915","","Mozilla/5.0 (Windows NT 10.0; Win64; x64) AppleWebKit/537.36 (KHTML, like Gecko) Chrome/124.0.0.0 Safari/537.36","WebKit","Chrome","124.0.0.0","Windows","10.0","https://hz8g1ckzuq.cognition.run/","en-US,en;q=0.9","r1czgb0z3obfoze","39","[""White""]","No","Male","2962513.8999999985","null","","<p></p>","null","choice","ctd","repulsion_2","2","laptops","null","null","null","null","null","null","1","","","","","","","","","",""
"","","","","","choice_trial","survey-html-form","153","2775972","0.0-5.0-1.34","203","1","2025-04-14 14:57:00","bb671e3ae32f654b8954ea4c4635f915","","Mozilla/5.0 (Windows NT 10.0; Win64; x64) AppleWebKit/537.36 (KHTML, like Gecko) Chrome/124.0.0.0 Safari/537.36","WebKit","Chrome","124.0.0.0","Windows","10.0","https://hz8g1ckzuq.cognition.run/","en-US,en;q=0.9","r1czgb0z3obfoze","39","[""White""]","No","Male","2962513.8999999985","6605","","","{""product_choice"":""A""}","choice","ctd","repulsion_2","2","laptops","null","null","null","null","null","null","1","30","40","20","100","90","100","Processing speed","Memory (RAM)","",""
"","","","","","choice_trial_setup","html-keyboard-response","154","2776286","0.0-5.0-0.35","203","1","2025-04-14 14:57:00","bb671e3ae32f654b8954ea4c4635f915","","Mozilla/5.0 (Windows NT 10.0; Win64; x64) AppleWebKit/537.36 (KHTML, like Gecko) Chrome/124.0.0.0 Safari/537.36","WebKit","Chrome","124.0.0.0","Windows","10.0","https://hz8g1ckzuq.cognition.run/","en-US,en;q=0.9","r1czgb0z3obfoze","39","[""White""]","No","Male","2962513.8999999985","null","","<p></p>","null","choice","wbw","catch","null","washing machines","95","90","35","10","40","35","2","","","","","","","","","",""
"","","","","","choice_trial","survey-html-form","155","2783509","0.0-5.0-1.35","203","1","2025-04-14 14:57:00","bb671e3ae32f654b8954ea4c4635f915","","Mozilla/5.0 (Windows NT 10.0; Win64; x64) AppleWebKit/537.36 (KHTML, like Gecko) Chrome/124.0.0.0 Safari/537.36","WebKit","Chrome","124.0.0.0","Windows","10.0","https://hz8g1ckzuq.cognition.run/","en-US,en;q=0.9","r1czgb0z3obfoze","39","[""White""]","No","Male","2962513.8999999985","7173","","","{""product_choice"":""B""}","choice","wbw","catch","null","washing machines","95","90","35","10","40","35","2","null","null","null","null","null","null","Average lifespan","Energy savings","",""
"","","","","","choice_trial_setup","html-keyboard-response","156","2783823","0.0-5.0-0.36","203","1","2025-04-14 14:57:00","bb671e3ae32f654b8954ea4c4635f915","","Mozilla/5.0 (Windows NT 10.0; Win64; x64) AppleWebKit/537.36 (KHTML, like Gecko) Chrome/124.0.0.0 Safari/537.36","WebKit","Chrome","124.0.0.0","Windows","10.0","https://hz8g1ckzuq.cognition.run/","en-US,en;q=0.9","r1czgb0z3obfoze","39","[""White""]","No","Male","2962513.8999999985","null","","<p></p>","null","choice","wwb","catch","null","laptops","60","75","30","5","20","40","2","","","","","","","","","",""
