"success","timeout","failed_images","failed_audio","failed_video","screen_id","trial_type","trial_index","time_elapsed","internal_node_id","run_id","condition","recorded_at","source_code_version","ip","user_agent","device","browser","browser_version","platform","platform_version","referer","accept_language","ppt_id","age","race","ethnicity","gender","exp_duration","rt","view_history","stimulus","response","phase","order","effect","t_high","category","d1_best","d2_best","d1_worst1","d2_worst1","d1_worst2","d2_worst2","first_dim","d1_t","d1_c","d1_d","d2_t","d2_c","d2_d","d1_name","d2_name","strategy_response","question_order"
"true","false","[]","[]","[]","img preload","preload","0","127916","0.0-0.0","208","1","2025-04-14 15:14:53","bb671e3ae32f654b8954ea4c4635f915","","Mozilla/5.0 (Windows NT 10.0; Win64; x64) AppleWebKit/537.36 (KHTML, like Gecko) Chrome/133.0.0.0 Safari/537.36","WebKit","Chrome","133.0.0.0","Windows","10.0","https://hz8g1ckzuq.cognition.run/","en-US,en;q=0.9","wn0q5w90v9gemmo","34","[""White""]","No","Male","1409355.5","","","","","","","","","","","","","","","","","","","","","","","","","",""
"true","","","","","","fullscreen","1","190626","0.0-1.0","208","1","2025-04-14 15:14:53","bb671e3ae32f654b8954ea4c4635f915","","Mozilla/5.0 (Windows NT 10.0; Win64; x64) AppleWebKit/537.36 (KHTML, like Gecko) Chrome/133.0.0.0 Safari/537.36","WebKit","Chrome","133.0.0.0","Windows","10.0","https://hz8g1ckzuq.cognition.run/","en-US,en;q=0.9","wn0q5w90v9gemmo","34","[""White""]","No","Male","1409355.5","61701","","","","","","","","","","","","","","","","","","","","","","","","",""
"","","","","","","instructions","2","345065","0.0-2.0","208","1","2025-04-14 15:14:53","bb671e3ae32f654b8954ea4c4635f915","","Mozilla/5.0 (Windows NT 10.0; Win64; x64) AppleWebKit/537.36 (KHTML, like Gecko) Chrome/133.0.0.0 Safari/537.36","WebKit","Chrome","133.0.0.0","Windows","10.0","https://hz8g1ckzuq.cognition.run/","en-US,en;q=0.9","wn0q5w90v9gemmo","34","[""White""]","No","Male","1409355.5","154435","[{""page_index"":0,""viewing_time"":4698},{""page_index"":1,""viewing_time"":9446},{""page_index"":2,""viewing_time"":22472},{""page_index"":3,""viewing_time"":9214},{""page_index"":4,""viewing_time"":14680},{""page_index"":5,""viewing_time"":3172},{""page_index"":6,""viewing_time"":10342},{""page_index"":7,""viewing_time"":51306},{""page_index"":8,""viewing_time"":21454},{""page_index"":9,""viewing_time"":7650}]","","","","","","","","","","","","","","","","","","","","","","","",""
"","","","","","rating_trial_setup","html-keyboard-response","3","345375","0.0-3.0-0.0","208","1","2025-04-14 15:14:53","bb671e3ae32f654b8954ea4c4635f915","","Mozilla/5.0 (Windows NT 10.0; Win64; x64) AppleWebKit/537.36 (KHTML, like Gecko) Chrome/133.0.0.0 Safari/537.36","WebKit","Chrome","133.0.0.0","Windows","10.0","https://hz8g1ckzuq.cognition.run/","en-US,en;q=0.9","wn0q5w90v9gemmo","34","[""White""]","No","Male","1409355.5","null","","<p></p>","null","rating","tcd","repulsion_1","1","microwave ovens","null","null","null","null","null","null","1","","","","","","","","","",""
"","","","","","rating_trial","survey-html-form","4","406028","0.0-3.0-1.0","208","1","2025-04-14 15:14:53","bb671e3ae32f654b8954ea4c4635f915","","Mozilla/5.0 (Windows NT 10.0; Win64; x64) AppleWebKit/537.36 (KHTML, like Gecko) Chrome/133.0.0.0 Safari/537.36","WebKit","Chrome","133.0.0.0","Windows","10.0","https://hz8g1ckzuq.cognition.run/","en-US,en;q=0.9","wn0q5w90v9gemmo","34","[""White""]","No","Male","1409355.5","60645","","","{""price_1"":""100"",""price_2"":""90"",""price_3"":""90""}","rating","tcd","repulsion_1","1","microwave ovens","null","null","null","null","null","null","1","100","90","100","30","40","25","Warranty","Cooking power","",""
"","","","","","rating_trial_setup","html-keyboard-response","5","406337","0.0-3.0-0.1","208","1","2025-04-14 15:14:53","bb671e3ae32f654b8954ea4c4635f915","","Mozilla/5.0 (Windows NT 10.0; Win64; x64) AppleWebKit/537.36 (KHTML, like Gecko) Chrome/133.0.0.0 Safari/537.36","WebKit","Chrome","133.0.0.0","Windows","10.0","https://hz8g1ckzuq.cognition.run/","en-US,en;q=0.9","wn0q5w90v9gemmo","34","[""White""]","No","Male","1409355.5","null","","<p></p>","null","rating","dtc","repulsion_2","1","televisions","null","null","null","null","null","null","2","","","","","","","","","",""
"","","","","","rating_trial","survey-html-form","6","430785","0.0-3.0-1.1","208","1","2025-04-14 15:14:53","bb671e3ae32f654b8954ea4c4635f915","","Mozilla/5.0 (Windows NT 10.0; Win64; x64) AppleWebKit/537.36 (KHTML, like Gecko) Chrome/133.0.0.0 Safari/537.36","WebKit","Chrome","133.0.0.0","Windows","10.0","https://hz8g1ckzuq.cognition.run/","en-US,en;q=0.9","wn0q5w90v9gemmo","34","[""White""]","No","Male","1409355.5","24444","","","{""price_1"":""95"",""price_2"":""95"",""price_3"":""100""}","rating","dtc","repulsion_2","1","televisions","null","null","null","null","null","null","2","100","90","100","30","40","20","Screen size","Average lifespan","",""
"","","","","","rating_trial_setup","html-keyboard-response","7","431092","0.0-3.0-0.2","208","1","2025-04-14 15:14:53","bb671e3ae32f654b8954ea4c4635f915","","Mozilla/5.0 (Windows NT 10.0; Win64; x64) AppleWebKit/537.36 (KHTML, like Gecko) Chrome/133.0.0.0 Safari/537.36","WebKit","Chrome","133.0.0.0","Windows","10.0","https://hz8g1ckzuq.cognition.run/","en-US,en;q=0.9","wn0q5w90v9gemmo","34","[""White""]","No","Male","1409355.5","null","","<p></p>","null","rating","dtc","repulsion_2","2","televisions","null","null","null","null","null","null","2","","","","","","","","","",""
"","","","","","rating_trial","survey-html-form","8","455803","0.0-3.0-1.2","208","1","2025-04-14 15:14:53","bb671e3ae32f654b8954ea4c4635f915","","Mozilla/5.0 (Windows NT 10.0; Win64; x64) AppleWebKit/537.36 (KHTML, like Gecko) Chrome/133.0.0.0 Safari/537.36","WebKit","Chrome","133.0.0.0","Windows","10.0","https://hz8g1ckzuq.cognition.run/","en-US,en;q=0.9","wn0q5w90v9gemmo","34","[""White""]","No","Male","1409355.5","24707","","","{""price_1"":""100"",""price_2"":""120"",""price_3"":""120""}","rating","dtc","repulsion_2","2","televisions","null","null","null","null","null","null","2","30","40","20","100","90","100","Screen size","Average lifespan","",""
"","","","","","rating_trial_setup","html-keyboard-response","9","456116","0.0-3.0-0.3","208","1","2025-04-14 15:14:53","bb671e3ae32f654b8954ea4c4635f915","","Mozilla/5.0 (Windows NT 10.0; Win64; x64) AppleWebKit/537.36 (KHTML, like Gecko) Chrome/133.0.0.0 Safari/537.36","WebKit","Chrome","133.0.0.0","Windows","10.0","https://hz8g1ckzuq.cognition.run/","en-US,en;q=0.9","wn0q5w90v9gemmo","34","[""White""]","No","Male","1409355.5","null","","<p></p>","null","rating","dct","attraction_1","1","televisions","null","null","null","null","null","null","1","","","","","","","","","",""
"","","","","","rating_trial","survey-html-form","10","476185","0.0-3.0-1.3","208","1","2025-04-14 15:14:53","bb671e3ae32f654b8954ea4c4635f915","","Mozilla/5.0 (Windows NT 10.0; Win64; x64) AppleWebKit/537.36 (KHTML, like Gecko) Chrome/133.0.0.0 Safari/537.36","WebKit","Chrome","133.0.0.0","Windows","10.0","https://hz8g1ckzuq.cognition.run/","en-US,en;q=0.9","wn0q5w90v9gemmo","34","[""White""]","No","Male","1409355.5","20065","","","{""price_1"":""130"",""price_2"":""130"",""price_3"":""130""}","rating","dct","attraction_1","1","televisions","null","null","null","null","null","null","1","60","50","60","50","60","45","Screen size","Average lifespan","",""
"","","","","","rating_trial_setup","html-keyboard-response","11","476491","0.0-3.0-0.4","208","1","2025-04-14 15:14:53","bb671e3ae32f654b8954ea4c4635f915","","Mozilla/5.0 (Windows NT 10.0; Win64; x64) AppleWebKit/537.36 (KHTML, like Gecko) Chrome/133.0.0.0 Safari/537.36","WebKit","Chrome","133.0.0.0","Windows","10.0","https://hz8g1ckzuq.cognition.run/","en-US,en;q=0.9","wn0q5w90v9gemmo","34","[""White""]","No","Male","1409355.5","null","","<p></p>","null","rating","tcd","attraction_2","2","televisions","null","null","null","null","null","null","2","","","","","","","","","",""
"","","","","","rating_trial","survey-html-form","12","494163","0.0-3.0-1.4","208","1","2025-04-14 15:14:53","bb671e3ae32f654b8954ea4c4635f915","","Mozilla/5.0 (Windows NT 10.0; Win64; x64) AppleWebKit/537.36 (KHTML, like Gecko) Chrome/133.0.0.0 Safari/537.36","WebKit","Chrome","133.0.0.0","Windows","10.0","https://hz8g1ckzuq.cognition.run/","en-US,en;q=0.9","wn0q5w90v9gemmo","34","[""White""]","No","Male","1409355.5","17667","","","{""price_1"":""130"",""price_2"":""120"",""price_3"":""120""}","rating","tcd","attraction_2","2","televisions","null","null","null","null","null","null","2","50","60","40","60","50","60","Screen size","Average lifespan","",""
"","","","","","rating_trial_setup","html-keyboard-response","13","494469","0.0-3.0-0.5","208","1","2025-04-14 15:14:53","bb671e3ae32f654b8954ea4c4635f915","","Mozilla/5.0 (Windows NT 10.0; Win64; x64) AppleWebKit/537.36 (KHTML, like Gecko) Chrome/133.0.0.0 Safari/537.36","WebKit","Chrome","133.0.0.0","Windows","10.0","https://hz8g1ckzuq.cognition.run/","en-US,en;q=0.9","wn0q5w90v9gemmo","34","[""White""]","No","Male","1409355.5","null","","<p></p>","null","rating","dtc","attraction_1","1","laptops","null","null","null","null","null","null","1","","","","","","","","","",""
"","","","","","rating_trial","survey-html-form","14","520755","0.0-3.0-1.5","208","1","2025-04-14 15:14:53","bb671e3ae32f654b8954ea4c4635f915","","Mozilla/5.0 (Windows NT 10.0; Win64; x64) AppleWebKit/537.36 (KHTML, like Gecko) Chrome/133.0.0.0 Safari/537.36","WebKit","Chrome","133.0.0.0","Windows","10.0","https://hz8g1ckzuq.cognition.run/","en-US,en;q=0.9","wn0q5w90v9gemmo","34","[""White""]","No","Male","1409355.5","26281","","","{""price_1"":""200"",""price_2"":""250"",""price_3"":""250""}","rating","dtc","attraction_1","1","laptops","null","null","null","null","null","null","1","60","50","60","50","60","45","Processing speed","Memory (RAM)","",""
"","","","","","rating_trial_setup","html-keyboard-response","15","521058","0.0-3.0-0.6","208","1","2025-04-14 15:14:53","bb671e3ae32f654b8954ea4c4635f915","","Mozilla/5.0 (Windows NT 10.0; Win64; x64) AppleWebKit/537.36 (KHTML, like Gecko) Chrome/133.0.0.0 Safari/537.36","WebKit","Chrome","133.0.0.0","Windows","10.0","https://hz8g1ckzuq.cognition.run/","en-US,en;q=0.9","wn0q5w90v9gemmo","34","[""White""]","No","Male","1409355.5","null","","<p></p>","null","rating","cdt","repulsion_2","1","washing machines","null","null","null","null","null","null","1","","","","","","","","","",""
"","","","","","rating_trial","survey-html-form","16","544349","0.0-3.0-1.6","208","1","2025-04-14 15:14:53","bb671e3ae32f654b8954ea4c4635f915","","Mozilla/5.0 (Windows NT 10.0; Win64; x64) AppleWebKit/537.36 (KHTML, like Gecko) Chrome/133.0.0.0 Safari/537.36","WebKit","Chrome","133.0.0.0","Windows","10.0","https://hz8g1ckzuq.cognition.run/","en-US,en;q=0.9","wn0q5w90v9gemmo","34","[""White""]","No","Male","1409355.5","23286","","","{""price_1"":""220"",""price_2"":""220"",""price_3"":""240""}","rating","cdt","repulsion_2","1","washing machines","null","null","null","null","null","null","1","100","90","100","30","40","20","Average lifespan","Energy savings","",""
"","","","","","rating_trial_setup","html-keyboard-response","17","544664","0.0-3.0-0.7","208","1","2025-04-14 15:14:53","bb671e3ae32f654b8954ea4c4635f915","","Mozilla/5.0 (Windows NT 10.0; Win64; x64) AppleWebKit/537.36 (KHTML, like Gecko) Chrome/133.0.0.0 Safari/537.36","WebKit","Chrome","133.0.0.0","Windows","10.0","https://hz8g1ckzuq.cognition.run/","en-US,en;q=0.9","wn0q5w90v9gemmo","34","[""White""]","No","Male","1409355.5","null","","<p></p>","null","rating","wwb","catch","null","microwave ovens","75","50","30","15","45","40","2","","","","","","","","","",""
"","","","","","rating_trial","survey-html-form","18","578279","0.0-3.0-1.7","208","1","2025-04-14 15:14:53","bb671e3ae32f654b8954ea4c4635f915","","Mozilla/5.0 (Windows NT 10.0; Win64; x64) AppleWebKit/537.36 (KHTML, like Gecko) Chrome/133.0.0.0 Safari/537.36","WebKit","Chrome","133.0.0.0","Windows","10.0","https://hz8g1ckzuq.cognition.run/","en-US,en;q=0.9","wn0q5w90v9gemmo","34","[""White""]","No","Male","1409355.5","33609","","","{""price_1"":""90"",""price_2"":""100"",""price_3"":""120""}","rating","wwb","catch","null","microwave ovens","75","50","30","15","45","40","2","null","null","null","null","null","null","Warranty","Cooking power","",""
"","","","","","rating_trial_setup","html-keyboard-response","19","578583","0.0-3.0-0.8","208","1","2025-04-14 15:14:53","bb671e3ae32f654b8954ea4c4635f915","","Mozilla/5.0 (Windows NT 10.0; Win64; x64) AppleWebKit/537.36 (KHTML, like Gecko) Chrome/133.0.0.0 Safari/537.36","WebKit","Chrome","133.0.0.0","Windows","10.0","https://hz8g1ckzuq.cognition.run/","en-US,en;q=0.9","wn0q5w90v9gemmo","34","[""White""]","No","Male","1409355.5","null","","<p></p>","null","rating","dtc","attraction_1","1","washing machines","null","null","null","null","null","null","1","","","","","","","","","",""
"","","","","","rating_trial","survey-html-form","20","590980","0.0-3.0-1.8","208","1","2025-04-14 15:14:53","bb671e3ae32f654b8954ea4c4635f915","","Mozilla/5.0 (Windows NT 10.0; Win64; x64) AppleWebKit/537.36 (KHTML, like Gecko) Chrome/133.0.0.0 Safari/537.36","WebKit","Chrome","133.0.0.0","Windows","10.0","https://hz8g1ckzuq.cognition.run/","en-US,en;q=0.9","wn0q5w90v9gemmo","34","[""White""]","No","Male","1409355.5","12391","","","{""price_1"":""110"",""price_2"":""120"",""price_3"":""120""}","rating","dtc","attraction_1","1","washing machines","null","null","null","null","null","null","1","60","50","60","50","60","45","Average lifespan","Energy savings","",""
"","","","","","rating_trial_setup","html-keyboard-response","21","591286","0.0-3.0-0.9","208","1","2025-04-14 15:14:53","bb671e3ae32f654b8954ea4c4635f915","","Mozilla/5.0 (Windows NT 10.0; Win64; x64) AppleWebKit/537.36 (KHTML, like Gecko) Chrome/133.0.0.0 Safari/537.36","WebKit","Chrome","133.0.0.0","Windows","10.0","https://hz8g1ckzuq.cognition.run/","en-US,en;q=0.9","wn0q5w90v9gemmo","34","[""White""]","No","Male","1409355.5","null","","<p></p>","null","rating","cdt","attraction_2","2","washing machines","null","null","null","null","null","null","2","","","","","","","","","",""
"","","","","","rating_trial","survey-html-form","22","606935","0.0-3.0-1.9","208","1","2025-04-14 15:14:53","bb671e3ae32f654b8954ea4c4635f915","","Mozilla/5.0 (Windows NT 10.0; Win64; x64) AppleWebKit/537.36 (KHTML, like Gecko) Chrome/133.0.0.0 Safari/537.36","WebKit","Chrome","133.0.0.0","Windows","10.0","https://hz8g1ckzuq.cognition.run/","en-US,en;q=0.9","wn0q5w90v9gemmo","34","[""White""]","No","Male","1409355.5","15643","","","{""price_1"":""200"",""price_2"":""200"",""price_3"":""200""}","rating","cdt","attraction_2","2","washing machines","null","null","null","null","null","null","2","50","60","40","60","50","60","Average lifespan","Energy savings","",""
"","","","","","rating_trial_setup","html-keyboard-response","23","607245","0.0-3.0-0.10","208","1","2025-04-14 15:14:53","bb671e3ae32f654b8954ea4c4635f915","","Mozilla/5.0 (Windows NT 10.0; Win64; x64) AppleWebKit/537.36 (KHTML, like Gecko) Chrome/133.0.0.0 Safari/537.36","WebKit","Chrome","133.0.0.0","Windows","10.0","https://hz8g1ckzuq.cognition.run/","en-US,en;q=0.9","wn0q5w90v9gemmo","34","[""White""]","No","Male","1409355.5","null","","<p></p>","null","rating","tcd","repulsion_1","2","microwave ovens","null","null","null","null","null","null","2","","","","","","","","","",""
"","","","","","rating_trial","survey-html-form","24","624823","0.0-3.0-1.10","208","1","2025-04-14 15:14:53","bb671e3ae32f654b8954ea4c4635f915","","Mozilla/5.0 (Windows NT 10.0; Win64; x64) AppleWebKit/537.36 (KHTML, like Gecko) Chrome/133.0.0.0 Safari/537.36","WebKit","Chrome","133.0.0.0","Windows","10.0","https://hz8g1ckzuq.cognition.run/","en-US,en;q=0.9","wn0q5w90v9gemmo","34","[""White""]","No","Male","1409355.5","17572","","","{""price_1"":""120"",""price_2"":""120"",""price_3"":""100""}","rating","tcd","repulsion_1","2","microwave ovens","null","null","null","null","null","null","2","30","40","25","100","90","100","Warranty","Cooking power","",""
"","","","","","rating_trial_setup","html-keyboard-response","25","625128","0.0-3.0-0.11","208","1","2025-04-14 15:14:53","bb671e3ae32f654b8954ea4c4635f915","","Mozilla/5.0 (Windows NT 10.0; Win64; x64) AppleWebKit/537.36 (KHTML, like Gecko) Chrome/133.0.0.0 Safari/537.36","WebKit","Chrome","133.0.0.0","Windows","10.0","https://hz8g1ckzuq.cognition.run/","en-US,en;q=0.9","wn0q5w90v9gemmo","34","[""White""]","No","Male","1409355.5","null","","<p></p>","null","rating","cdt","attraction_2","1","televisions","null","null","null","null","null","null","2","","","","","","","","","",""
"","","","","","rating_trial","survey-html-form","26","637445","0.0-3.0-1.11","208","1","2025-04-14 15:14:53","bb671e3ae32f654b8954ea4c4635f915","","Mozilla/5.0 (Windows NT 10.0; Win64; x64) AppleWebKit/537.36 (KHTML, like Gecko) Chrome/133.0.0.0 Safari/537.36","WebKit","Chrome","133.0.0.0","Windows","10.0","https://hz8g1ckzuq.cognition.run/","en-US,en;q=0.9","wn0q5w90v9gemmo","34","[""White""]","No","Male","1409355.5","12312","","","{""price_1"":""100"",""price_2"":""100"",""price_3"":""100""}","rating","cdt","attraction_2","1","televisions","null","null","null","null","null","null","2","60","50","60","50","60","40","Screen size","Average lifespan","",""
"","","","","","rating_trial_setup","html-keyboard-response","27","637757","0.0-3.0-0.12","208","1","2025-04-14 15:14:53","bb671e3ae32f654b8954ea4c4635f915","","Mozilla/5.0 (Windows NT 10.0; Win64; x64) AppleWebKit/537.36 (KHTML, like Gecko) Chrome/133.0.0.0 Safari/537.36","WebKit","Chrome","133.0.0.0","Windows","10.0","https://hz8g1ckzuq.cognition.run/","en-US,en;q=0.9","wn0q5w90v9gemmo","34","[""White""]","No","Male","1409355.5","null","","<p></p>","null","rating","tcd","attraction_2","2","laptops","null","null","null","null","null","null","1","","","","","","","","","",""
"","","","","","rating_trial","survey-html-form","28","648541","0.0-3.0-1.12","208","1","2025-04-14 15:14:53","bb671e3ae32f654b8954ea4c4635f915","","Mozilla/5.0 (Windows NT 10.0; Win64; x64) AppleWebKit/537.36 (KHTML, like Gecko) Chrome/133.0.0.0 Safari/537.36","WebKit","Chrome","133.0.0.0","Windows","10.0","https://hz8g1ckzuq.cognition.run/","en-US,en;q=0.9","wn0q5w90v9gemmo","34","[""White""]","No","Male","1409355.5","10779","","","{""price_1"":""200"",""price_2"":""200"",""price_3"":""200""}","rating","tcd","attraction_2","2","laptops","null","null","null","null","null","null","1","50","60","40","60","50","60","Processing speed","Memory (RAM)","",""
"","","","","","rating_trial_setup","html-keyboard-response","29","648845","0.0-3.0-0.13","208","1","2025-04-14 15:14:53","bb671e3ae32f654b8954ea4c4635f915","","Mozilla/5.0 (Windows NT 10.0; Win64; x64) AppleWebKit/537.36 (KHTML, like Gecko) Chrome/133.0.0.0 Safari/537.36","WebKit","Chrome","133.0.0.0","Windows","10.0","https://hz8g1ckzuq.cognition.run/","en-US,en;q=0.9","wn0q5w90v9gemmo","34","[""White""]","No","Male","1409355.5","null","","<p></p>","null","rating","dtc","attraction_2","1","laptops","null","null","null","null","null","null","1","","","","","","","","","",""
"","","","","","rating_trial","survey-html-form","30","662140","0.0-3.0-1.13","208","1","2025-04-14 15:14:53","bb671e3ae32f654b8954ea4c4635f915","","Mozilla/5.0 (Windows NT 10.0; Win64; x64) AppleWebKit/537.36 (KHTML, like Gecko) Chrome/133.0.0.0 Safari/537.36","WebKit","Chrome","133.0.0.0","Windows","10.0","https://hz8g1ckzuq.cognition.run/","en-US,en;q=0.9","wn0q5w90v9gemmo","34","[""White""]","No","Male","1409355.5","13289","","","{""price_1"":""220"",""price_2"":""220"",""price_3"":""220""}","rating","dtc","attraction_2","1","laptops","null","null","null","null","null","null","1","60","50","60","50","60","40","Processing speed","Memory (RAM)","",""
"","","","","","rating_trial_setup","html-keyboard-response","31","662450","0.0-3.0-0.14","208","1","2025-04-14 15:14:53","bb671e3ae32f654b8954ea4c4635f915","","Mozilla/5.0 (Windows NT 10.0; Win64; x64) AppleWebKit/537.36 (KHTML, like Gecko) Chrome/133.0.0.0 Safari/537.36","WebKit","Chrome","133.0.0.0","Windows","10.0","https://hz8g1ckzuq.cognition.run/","en-US,en;q=0.9","wn0q5w90v9gemmo","34","[""White""]","No","Male","1409355.5","null","","<p></p>","null","rating","wwb","catch","null","microwave ovens","90","60","10","5","45","30","1","","","","","","","","","",""
"","","","","","rating_trial","survey-html-form","32","679142","0.0-3.0-1.14","208","1","2025-04-14 15:14:53","bb671e3ae32f654b8954ea4c4635f915","","Mozilla/5.0 (Windows NT 10.0; Win64; x64) AppleWebKit/537.36 (KHTML, like Gecko) Chrome/133.0.0.0 Safari/537.36","WebKit","Chrome","133.0.0.0","Windows","10.0","https://hz8g1ckzuq.cognition.run/","en-US,en;q=0.9","wn0q5w90v9gemmo","34","[""White""]","No","Male","1409355.5","16685","","","{""price_1"":""40"",""price_2"":""60"",""price_3"":""100""}","rating","wwb","catch","null","microwave ovens","90","60","10","5","45","30","1","null","null","null","null","null","null","Warranty","Cooking power","",""
"","","","","","rating_trial_setup","html-keyboard-response","33","679448","0.0-3.0-0.15","208","1","2025-04-14 15:14:53","bb671e3ae32f654b8954ea4c4635f915","","Mozilla/5.0 (Windows NT 10.0; Win64; x64) AppleWebKit/537.36 (KHTML, like Gecko) Chrome/133.0.0.0 Safari/537.36","WebKit","Chrome","133.0.0.0","Windows","10.0","https://hz8g1ckzuq.cognition.run/","en-US,en;q=0.9","wn0q5w90v9gemmo","34","[""White""]","No","Male","1409355.5","null","","<p></p>","null","rating","dtc","repulsion_1","1","laptops","null","null","null","null","null","null","1","","","","","","","","","",""
"","","","","","rating_trial","survey-html-form","34","697222","0.0-3.0-1.15","208","1","2025-04-14 15:14:53","bb671e3ae32f654b8954ea4c4635f915","","Mozilla/5.0 (Windows NT 10.0; Win64; x64) AppleWebKit/537.36 (KHTML, like Gecko) Chrome/133.0.0.0 Safari/537.36","WebKit","Chrome","133.0.0.0","Windows","10.0","https://hz8g1ckzuq.cognition.run/","en-US,en;q=0.9","wn0q5w90v9gemmo","34","[""White""]","No","Male","1409355.5","17766","","","{""price_1"":""150"",""price_2"":""150"",""price_3"":""150""}","rating","dtc","repulsion_1","1","laptops","null","null","null","null","null","null","1","100","90","100","30","40","25","Processing speed","Memory (RAM)","",""
"","","","","","rating_trial_setup","html-keyboard-response","35","697525","0.0-3.0-0.16","208","1","2025-04-14 15:14:53","bb671e3ae32f654b8954ea4c4635f915","","Mozilla/5.0 (Windows NT 10.0; Win64; x64) AppleWebKit/537.36 (KHTML, like Gecko) Chrome/133.0.0.0 Safari/537.36","WebKit","Chrome","133.0.0.0","Windows","10.0","https://hz8g1ckzuq.cognition.run/","en-US,en;q=0.9","wn0q5w90v9gemmo","34","[""White""]","No","Male","1409355.5","null","","<p></p>","null","rating","bww","catch","null","washing machines","60","90","45","25","45","10","2","","","","","","","","","",""
"","","","","","rating_trial","survey-html-form","36","713396","0.0-3.0-1.16","208","1","2025-04-14 15:14:53","bb671e3ae32f654b8954ea4c4635f915","","Mozilla/5.0 (Windows NT 10.0; Win64; x64) AppleWebKit/537.36 (KHTML, like Gecko) Chrome/133.0.0.0 Safari/537.36","WebKit","Chrome","133.0.0.0","Windows","10.0","https://hz8g1ckzuq.cognition.run/","en-US,en;q=0.9","wn0q5w90v9gemmo","34","[""White""]","No","Male","1409355.5","15865","","","{""price_1"":""200"",""price_2"":""50"",""price_3"":""50""}","rating","bww","catch","null","washing machines","60","90","45","25","45","10","2","null","null","null","null","null","null","Average lifespan","Energy savings","",""
"","","","","","rating_trial_setup","html-keyboard-response","37","713704","0.0-3.0-0.17","208","1","2025-04-14 15:14:53","bb671e3ae32f654b8954ea4c4635f915","","Mozilla/5.0 (Windows NT 10.0; Win64; x64) AppleWebKit/537.36 (KHTML, like Gecko) Chrome/133.0.0.0 Safari/537.36","WebKit","Chrome","133.0.0.0","Windows","10.0","https://hz8g1ckzuq.cognition.run/","en-US,en;q=0.9","wn0q5w90v9gemmo","34","[""White""]","No","Male","1409355.5","null","","<p></p>","null","rating","dct","attraction_2","1","microwave ovens","null","null","null","null","null","null","2","","","","","","","","","",""
"","","","","","rating_trial","survey-html-form","38","728468","0.0-3.0-1.17","208","1","2025-04-14 15:14:53","bb671e3ae32f654b8954ea4c4635f915","","Mozilla/5.0 (Windows NT 10.0; Win64; x64) AppleWebKit/537.36 (KHTML, like Gecko) Chrome/133.0.0.0 Safari/537.36","WebKit","Chrome","133.0.0.0","Windows","10.0","https://hz8g1ckzuq.cognition.run/","en-US,en;q=0.9","wn0q5w90v9gemmo","34","[""White""]","No","Male","1409355.5","14757","","","{""price_1"":""90"",""price_2"":""100"",""price_3"":""100""}","rating","dct","attraction_2","1","microwave ovens","null","null","null","null","null","null","2","60","50","60","50","60","40","Warranty","Cooking power","",""
"","","","","","rating_trial_setup","html-keyboard-response","39","728773","0.0-3.0-0.18","208","1","2025-04-14 15:14:53","bb671e3ae32f654b8954ea4c4635f915","","Mozilla/5.0 (Windows NT 10.0; Win64; x64) AppleWebKit/537.36 (KHTML, like Gecko) Chrome/133.0.0.0 Safari/537.36","WebKit","Chrome","133.0.0.0","Windows","10.0","https://hz8g1ckzuq.cognition.run/","en-US,en;q=0.9","wn0q5w90v9gemmo","34","[""White""]","No","Male","1409355.5","null","","<p></p>","null","rating","dct","attraction_1","2","washing machines","null","null","null","null","null","null","1","","","","","","","","","",""
"","","","","","rating_trial","survey-html-form","40","748508","0.0-3.0-1.18","208","1","2025-04-14 15:14:53","bb671e3ae32f654b8954ea4c4635f915","","Mozilla/5.0 (Windows NT 10.0; Win64; x64) AppleWebKit/537.36 (KHTML, like Gecko) Chrome/133.0.0.0 Safari/537.36","WebKit","Chrome","133.0.0.0","Windows","10.0","https://hz8g1ckzuq.cognition.run/","en-US,en;q=0.9","wn0q5w90v9gemmo","34","[""White""]","No","Male","1409355.5","19728","","","{""price_1"":""120"",""price_2"":""170"",""price_3"":""170""}","rating","dct","attraction_1","2","washing machines","null","null","null","null","null","null","1","50","60","45","60","50","60","Average lifespan","Energy savings","",""
"","","","","","rating_trial_setup","html-keyboard-response","41","748813","0.0-3.0-0.19","208","1","2025-04-14 15:14:53","bb671e3ae32f654b8954ea4c4635f915","","Mozilla/5.0 (Windows NT 10.0; Win64; x64) AppleWebKit/537.36 (KHTML, like Gecko) Chrome/133.0.0.0 Safari/537.36","WebKit","Chrome","133.0.0.0","Windows","10.0","https://hz8g1ckzuq.cognition.run/","en-US,en;q=0.9","wn0q5w90v9gemmo","34","[""White""]","No","Male","1409355.5","null","","<p></p>","null","rating","cdt","repulsion_1","2","televisions","null","null","null","null","null","null","1","","","","","","","","","",""
"","","","","","rating_trial","survey-html-form","42","768542","0.0-3.0-1.19","208","1","2025-04-14 15:14:53","bb671e3ae32f654b8954ea4c4635f915","","Mozilla/5.0 (Windows NT 10.0; Win64; x64) AppleWebKit/537.36 (KHTML, like Gecko) Chrome/133.0.0.0 Safari/537.36","WebKit","Chrome","133.0.0.0","Windows","10.0","https://hz8g1ckzuq.cognition.run/","en-US,en;q=0.9","wn0q5w90v9gemmo","34","[""White""]","No","Male","1409355.5","19722","","","{""price_1"":""70"",""price_2"":""75"",""price_3"":""75""}","rating","cdt","repulsion_1","2","televisions","null","null","null","null","null","null","1","30","40","25","100","90","100","Screen size","Average lifespan","",""
"","","","","","rating_trial_setup","html-keyboard-response","43","768859","0.0-3.0-0.20","208","1","2025-04-14 15:14:53","bb671e3ae32f654b8954ea4c4635f915","","Mozilla/5.0 (Windows NT 10.0; Win64; x64) AppleWebKit/537.36 (KHTML, like Gecko) Chrome/133.0.0.0 Safari/537.36","WebKit","Chrome","133.0.0.0","Windows","10.0","https://hz8g1ckzuq.cognition.run/","en-US,en;q=0.9","wn0q5w90v9gemmo","34","[""White""]","No","Male","1409355.5","null","","<p></p>","null","rating","cdt","repulsion_2","1","laptops","null","null","null","null","null","null","2","","","","","","","","","",""
"","","","","","rating_trial","survey-html-form","44","781892","0.0-3.0-1.20","208","1","2025-04-14 15:14:53","bb671e3ae32f654b8954ea4c4635f915","","Mozilla/5.0 (Windows NT 10.0; Win64; x64) AppleWebKit/537.36 (KHTML, like Gecko) Chrome/133.0.0.0 Safari/537.36","WebKit","Chrome","133.0.0.0","Windows","10.0","https://hz8g1ckzuq.cognition.run/","en-US,en;q=0.9","wn0q5w90v9gemmo","34","[""White""]","No","Male","1409355.5","13025","","","{""price_1"":""130"",""price_2"":""100"",""price_3"":""100""}","rating","cdt","repulsion_2","1","laptops","null","null","null","null","null","null","2","100","90","100","30","40","20","Processing speed","Memory (RAM)","",""
"","","","","","rating_trial_setup","html-keyboard-response","45","782195","0.0-3.0-0.21","208","1","2025-04-14 15:14:53","bb671e3ae32f654b8954ea4c4635f915","","Mozilla/5.0 (Windows NT 10.0; Win64; x64) AppleWebKit/537.36 (KHTML, like Gecko) Chrome/133.0.0.0 Safari/537.36","WebKit","Chrome","133.0.0.0","Windows","10.0","https://hz8g1ckzuq.cognition.run/","en-US,en;q=0.9","wn0q5w90v9gemmo","34","[""White""]","No","Male","1409355.5","null","","<p></p>","null","rating","tcd","repulsion_1","2","washing machines","null","null","null","null","null","null","1","","","","","","","","","",""
"","","","","","rating_trial","survey-html-form","46","791475","0.0-3.0-1.21","208","1","2025-04-14 15:14:53","bb671e3ae32f654b8954ea4c4635f915","","Mozilla/5.0 (Windows NT 10.0; Win64; x64) AppleWebKit/537.36 (KHTML, like Gecko) Chrome/133.0.0.0 Safari/537.36","WebKit","Chrome","133.0.0.0","Windows","10.0","https://hz8g1ckzuq.cognition.run/","en-US,en;q=0.9","wn0q5w90v9gemmo","34","[""White""]","No","Male","1409355.5","9273","","","{""price_1"":""120"",""price_2"":""100"",""price_3"":""100""}","rating","tcd","repulsion_1","2","washing machines","null","null","null","null","null","null","1","30","40","25","100","90","100","Average lifespan","Energy savings","",""
"","","","","","rating_trial_setup","html-keyboard-response","47","791786","0.0-3.0-0.22","208","1","2025-04-14 15:14:53","bb671e3ae32f654b8954ea4c4635f915","","Mozilla/5.0 (Windows NT 10.0; Win64; x64) AppleWebKit/537.36 (KHTML, like Gecko) Chrome/133.0.0.0 Safari/537.36","WebKit","Chrome","133.0.0.0","Windows","10.0","https://hz8g1ckzuq.cognition.run/","en-US,en;q=0.9","wn0q5w90v9gemmo","34","[""White""]","No","Male","1409355.5","null","","<p></p>","null","rating","dct","attraction_1","2","microwave ovens","null","null","null","null","null","null","1","","","","","","","","","",""
"","","","","","rating_trial","survey-html-form","48","809746","0.0-3.0-1.22","208","1","2025-04-14 15:14:53","bb671e3ae32f654b8954ea4c4635f915","","Mozilla/5.0 (Windows NT 10.0; Win64; x64) AppleWebKit/537.36 (KHTML, like Gecko) Chrome/133.0.0.0 Safari/537.36","WebKit","Chrome","133.0.0.0","Windows","10.0","https://hz8g1ckzuq.cognition.run/","en-US,en;q=0.9","wn0q5w90v9gemmo","34","[""White""]","No","Male","1409355.5","17951","","","{""price_1"":""50"",""price_2"":""70"",""price_3"":""75""}","rating","dct","attraction_1","2","microwave ovens","null","null","null","null","null","null","1","50","60","45","60","50","60","Warranty","Cooking power","",""
"","","","","","rating_trial_setup","html-keyboard-response","49","810059","0.0-3.0-0.23","208","1","2025-04-14 15:14:53","bb671e3ae32f654b8954ea4c4635f915","","Mozilla/5.0 (Windows NT 10.0; Win64; x64) AppleWebKit/537.36 (KHTML, like Gecko) Chrome/133.0.0.0 Safari/537.36","WebKit","Chrome","133.0.0.0","Windows","10.0","https://hz8g1ckzuq.cognition.run/","en-US,en;q=0.9","wn0q5w90v9gemmo","34","[""White""]","No","Male","1409355.5","null","","<p></p>","null","rating","dtc","repulsion_2","2","laptops","null","null","null","null","null","null","1","","","","","","","","","",""
"","","","","","rating_trial","survey-html-form","50","823228","0.0-3.0-1.23","208","1","2025-04-14 15:14:53","bb671e3ae32f654b8954ea4c4635f915","","Mozilla/5.0 (Windows NT 10.0; Win64; x64) AppleWebKit/537.36 (KHTML, like Gecko) Chrome/133.0.0.0 Safari/537.36","WebKit","Chrome","133.0.0.0","Windows","10.0","https://hz8g1ckzuq.cognition.run/","en-US,en;q=0.9","wn0q5w90v9gemmo","34","[""White""]","No","Male","1409355.5","13159","","","{""price_1"":""50"",""price_2"":""70"",""price_3"":""75""}","rating","dtc","repulsion_2","2","laptops","null","null","null","null","null","null","1","30","40","20","100","90","100","Processing speed","Memory (RAM)","",""
"","","","","","rating_trial_setup","html-keyboard-response","51","823537","0.0-3.0-0.24","208","1","2025-04-14 15:14:53","bb671e3ae32f654b8954ea4c4635f915","","Mozilla/5.0 (Windows NT 10.0; Win64; x64) AppleWebKit/537.36 (KHTML, like Gecko) Chrome/133.0.0.0 Safari/537.36","WebKit","Chrome","133.0.0.0","Windows","10.0","https://hz8g1ckzuq.cognition.run/","en-US,en;q=0.9","wn0q5w90v9gemmo","34","[""White""]","No","Male","1409355.5","null","","<p></p>","null","rating","tcd","repulsion_1","2","laptops","null","null","null","null","null","null","1","","","","","","","","","",""
"","","","","","rating_trial","survey-html-form","52","836586","0.0-3.0-1.24","208","1","2025-04-14 15:14:53","bb671e3ae32f654b8954ea4c4635f915","","Mozilla/5.0 (Windows NT 10.0; Win64; x64) AppleWebKit/537.36 (KHTML, like Gecko) Chrome/133.0.0.0 Safari/537.36","WebKit","Chrome","133.0.0.0","Windows","10.0","https://hz8g1ckzuq.cognition.run/","en-US,en;q=0.9","wn0q5w90v9gemmo","34","[""White""]","No","Male","1409355.5","13043","","","{""price_1"":""70"",""price_2"":""70"",""price_3"":""70""}","rating","tcd","repulsion_1","2","laptops","null","null","null","null","null","null","1","30","40","25","100","90","100","Processing speed","Memory (RAM)","",""
"","","","","","rating_trial_setup","html-keyboard-response","53","836898","0.0-3.0-0.25","208","1","2025-04-14 15:14:53","bb671e3ae32f654b8954ea4c4635f915","","Mozilla/5.0 (Windows NT 10.0; Win64; x64) AppleWebKit/537.36 (KHTML, like Gecko) Chrome/133.0.0.0 Safari/537.36","WebKit","Chrome","133.0.0.0","Windows","10.0","https://hz8g1ckzuq.cognition.run/","en-US,en;q=0.9","wn0q5w90v9gemmo","34","[""White""]","No","Male","1409355.5","null","","<p></p>","null","rating","dct","attraction_2","2","microwave ovens","null","null","null","null","null","null","1","","","","","","","","","",""
"","","","","","rating_trial","survey-html-form","54","851843","0.0-3.0-1.25","208","1","2025-04-14 15:14:53","bb671e3ae32f654b8954ea4c4635f915","","Mozilla/5.0 (Windows NT 10.0; Win64; x64) AppleWebKit/537.36 (KHTML, like Gecko) Chrome/133.0.0.0 Safari/537.36","WebKit","Chrome","133.0.0.0","Windows","10.0","https://hz8g1ckzuq.cognition.run/","en-US,en;q=0.9","wn0q5w90v9gemmo","34","[""White""]","No","Male","1409355.5","14938","","","{""price_1"":""70"",""price_2"":""75"",""price_3"":""75""}","rating","dct","attraction_2","2","microwave ovens","null","null","null","null","null","null","1","50","60","40","60","50","60","Warranty","Cooking power","",""
"","","","","","rating_trial_setup","html-keyboard-response","55","852154","0.0-3.0-0.26","208","1","2025-04-14 15:14:53","bb671e3ae32f654b8954ea4c4635f915","","Mozilla/5.0 (Windows NT 10.0; Win64; x64) AppleWebKit/537.36 (KHTML, like Gecko) Chrome/133.0.0.0 Safari/537.36","WebKit","Chrome","133.0.0.0","Windows","10.0","https://hz8g1ckzuq.cognition.run/","en-US,en;q=0.9","wn0q5w90v9gemmo","34","[""White""]","No","Male","1409355.5","null","","<p></p>","null","rating","dct","attraction_1","1","microwave ovens","null","null","null","null","null","null","1","","","","","","","","","",""
"","","","","","rating_trial","survey-html-form","56","864833","0.0-3.0-1.26","208","1","2025-04-14 15:14:53","bb671e3ae32f654b8954ea4c4635f915","","Mozilla/5.0 (Windows NT 10.0; Win64; x64) AppleWebKit/537.36 (KHTML, like Gecko) Chrome/133.0.0.0 Safari/537.36","WebKit","Chrome","133.0.0.0","Windows","10.0","https://hz8g1ckzuq.cognition.run/","en-US,en;q=0.9","wn0q5w90v9gemmo","34","[""White""]","No","Male","1409355.5","12669","","","{""price_1"":""70"",""price_2"":""75"",""price_3"":""75""}","rating","dct","attraction_1","1","microwave ovens","null","null","null","null","null","null","1","60","50","60","50","60","45","Warranty","Cooking power","",""
"","","","","","rating_trial_setup","html-keyboard-response","57","865152","0.0-3.0-0.27","208","1","2025-04-14 15:14:53","bb671e3ae32f654b8954ea4c4635f915","","Mozilla/5.0 (Windows NT 10.0; Win64; x64) AppleWebKit/537.36 (KHTML, like Gecko) Chrome/133.0.0.0 Safari/537.36","WebKit","Chrome","133.0.0.0","Windows","10.0","https://hz8g1ckzuq.cognition.run/","en-US,en;q=0.9","wn0q5w90v9gemmo","34","[""White""]","No","Male","1409355.5","null","","<p></p>","null","rating","ctd","repulsion_2","1","microwave ovens","null","null","null","null","null","null","2","","","","","","","","","",""
"","","","","","rating_trial","survey-html-form","58","879994","0.0-3.0-1.27","208","1","2025-04-14 15:14:53","bb671e3ae32f654b8954ea4c4635f915","","Mozilla/5.0 (Windows NT 10.0; Win64; x64) AppleWebKit/537.36 (KHTML, like Gecko) Chrome/133.0.0.0 Safari/537.36","WebKit","Chrome","133.0.0.0","Windows","10.0","https://hz8g1ckzuq.cognition.run/","en-US,en;q=0.9","wn0q5w90v9gemmo","34","[""White""]","No","Male","1409355.5","14831","","","{""price_1"":""80"",""price_2"":""75"",""price_3"":""65""}","rating","ctd","repulsion_2","1","microwave ovens","null","null","null","null","null","null","2","100","90","100","30","40","20","Warranty","Cooking power","",""
"","","","","","rating_trial_setup","html-keyboard-response","59","880298","0.0-3.0-0.28","208","1","2025-04-14 15:14:53","bb671e3ae32f654b8954ea4c4635f915","","Mozilla/5.0 (Windows NT 10.0; Win64; x64) AppleWebKit/537.36 (KHTML, like Gecko) Chrome/133.0.0.0 Safari/537.36","WebKit","Chrome","133.0.0.0","Windows","10.0","https://hz8g1ckzuq.cognition.run/","en-US,en;q=0.9","wn0q5w90v9gemmo","34","[""White""]","No","Male","1409355.5","null","","<p></p>","null","rating","ctd","repulsion_1","1","washing machines","null","null","null","null","null","null","1","","","","","","","","","",""
"","","","","","rating_trial","survey-html-form","60","895391","0.0-3.0-1.28","208","1","2025-04-14 15:14:53","bb671e3ae32f654b8954ea4c4635f915","","Mozilla/5.0 (Windows NT 10.0; Win64; x64) AppleWebKit/537.36 (KHTML, like Gecko) Chrome/133.0.0.0 Safari/537.36","WebKit","Chrome","133.0.0.0","Windows","10.0","https://hz8g1ckzuq.cognition.run/","en-US,en;q=0.9","wn0q5w90v9gemmo","34","[""White""]","No","Male","1409355.5","15084","","","{""price_1"":""60"",""price_2"":""060"",""price_3"":""55""}","rating","ctd","repulsion_1","1","washing machines","null","null","null","null","null","null","1","100","90","100","30","40","25","Average lifespan","Energy savings","",""
"","","","","","rating_trial_setup","html-keyboard-response","61","895707","0.0-3.0-0.29","208","1","2025-04-14 15:14:53","bb671e3ae32f654b8954ea4c4635f915","","Mozilla/5.0 (Windows NT 10.0; Win64; x64) AppleWebKit/537.36 (KHTML, like Gecko) Chrome/133.0.0.0 Safari/537.36","WebKit","Chrome","133.0.0.0","Windows","10.0","https://hz8g1ckzuq.cognition.run/","en-US,en;q=0.9","wn0q5w90v9gemmo","34","[""White""]","No","Male","1409355.5","null","","<p></p>","null","rating","wwb","catch","null","washing machines","70","95","5","5","50","10","1","","","","","","","","","",""
"","","","","","rating_trial","survey-html-form","62","913712","0.0-3.0-1.29","208","1","2025-04-14 15:14:53","bb671e3ae32f654b8954ea4c4635f915","","Mozilla/5.0 (Windows NT 10.0; Win64; x64) AppleWebKit/537.36 (KHTML, like Gecko) Chrome/133.0.0.0 Safari/537.36","WebKit","Chrome","133.0.0.0","Windows","10.0","https://hz8g1ckzuq.cognition.run/","en-US,en;q=0.9","wn0q5w90v9gemmo","34","[""White""]","No","Male","1409355.5","18000","","","{""price_1"":""5"",""price_2"":""10"",""price_3"":""250""}","rating","wwb","catch","null","washing machines","70","95","5","5","50","10","1","null","null","null","null","null","null","Average lifespan","Energy savings","",""
"","","","","","rating_trial_setup","html-keyboard-response","63","914016","0.0-3.0-0.30","208","1","2025-04-14 15:14:53","bb671e3ae32f654b8954ea4c4635f915","","Mozilla/5.0 (Windows NT 10.0; Win64; x64) AppleWebKit/537.36 (KHTML, like Gecko) Chrome/133.0.0.0 Safari/537.36","WebKit","Chrome","133.0.0.0","Windows","10.0","https://hz8g1ckzuq.cognition.run/","en-US,en;q=0.9","wn0q5w90v9gemmo","34","[""White""]","No","Male","1409355.5","null","","<p></p>","null","rating","dct","repulsion_1","1","televisions","null","null","null","null","null","null","2","","","","","","","","","",""
"","","","","","rating_trial","survey-html-form","64","933626","0.0-3.0-1.30","208","1","2025-04-14 15:14:53","bb671e3ae32f654b8954ea4c4635f915","","Mozilla/5.0 (Windows NT 10.0; Win64; x64) AppleWebKit/537.36 (KHTML, like Gecko) Chrome/133.0.0.0 Safari/537.36","WebKit","Chrome","133.0.0.0","Windows","10.0","https://hz8g1ckzuq.cognition.run/","en-US,en;q=0.9","wn0q5w90v9gemmo","34","[""White""]","No","Male","1409355.5","19602","","","{""price_1"":""80"",""price_2"":""80"",""price_3"":""80""}","rating","dct","repulsion_1","1","televisions","null","null","null","null","null","null","2","100","90","100","30","40","25","Screen size","Average lifespan","",""
"","","","","","rating_trial_setup","html-keyboard-response","65","933939","0.0-3.0-0.31","208","1","2025-04-14 15:14:53","bb671e3ae32f654b8954ea4c4635f915","","Mozilla/5.0 (Windows NT 10.0; Win64; x64) AppleWebKit/537.36 (KHTML, like Gecko) Chrome/133.0.0.0 Safari/537.36","WebKit","Chrome","133.0.0.0","Windows","10.0","https://hz8g1ckzuq.cognition.run/","en-US,en;q=0.9","wn0q5w90v9gemmo","34","[""White""]","No","Male","1409355.5","null","","<p></p>","null","rating","dct","attraction_1","2","laptops","null","null","null","null","null","null","2","","","","","","","","","",""
"","","","","","rating_trial","survey-html-form","66","949270","0.0-3.0-1.31","208","1","2025-04-14 15:14:53","bb671e3ae32f654b8954ea4c4635f915","","Mozilla/5.0 (Windows NT 10.0; Win64; x64) AppleWebKit/537.36 (KHTML, like Gecko) Chrome/133.0.0.0 Safari/537.36","WebKit","Chrome","133.0.0.0","Windows","10.0","https://hz8g1ckzuq.cognition.run/","en-US,en;q=0.9","wn0q5w90v9gemmo","34","[""White""]","No","Male","1409355.5","15321","","","{""price_1"":""80"",""price_2"":""100"",""price_3"":""100""}","rating","dct","attraction_1","2","laptops","null","null","null","null","null","null","2","50","60","45","60","50","60","Processing speed","Memory (RAM)","",""
"","","","","","rating_trial_setup","html-keyboard-response","67","949579","0.0-3.0-0.32","208","1","2025-04-14 15:14:53","bb671e3ae32f654b8954ea4c4635f915","","Mozilla/5.0 (Windows NT 10.0; Win64; x64) AppleWebKit/537.36 (KHTML, like Gecko) Chrome/133.0.0.0 Safari/537.36","WebKit","Chrome","133.0.0.0","Windows","10.0","https://hz8g1ckzuq.cognition.run/","en-US,en;q=0.9","wn0q5w90v9gemmo","34","[""White""]","No","Male","1409355.5","null","","<p></p>","null","rating","tdc","repulsion_2","2","washing machines","null","null","null","null","null","null","1","","","","","","","","","",""
"","","","","","rating_trial","survey-html-form","68","965070","0.0-3.0-1.32","208","1","2025-04-14 15:14:53","bb671e3ae32f654b8954ea4c4635f915","","Mozilla/5.0 (Windows NT 10.0; Win64; x64) AppleWebKit/537.36 (KHTML, like Gecko) Chrome/133.0.0.0 Safari/537.36","WebKit","Chrome","133.0.0.0","Windows","10.0","https://hz8g1ckzuq.cognition.run/","en-US,en;q=0.9","wn0q5w90v9gemmo","34","[""White""]","No","Male","1409355.5","15481","","","{""price_1"":""110"",""price_2"":""110"",""price_3"":""110""}","rating","tdc","repulsion_2","2","washing machines","null","null","null","null","null","null","1","30","40","20","100","90","100","Average lifespan","Energy savings","",""
"","","","","","rating_trial_setup","html-keyboard-response","69","965382","0.0-3.0-0.33","208","1","2025-04-14 15:14:53","bb671e3ae32f654b8954ea4c4635f915","","Mozilla/5.0 (Windows NT 10.0; Win64; x64) AppleWebKit/537.36 (KHTML, like Gecko) Chrome/133.0.0.0 Safari/537.36","WebKit","Chrome","133.0.0.0","Windows","10.0","https://hz8g1ckzuq.cognition.run/","en-US,en;q=0.9","wn0q5w90v9gemmo","34","[""White""]","No","Male","1409355.5","null","","<p></p>","null","rating","wbw","catch","null","televisions","60","90","50","5","10","15","2","","","","","","","","","",""
"","","","","","rating_trial","survey-html-form","70","982634","0.0-3.0-1.33","208","1","2025-04-14 15:14:53","bb671e3ae32f654b8954ea4c4635f915","","Mozilla/5.0 (Windows NT 10.0; Win64; x64) AppleWebKit/537.36 (KHTML, like Gecko) Chrome/133.0.0.0 Safari/537.36","WebKit","Chrome","133.0.0.0","Windows","10.0","https://hz8g1ckzuq.cognition.run/","en-US,en;q=0.9","wn0q5w90v9gemmo","34","[""White""]","No","Male","1409355.5","17241","","","{""price_1"":""10"",""price_2"":""120"",""price_3"":""5""}","rating","wbw","catch","null","televisions","60","90","50","5","10","15","2","null","null","null","null","null","null","Screen size","Average lifespan","",""
"","","","","","rating_trial_setup","html-keyboard-response","71","982948","0.0-3.0-0.34","208","1","2025-04-14 15:14:53","bb671e3ae32f654b8954ea4c4635f915","","Mozilla/5.0 (Windows NT 10.0; Win64; x64) AppleWebKit/537.36 (KHTML, like Gecko) Chrome/133.0.0.0 Safari/537.36","WebKit","Chrome","133.0.0.0","Windows","10.0","https://hz8g1ckzuq.cognition.run/","en-US,en;q=0.9","wn0q5w90v9gemmo","34","[""White""]","No","Male","1409355.5","null","","<p></p>","null","rating","wbw","catch","null","laptops","55","95","20","35","15","35","1","","","","","","","","","",""
"","","","","","rating_trial","survey-html-form","72","994806","0.0-3.0-1.34","208","1","2025-04-14 15:14:53","bb671e3ae32f654b8954ea4c4635f915","","Mozilla/5.0 (Windows NT 10.0; Win64; x64) AppleWebKit/537.36 (KHTML, like Gecko) Chrome/133.0.0.0 Safari/537.36","WebKit","Chrome","133.0.0.0","Windows","10.0","https://hz8g1ckzuq.cognition.run/","en-US,en;q=0.9","wn0q5w90v9gemmo","34","[""White""]","No","Male","1409355.5","11849","","","{""price_1"":""10"",""price_2"":""130"",""price_3"":""15""}","rating","wbw","catch","null","laptops","55","95","20","35","15","35","1","null","null","null","null","null","null","Processing speed","Memory (RAM)","",""
"","","","","","rating_trial_setup","html-keyboard-response","73","995112","0.0-3.0-0.35","208","1","2025-04-14 15:14:53","bb671e3ae32f654b8954ea4c4635f915","","Mozilla/5.0 (Windows NT 10.0; Win64; x64) AppleWebKit/537.36 (KHTML, like Gecko) Chrome/133.0.0.0 Safari/537.36","WebKit","Chrome","133.0.0.0","Windows","10.0","https://hz8g1ckzuq.cognition.run/","en-US,en;q=0.9","wn0q5w90v9gemmo","34","[""White""]","No","Male","1409355.5","null","","<p></p>","null","rating","ctd","attraction_2","1","washing machines","null","null","null","null","null","null","1","","","","","","","","","",""
"","","","","","rating_trial","survey-html-form","74","1008412","0.0-3.0-1.35","208","1","2025-04-14 15:14:53","bb671e3ae32f654b8954ea4c4635f915","","Mozilla/5.0 (Windows NT 10.0; Win64; x64) AppleWebKit/537.36 (KHTML, like Gecko) Chrome/133.0.0.0 Safari/537.36","WebKit","Chrome","133.0.0.0","Windows","10.0","https://hz8g1ckzuq.cognition.run/","en-US,en;q=0.9","wn0q5w90v9gemmo","34","[""White""]","No","Male","1409355.5","13289","","","{""price_1"":""80"",""price_2"":""80"",""price_3"":""70""}","rating","ctd","attraction_2","1","washing machines","null","null","null","null","null","null","1","60","50","60","50","60","40","Average lifespan","Energy savings","",""
"","","","","","rating_trial_setup","html-keyboard-response","75","1008717","0.0-3.0-0.36","208","1","2025-04-14 15:14:53","bb671e3ae32f654b8954ea4c4635f915","","Mozilla/5.0 (Windows NT 10.0; Win64; x64) AppleWebKit/537.36 (KHTML, like Gecko) Chrome/133.0.0.0 Safari/537.36","WebKit","Chrome","133.0.0.0","Windows","10.0","https://hz8g1ckzuq.cognition.run/","en-US,en;q=0.9","wn0q5w90v9gemmo","34","[""White""]","No","Male","1409355.5","null","","<p></p>","null","rating","tdc","repulsion_2","2","microwave ovens","null","null","null","null","null","null","2","","","","","","","","","",""
"","","","","","rating_trial","survey-html-form","76","1022686","0.0-3.0-1.36","208","1","2025-04-14 15:14:53","bb671e3ae32f654b8954ea4c4635f915","","Mozilla/5.0 (Windows NT 10.0; Win64; x64) AppleWebKit/537.36 (KHTML, like Gecko) Chrome/133.0.0.0 Safari/537.36","WebKit","Chrome","133.0.0.0","Windows","10.0","https://hz8g1ckzuq.cognition.run/","en-US,en;q=0.9","wn0q5w90v9gemmo","34","[""White""]","No","Male","1409355.5","13959","","","{""price_1"":""80"",""price_2"":""70"",""price_3"":""80""}","rating","tdc","repulsion_2","2","microwave ovens","null","null","null","null","null","null","2","30","40","20","100","90","100","Warranty","Cooking power","",""
"","","","","","rating_trial_setup","html-keyboard-response","77","1023008","0.0-3.0-0.37","208","1","2025-04-14 15:14:53","bb671e3ae32f654b8954ea4c4635f915","","Mozilla/5.0 (Windows NT 10.0; Win64; x64) AppleWebKit/537.36 (KHTML, like Gecko) Chrome/133.0.0.0 Safari/537.36","WebKit","Chrome","133.0.0.0","Windows","10.0","https://hz8g1ckzuq.cognition.run/","en-US,en;q=0.9","wn0q5w90v9gemmo","34","[""White""]","No","Male","1409355.5","null","","<p></p>","null","rating","wwb","catch","null","laptops","90","75","20","10","25","50","1","","","","","","","","","",""
"","","","","","rating_trial","survey-html-form","78","1036622","0.0-3.0-1.37","208","1","2025-04-14 15:14:53","bb671e3ae32f654b8954ea4c4635f915","","Mozilla/5.0 (Windows NT 10.0; Win64; x64) AppleWebKit/537.36 (KHTML, like Gecko) Chrome/133.0.0.0 Safari/537.36","WebKit","Chrome","133.0.0.0","Windows","10.0","https://hz8g1ckzuq.cognition.run/","en-US,en;q=0.9","wn0q5w90v9gemmo","34","[""White""]","No","Male","1409355.5","13603","","","{""price_1"":""5"",""price_2"":""15"",""price_3"":""250""}","rating","wwb","catch","null","laptops","90","75","20","10","25","50","1","null","null","null","null","null","null","Processing speed","Memory (RAM)","",""
"","","","","","rating_trial_setup","html-keyboard-response","79","1036930","0.0-3.0-0.38","208","1","2025-04-14 15:14:53","bb671e3ae32f654b8954ea4c4635f915","","Mozilla/5.0 (Windows NT 10.0; Win64; x64) AppleWebKit/537.36 (KHTML, like Gecko) Chrome/133.0.0.0 Safari/537.36","WebKit","Chrome","133.0.0.0","Windows","10.0","https://hz8g1ckzuq.cognition.run/","en-US,en;q=0.9","wn0q5w90v9gemmo","34","[""White""]","No","Male","1409355.5","null","","<p></p>","null","rating","tcd","attraction_1","2","televisions","null","null","null","null","null","null","1","","","","","","","","","",""
"","","","","","rating_trial","survey-html-form","80","1051182","0.0-3.0-1.38","208","1","2025-04-14 15:14:53","bb671e3ae32f654b8954ea4c4635f915","","Mozilla/5.0 (Windows NT 10.0; Win64; x64) AppleWebKit/537.36 (KHTML, like Gecko) Chrome/133.0.0.0 Safari/537.36","WebKit","Chrome","133.0.0.0","Windows","10.0","https://hz8g1ckzuq.cognition.run/","en-US,en;q=0.9","wn0q5w90v9gemmo","34","[""White""]","No","Male","1409355.5","14243","","","{""price_1"":""80"",""price_2"":""80"",""price_3"":""70""}","rating","tcd","attraction_1","2","televisions","null","null","null","null","null","null","1","50","60","45","60","50","60","Screen size","Average lifespan","",""
"","","","","","rating_trial_setup","html-keyboard-response","81","1051501","0.0-3.0-0.39","208","1","2025-04-14 15:14:53","bb671e3ae32f654b8954ea4c4635f915","","Mozilla/5.0 (Windows NT 10.0; Win64; x64) AppleWebKit/537.36 (KHTML, like Gecko) Chrome/133.0.0.0 Safari/537.36","WebKit","Chrome","133.0.0.0","Windows","10.0","https://hz8g1ckzuq.cognition.run/","en-US,en;q=0.9","wn0q5w90v9gemmo","34","[""White""]","No","Male","1409355.5","null","","<p></p>","null","rating","bww","catch","null","televisions","95","60","5","40","25","25","1","","","","","","","","","",""
"","","","","","rating_trial","survey-html-form","82","1067944","0.0-3.0-1.39","208","1","2025-04-14 15:14:53","bb671e3ae32f654b8954ea4c4635f915","","Mozilla/5.0 (Windows NT 10.0; Win64; x64) AppleWebKit/537.36 (KHTML, like Gecko) Chrome/133.0.0.0 Safari/537.36","WebKit","Chrome","133.0.0.0","Windows","10.0","https://hz8g1ckzuq.cognition.run/","en-US,en;q=0.9","wn0q5w90v9gemmo","34","[""White""]","No","Male","1409355.5","16431","","","{""price_1"":""120"",""price_2"":""12"",""price_3"":""18""}","rating","bww","catch","null","televisions","95","60","5","40","25","25","1","null","null","null","null","null","null","Screen size","Average lifespan","",""
"","","","","","","instructions","83","1129032","0.0-4.0","208","1","2025-04-14 15:14:53","bb671e3ae32f654b8954ea4c4635f915","","Mozilla/5.0 (Windows NT 10.0; Win64; x64) AppleWebKit/537.36 (KHTML, like Gecko) Chrome/133.0.0.0 Safari/537.36","WebKit","Chrome","133.0.0.0","Windows","10.0","https://hz8g1ckzuq.cognition.run/","en-US,en;q=0.9","wn0q5w90v9gemmo","34","[""White""]","No","Male","1409355.5","61082","[{""page_index"":0,""viewing_time"":3238},{""page_index"":1,""viewing_time"":2510},{""page_index"":2,""viewing_time"":4032},{""page_index"":3,""viewing_time"":7106},{""page_index"":4,""viewing_time"":13138},{""page_index"":5,""viewing_time"":5792},{""page_index"":6,""viewing_time"":18168},{""page_index"":7,""viewing_time"":7098}]","","","","","","","","","","","","","","","","","","","","","","","",""
"","","","","","choice_trial_setup","html-keyboard-response","84","1129339","0.0-5.0-0.0","208","1","2025-04-14 15:14:53","bb671e3ae32f654b8954ea4c4635f915","","Mozilla/5.0 (Windows NT 10.0; Win64; x64) AppleWebKit/537.36 (KHTML, like Gecko) Chrome/133.0.0.0 Safari/537.36","WebKit","Chrome","133.0.0.0","Windows","10.0","https://hz8g1ckzuq.cognition.run/","en-US,en;q=0.9","wn0q5w90v9gemmo","34","[""White""]","No","Male","1409355.5","null","","<p></p>","null","choice","wwb","catch","null","microwave ovens","60","65","25","50","50","10","2","","","","","","","","","",""
"","","","","","choice_trial","survey-html-form","85","1135376","0.0-5.0-1.0","208","1","2025-04-14 15:14:53","bb671e3ae32f654b8954ea4c4635f915","","Mozilla/5.0 (Windows NT 10.0; Win64; x64) AppleWebKit/537.36 (KHTML, like Gecko) Chrome/133.0.0.0 Safari/537.36","WebKit","Chrome","133.0.0.0","Windows","10.0","https://hz8g1ckzuq.cognition.run/","en-US,en;q=0.9","wn0q5w90v9gemmo","34","[""White""]","No","Male","1409355.5","6023","","","{""product_choice"":""C""}","choice","wwb","catch","null","microwave ovens","60","65","25","50","50","10","2","null","null","null","null","null","null","Warranty","Cooking power","",""
"","","","","","choice_trial_setup","html-keyboard-response","86","1135698","0.0-5.0-0.1","208","1","2025-04-14 15:14:53","bb671e3ae32f654b8954ea4c4635f915","","Mozilla/5.0 (Windows NT 10.0; Win64; x64) AppleWebKit/537.36 (KHTML, like Gecko) Chrome/133.0.0.0 Safari/537.36","WebKit","Chrome","133.0.0.0","Windows","10.0","https://hz8g1ckzuq.cognition.run/","en-US,en;q=0.9","wn0q5w90v9gemmo","34","[""White""]","No","Male","1409355.5","null","","<p></p>","null","choice","dct","repulsion_1","2","washing machines","null","null","null","null","null","null","2","","","","","","","","","",""
"","","","","","choice_trial","survey-html-form","87","1143860","0.0-5.0-1.1","208","1","2025-04-14 15:14:53","bb671e3ae32f654b8954ea4c4635f915","","Mozilla/5.0 (Windows NT 10.0; Win64; x64) AppleWebKit/537.36 (KHTML, like Gecko) Chrome/133.0.0.0 Safari/537.36","WebKit","Chrome","133.0.0.0","Windows","10.0","https://hz8g1ckzuq.cognition.run/","en-US,en;q=0.9","wn0q5w90v9gemmo","34","[""White""]","No","Male","1409355.5","8152","","","{""product_choice"":""B""}","choice","dct","repulsion_1","2","washing machines","null","null","null","null","null","null","2","30","40","25","100","90","100","Average lifespan","Energy savings","",""
"","","","","","choice_trial_setup","html-keyboard-response","88","1144170","0.0-5.0-0.2","208","1","2025-04-14 15:14:53","bb671e3ae32f654b8954ea4c4635f915","","Mozilla/5.0 (Windows NT 10.0; Win64; x64) AppleWebKit/537.36 (KHTML, like Gecko) Chrome/133.0.0.0 Safari/537.36","WebKit","Chrome","133.0.0.0","Windows","10.0","https://hz8g1ckzuq.cognition.run/","en-US,en;q=0.9","wn0q5w90v9gemmo","34","[""White""]","No","Male","1409355.5","null","","<p></p>","null","choice","dtc","attraction_2","2","laptops","null","null","null","null","null","null","2","","","","","","","","","",""
"","","","","","choice_trial","survey-html-form","89","1150431","0.0-5.0-1.2","208","1","2025-04-14 15:14:53","bb671e3ae32f654b8954ea4c4635f915","","Mozilla/5.0 (Windows NT 10.0; Win64; x64) AppleWebKit/537.36 (KHTML, like Gecko) Chrome/133.0.0.0 Safari/537.36","WebKit","Chrome","133.0.0.0","Windows","10.0","https://hz8g1ckzuq.cognition.run/","en-US,en;q=0.9","wn0q5w90v9gemmo","34","[""White""]","No","Male","1409355.5","6249","","","{""product_choice"":""B""}","choice","dtc","attraction_2","2","laptops","null","null","null","null","null","null","2","50","60","40","60","50","60","Processing speed","Memory (RAM)","",""
"","","","","","choice_trial_setup","html-keyboard-response","90","1150740","0.0-5.0-0.3","208","1","2025-04-14 15:14:53","bb671e3ae32f654b8954ea4c4635f915","","Mozilla/5.0 (Windows NT 10.0; Win64; x64) AppleWebKit/537.36 (KHTML, like Gecko) Chrome/133.0.0.0 Safari/537.36","WebKit","Chrome","133.0.0.0","Windows","10.0","https://hz8g1ckzuq.cognition.run/","en-US,en;q=0.9","wn0q5w90v9gemmo","34","[""White""]","No","Male","1409355.5","null","","<p></p>","null","choice","dtc","attraction_2","1","televisions","null","null","null","null","null","null","1","","","","","","","","","",""
"","","","","","choice_trial","survey-html-form","91","1157448","0.0-5.0-1.3","208","1","2025-04-14 15:14:53","bb671e3ae32f654b8954ea4c4635f915","","Mozilla/5.0 (Windows NT 10.0; Win64; x64) AppleWebKit/537.36 (KHTML, like Gecko) Chrome/133.0.0.0 Safari/537.36","WebKit","Chrome","133.0.0.0","Windows","10.0","https://hz8g1ckzuq.cognition.run/","en-US,en;q=0.9","wn0q5w90v9gemmo","34","[""White""]","No","Male","1409355.5","6699","","","{""product_choice"":""B""}","choice","dtc","attraction_2","1","televisions","null","null","null","null","null","null","1","60","50","60","50","60","40","Screen size","Average lifespan","",""
"","","","","","choice_trial_setup","html-keyboard-response","92","1157756","0.0-5.0-0.4","208","1","2025-04-14 15:14:53","bb671e3ae32f654b8954ea4c4635f915","","Mozilla/5.0 (Windows NT 10.0; Win64; x64) AppleWebKit/537.36 (KHTML, like Gecko) Chrome/133.0.0.0 Safari/537.36","WebKit","Chrome","133.0.0.0","Windows","10.0","https://hz8g1ckzuq.cognition.run/","en-US,en;q=0.9","wn0q5w90v9gemmo","34","[""White""]","No","Male","1409355.5","null","","<p></p>","null","choice","cdt","repulsion_2","2","microwave ovens","null","null","null","null","null","null","1","","","","","","","","","",""
"","","","","","choice_trial","survey-html-form","93","1163216","0.0-5.0-1.4","208","1","2025-04-14 15:14:53","bb671e3ae32f654b8954ea4c4635f915","","Mozilla/5.0 (Windows NT 10.0; Win64; x64) AppleWebKit/537.36 (KHTML, like Gecko) Chrome/133.0.0.0 Safari/537.36","WebKit","Chrome","133.0.0.0","Windows","10.0","https://hz8g1ckzuq.cognition.run/","en-US,en;q=0.9","wn0q5w90v9gemmo","34","[""White""]","No","Male","1409355.5","5450","","","{""product_choice"":""A""}","choice","cdt","repulsion_2","2","microwave ovens","null","null","null","null","null","null","1","30","40","20","100","90","100","Warranty","Cooking power","",""
"","","","","","choice_trial_setup","html-keyboard-response","94","1163528","0.0-5.0-0.5","208","1","2025-04-14 15:14:53","bb671e3ae32f654b8954ea4c4635f915","","Mozilla/5.0 (Windows NT 10.0; Win64; x64) AppleWebKit/537.36 (KHTML, like Gecko) Chrome/133.0.0.0 Safari/537.36","WebKit","Chrome","133.0.0.0","Windows","10.0","https://hz8g1ckzuq.cognition.run/","en-US,en;q=0.9","wn0q5w90v9gemmo","34","[""White""]","No","Male","1409355.5","null","","<p></p>","null","choice","dct","attraction_2","1","laptops","null","null","null","null","null","null","1","","","","","","","","","",""
"","","","","","choice_trial","survey-html-form","95","1171364","0.0-5.0-1.5","208","1","2025-04-14 15:14:53","bb671e3ae32f654b8954ea4c4635f915","","Mozilla/5.0 (Windows NT 10.0; Win64; x64) AppleWebKit/537.36 (KHTML, like Gecko) Chrome/133.0.0.0 Safari/537.36","WebKit","Chrome","133.0.0.0","Windows","10.0","https://hz8g1ckzuq.cognition.run/","en-US,en;q=0.9","wn0q5w90v9gemmo","34","[""White""]","No","Male","1409355.5","7824","","","{""product_choice"":""B""}","choice","dct","attraction_2","1","laptops","null","null","null","null","null","null","1","60","50","60","50","60","40","Processing speed","Memory (RAM)","",""
"","","","","","choice_trial_setup","html-keyboard-response","96","1171678","0.0-5.0-0.6","208","1","2025-04-14 15:14:53","bb671e3ae32f654b8954ea4c4635f915","","Mozilla/5.0 (Windows NT 10.0; Win64; x64) AppleWebKit/537.36 (KHTML, like Gecko) Chrome/133.0.0.0 Safari/537.36","WebKit","Chrome","133.0.0.0","Windows","10.0","https://hz8g1ckzuq.cognition.run/","en-US,en;q=0.9","wn0q5w90v9gemmo","34","[""White""]","No","Male","1409355.5","null","","<p></p>","null","choice","wbw","catch","null","laptops","75","50","15","30","15","25","2","","","","","","","","","",""
"","","","","","choice_trial","survey-html-form","97","1179102","0.0-5.0-1.6","208","1","2025-04-14 15:14:53","bb671e3ae32f654b8954ea4c4635f915","","Mozilla/5.0 (Windows NT 10.0; Win64; x64) AppleWebKit/537.36 (KHTML, like Gecko) Chrome/133.0.0.0 Safari/537.36","WebKit","Chrome","133.0.0.0","Windows","10.0","https://hz8g1ckzuq.cognition.run/","en-US,en;q=0.9","wn0q5w90v9gemmo","34","[""White""]","No","Male","1409355.5","7413","","","{""product_choice"":""B""}","choice","wbw","catch","null","laptops","75","50","15","30","15","25","2","null","null","null","null","null","null","Processing speed","Memory (RAM)","",""
"","","","","","choice_trial_setup","html-keyboard-response","98","1179418","0.0-5.0-0.7","208","1","2025-04-14 15:14:53","bb671e3ae32f654b8954ea4c4635f915","","Mozilla/5.0 (Windows NT 10.0; Win64; x64) AppleWebKit/537.36 (KHTML, like Gecko) Chrome/133.0.0.0 Safari/537.36","WebKit","Chrome","133.0.0.0","Windows","10.0","https://hz8g1ckzuq.cognition.run/","en-US,en;q=0.9","wn0q5w90v9gemmo","34","[""White""]","No","Male","1409355.5","null","","<p></p>","null","choice","cdt","repulsion_2","1","microwave ovens","null","null","null","null","null","null","1","","","","","","","","","",""
"","","","","","choice_trial","survey-html-form","99","1184190","0.0-5.0-1.7","208","1","2025-04-14 15:14:53","bb671e3ae32f654b8954ea4c4635f915","","Mozilla/5.0 (Windows NT 10.0; Win64; x64) AppleWebKit/537.36 (KHTML, like Gecko) Chrome/133.0.0.0 Safari/537.36","WebKit","Chrome","133.0.0.0","Windows","10.0","https://hz8g1ckzuq.cognition.run/","en-US,en;q=0.9","wn0q5w90v9gemmo","34","[""White""]","No","Male","1409355.5","4761","","","{""product_choice"":""A""}","choice","cdt","repulsion_2","1","microwave ovens","null","null","null","null","null","null","1","100","90","100","30","40","20","Warranty","Cooking power","",""
"","","","","","choice_trial_setup","html-keyboard-response","100","1184496","0.0-5.0-0.8","208","1","2025-04-14 15:14:53","bb671e3ae32f654b8954ea4c4635f915","","Mozilla/5.0 (Windows NT 10.0; Win64; x64) AppleWebKit/537.36 (KHTML, like Gecko) Chrome/133.0.0.0 Safari/537.36","WebKit","Chrome","133.0.0.0","Windows","10.0","https://hz8g1ckzuq.cognition.run/","en-US,en;q=0.9","wn0q5w90v9gemmo","34","[""White""]","No","Male","1409355.5","null","","<p></p>","null","choice","ctd","repulsion_2","2","televisions","null","null","null","null","null","null","2","","","","","","","","","",""
"","","","","","choice_trial","survey-html-form","101","1190190","0.0-5.0-1.8","208","1","2025-04-14 15:14:53","bb671e3ae32f654b8954ea4c4635f915","","Mozilla/5.0 (Windows NT 10.0; Win64; x64) AppleWebKit/537.36 (KHTML, like Gecko) Chrome/133.0.0.0 Safari/537.36","WebKit","Chrome","133.0.0.0","Windows","10.0","https://hz8g1ckzuq.cognition.run/","en-US,en;q=0.9","wn0q5w90v9gemmo","34","[""White""]","No","Male","1409355.5","5684","","","{""product_choice"":""A""}","choice","ctd","repulsion_2","2","televisions","null","null","null","null","null","null","2","30","40","20","100","90","100","Screen size","Average lifespan","",""
"","","","","","choice_trial_setup","html-keyboard-response","102","1190502","0.0-5.0-0.9","208","1","2025-04-14 15:14:53","bb671e3ae32f654b8954ea4c4635f915","","Mozilla/5.0 (Windows NT 10.0; Win64; x64) AppleWebKit/537.36 (KHTML, like Gecko) Chrome/133.0.0.0 Safari/537.36","WebKit","Chrome","133.0.0.0","Windows","10.0","https://hz8g1ckzuq.cognition.run/","en-US,en;q=0.9","wn0q5w90v9gemmo","34","[""White""]","No","Male","1409355.5","null","","<p></p>","null","choice","tcd","attraction_1","2","televisions","null","null","null","null","null","null","1","","","","","","","","","",""
"","","","","","choice_trial","survey-html-form","103","1196792","0.0-5.0-1.9","208","1","2025-04-14 15:14:53","bb671e3ae32f654b8954ea4c4635f915","","Mozilla/5.0 (Windows NT 10.0; Win64; x64) AppleWebKit/537.36 (KHTML, like Gecko) Chrome/133.0.0.0 Safari/537.36","WebKit","Chrome","133.0.0.0","Windows","10.0","https://hz8g1ckzuq.cognition.run/","en-US,en;q=0.9","wn0q5w90v9gemmo","34","[""White""]","No","Male","1409355.5","6280","","","{""product_choice"":""A""}","choice","tcd","attraction_1","2","televisions","null","null","null","null","null","null","1","50","60","45","60","50","60","Screen size","Average lifespan","",""
"","","","","","choice_trial_setup","html-keyboard-response","104","1197100","0.0-5.0-0.10","208","1","2025-04-14 15:14:53","bb671e3ae32f654b8954ea4c4635f915","","Mozilla/5.0 (Windows NT 10.0; Win64; x64) AppleWebKit/537.36 (KHTML, like Gecko) Chrome/133.0.0.0 Safari/537.36","WebKit","Chrome","133.0.0.0","Windows","10.0","https://hz8g1ckzuq.cognition.run/","en-US,en;q=0.9","wn0q5w90v9gemmo","34","[""White""]","No","Male","1409355.5","null","","<p></p>","null","choice","dct","repulsion_2","1","laptops","null","null","null","null","null","null","1","","","","","","","","","",""
"","","","","","choice_trial","survey-html-form","105","1207408","0.0-5.0-1.10","208","1","2025-04-14 15:14:53","bb671e3ae32f654b8954ea4c4635f915","","Mozilla/5.0 (Windows NT 10.0; Win64; x64) AppleWebKit/537.36 (KHTML, like Gecko) Chrome/133.0.0.0 Safari/537.36","WebKit","Chrome","133.0.0.0","Windows","10.0","https://hz8g1ckzuq.cognition.run/","en-US,en;q=0.9","wn0q5w90v9gemmo","34","[""White""]","No","Male","1409355.5","10295","","","{""product_choice"":""B""}","choice","dct","repulsion_2","1","laptops","null","null","null","null","null","null","1","100","90","100","30","40","20","Processing speed","Memory (RAM)","",""
"","","","","","choice_trial_setup","html-keyboard-response","106","1207715","0.0-5.0-0.11","208","1","2025-04-14 15:14:53","bb671e3ae32f654b8954ea4c4635f915","","Mozilla/5.0 (Windows NT 10.0; Win64; x64) AppleWebKit/537.36 (KHTML, like Gecko) Chrome/133.0.0.0 Safari/537.36","WebKit","Chrome","133.0.0.0","Windows","10.0","https://hz8g1ckzuq.cognition.run/","en-US,en;q=0.9","wn0q5w90v9gemmo","34","[""White""]","No","Male","1409355.5","null","","<p></p>","null","choice","ctd","repulsion_2","1","televisions","null","null","null","null","null","null","1","","","","","","","","","",""
"","","","","","choice_trial","survey-html-form","107","1211174","0.0-5.0-1.11","208","1","2025-04-14 15:14:53","bb671e3ae32f654b8954ea4c4635f915","","Mozilla/5.0 (Windows NT 10.0; Win64; x64) AppleWebKit/537.36 (KHTML, like Gecko) Chrome/133.0.0.0 Safari/537.36","WebKit","Chrome","133.0.0.0","Windows","10.0","https://hz8g1ckzuq.cognition.run/","en-US,en;q=0.9","wn0q5w90v9gemmo","34","[""White""]","No","Male","1409355.5","3447","","","{""product_choice"":""A""}","choice","ctd","repulsion_2","1","televisions","null","null","null","null","null","null","1","100","90","100","30","40","20","Screen size","Average lifespan","",""
"","","","","","choice_trial_setup","html-keyboard-response","108","1211483","0.0-5.0-0.12","208","1","2025-04-14 15:14:53","bb671e3ae32f654b8954ea4c4635f915","","Mozilla/5.0 (Windows NT 10.0; Win64; x64) AppleWebKit/537.36 (KHTML, like Gecko) Chrome/133.0.0.0 Safari/537.36","WebKit","Chrome","133.0.0.0","Windows","10.0","https://hz8g1ckzuq.cognition.run/","en-US,en;q=0.9","wn0q5w90v9gemmo","34","[""White""]","No","Male","1409355.5","null","","<p></p>","null","choice","dtc","attraction_1","1","washing machines","null","null","null","null","null","null","2","","","","","","","","","",""
"","","","","","choice_trial","survey-html-form","109","1214778","0.0-5.0-1.12","208","1","2025-04-14 15:14:53","bb671e3ae32f654b8954ea4c4635f915","","Mozilla/5.0 (Windows NT 10.0; Win64; x64) AppleWebKit/537.36 (KHTML, like Gecko) Chrome/133.0.0.0 Safari/537.36","WebKit","Chrome","133.0.0.0","Windows","10.0","https://hz8g1ckzuq.cognition.run/","en-US,en;q=0.9","wn0q5w90v9gemmo","34","[""White""]","No","Male","1409355.5","3284","","","{""product_choice"":""B""}","choice","dtc","attraction_1","1","washing machines","null","null","null","null","null","null","2","60","50","60","50","60","45","Average lifespan","Energy savings","",""
"","","","","","choice_trial_setup","html-keyboard-response","110","1215085","0.0-5.0-0.13","208","1","2025-04-14 15:14:53","bb671e3ae32f654b8954ea4c4635f915","","Mozilla/5.0 (Windows NT 10.0; Win64; x64) AppleWebKit/537.36 (KHTML, like Gecko) Chrome/133.0.0.0 Safari/537.36","WebKit","Chrome","133.0.0.0","Windows","10.0","https://hz8g1ckzuq.cognition.run/","en-US,en;q=0.9","wn0q5w90v9gemmo","34","[""White""]","No","Male","1409355.5","null","","<p></p>","null","choice","wwb","catch","null","televisions","50","65","10","50","45","35","1","","","","","","","","","",""
"","","","","","choice_trial","survey-html-form","111","1218272","0.0-5.0-1.13","208","1","2025-04-14 15:14:53","bb671e3ae32f654b8954ea4c4635f915","","Mozilla/5.0 (Windows NT 10.0; Win64; x64) AppleWebKit/537.36 (KHTML, like Gecko) Chrome/133.0.0.0 Safari/537.36","WebKit","Chrome","133.0.0.0","Windows","10.0","https://hz8g1ckzuq.cognition.run/","en-US,en;q=0.9","wn0q5w90v9gemmo","34","[""White""]","No","Male","1409355.5","3175","","","{""product_choice"":""C""}","choice","wwb","catch","null","televisions","50","65","10","50","45","35","1","null","null","null","null","null","null","Screen size","Average lifespan","",""
"","","","","","choice_trial_setup","html-keyboard-response","112","1218584","0.0-5.0-0.14","208","1","2025-04-14 15:14:53","bb671e3ae32f654b8954ea4c4635f915","","Mozilla/5.0 (Windows NT 10.0; Win64; x64) AppleWebKit/537.36 (KHTML, like Gecko) Chrome/133.0.0.0 Safari/537.36","WebKit","Chrome","133.0.0.0","Windows","10.0","https://hz8g1ckzuq.cognition.run/","en-US,en;q=0.9","wn0q5w90v9gemmo","34","[""White""]","No","Male","1409355.5","null","","<p></p>","null","choice","ctd","attraction_1","1","microwave ovens","null","null","null","null","null","null","1","","","","","","","","","",""
"","","","","","choice_trial","survey-html-form","113","1222140","0.0-5.0-1.14","208","1","2025-04-14 15:14:53","bb671e3ae32f654b8954ea4c4635f915","","Mozilla/5.0 (Windows NT 10.0; Win64; x64) AppleWebKit/537.36 (KHTML, like Gecko) Chrome/133.0.0.0 Safari/537.36","WebKit","Chrome","133.0.0.0","Windows","10.0","https://hz8g1ckzuq.cognition.run/","en-US,en;q=0.9","wn0q5w90v9gemmo","34","[""White""]","No","Male","1409355.5","3544","","","{""product_choice"":""B""}","choice","ctd","attraction_1","1","microwave ovens","null","null","null","null","null","null","1","60","50","60","50","60","45","Warranty","Cooking power","",""
"","","","","","choice_trial_setup","html-keyboard-response","114","1222451","0.0-5.0-0.15","208","1","2025-04-14 15:14:53","bb671e3ae32f654b8954ea4c4635f915","","Mozilla/5.0 (Windows NT 10.0; Win64; x64) AppleWebKit/537.36 (KHTML, like Gecko) Chrome/133.0.0.0 Safari/537.36","WebKit","Chrome","133.0.0.0","Windows","10.0","https://hz8g1ckzuq.cognition.run/","en-US,en;q=0.9","wn0q5w90v9gemmo","34","[""White""]","No","Male","1409355.5","null","","<p></p>","null","choice","tdc","repulsion_1","2","microwave ovens","null","null","null","null","null","null","1","","","","","","","","","",""
"","","","","","choice_trial","survey-html-form","115","1227988","0.0-5.0-1.15","208","1","2025-04-14 15:14:53","bb671e3ae32f654b8954ea4c4635f915","","Mozilla/5.0 (Windows NT 10.0; Win64; x64) AppleWebKit/537.36 (KHTML, like Gecko) Chrome/133.0.0.0 Safari/537.36","WebKit","Chrome","133.0.0.0","Windows","10.0","https://hz8g1ckzuq.cognition.run/","en-US,en;q=0.9","wn0q5w90v9gemmo","34","[""White""]","No","Male","1409355.5","5525","","","{""product_choice"":""C""}","choice","tdc","repulsion_1","2","microwave ovens","null","null","null","null","null","null","1","30","40","25","100","90","100","Warranty","Cooking power","",""
"","","","","","choice_trial_setup","html-keyboard-response","116","1228301","0.0-5.0-0.16","208","1","2025-04-14 15:14:53","bb671e3ae32f654b8954ea4c4635f915","","Mozilla/5.0 (Windows NT 10.0; Win64; x64) AppleWebKit/537.36 (KHTML, like Gecko) Chrome/133.0.0.0 Safari/537.36","WebKit","Chrome","133.0.0.0","Windows","10.0","https://hz8g1ckzuq.cognition.run/","en-US,en;q=0.9","wn0q5w90v9gemmo","34","[""White""]","No","Male","1409355.5","null","","<p></p>","null","choice","dct","attraction_2","2","washing machines","null","null","null","null","null","null","2","","","","","","","","","",""
"","","","","","choice_trial","survey-html-form","117","1231674","0.0-5.0-1.16","208","1","2025-04-14 15:14:53","bb671e3ae32f654b8954ea4c4635f915","","Mozilla/5.0 (Windows NT 10.0; Win64; x64) AppleWebKit/537.36 (KHTML, like Gecko) Chrome/133.0.0.0 Safari/537.36","WebKit","Chrome","133.0.0.0","Windows","10.0","https://hz8g1ckzuq.cognition.run/","en-US,en;q=0.9","wn0q5w90v9gemmo","34","[""White""]","No","Male","1409355.5","3360","","","{""product_choice"":""B""}","choice","dct","attraction_2","2","washing machines","null","null","null","null","null","null","2","50","60","40","60","50","60","Average lifespan","Energy savings","",""
"","","","","","choice_trial_setup","html-keyboard-response","118","1231988","0.0-5.0-0.17","208","1","2025-04-14 15:14:53","bb671e3ae32f654b8954ea4c4635f915","","Mozilla/5.0 (Windows NT 10.0; Win64; x64) AppleWebKit/537.36 (KHTML, like Gecko) Chrome/133.0.0.0 Safari/537.36","WebKit","Chrome","133.0.0.0","Windows","10.0","https://hz8g1ckzuq.cognition.run/","en-US,en;q=0.9","wn0q5w90v9gemmo","34","[""White""]","No","Male","1409355.5","null","","<p></p>","null","choice","tcd","repulsion_2","2","washing machines","null","null","null","null","null","null","1","","","","","","","","","",""
"","","","","","choice_trial","survey-html-form","119","1235864","0.0-5.0-1.17","208","1","2025-04-14 15:14:53","bb671e3ae32f654b8954ea4c4635f915","","Mozilla/5.0 (Windows NT 10.0; Win64; x64) AppleWebKit/537.36 (KHTML, like Gecko) Chrome/133.0.0.0 Safari/537.36","WebKit","Chrome","133.0.0.0","Windows","10.0","https://hz8g1ckzuq.cognition.run/","en-US,en;q=0.9","wn0q5w90v9gemmo","34","[""White""]","No","Male","1409355.5","3862","","","{""product_choice"":""B""}","choice","tcd","repulsion_2","2","washing machines","null","null","null","null","null","null","1","30","40","20","100","90","100","Average lifespan","Energy savings","",""
"","","","","","choice_trial_setup","html-keyboard-response","120","1236172","0.0-5.0-0.18","208","1","2025-04-14 15:14:53","bb671e3ae32f654b8954ea4c4635f915","","Mozilla/5.0 (Windows NT 10.0; Win64; x64) AppleWebKit/537.36 (KHTML, like Gecko) Chrome/133.0.0.0 Safari/537.36","WebKit","Chrome","133.0.0.0","Windows","10.0","https://hz8g1ckzuq.cognition.run/","en-US,en;q=0.9","wn0q5w90v9gemmo","34","[""White""]","No","Male","1409355.5","null","","<p></p>","null","choice","tdc","repulsion_2","1","washing machines","null","null","null","null","null","null","2","","","","","","","","","",""
"","","","","","choice_trial","survey-html-form","121","1239300","0.0-5.0-1.18","208","1","2025-04-14 15:14:53","bb671e3ae32f654b8954ea4c4635f915","","Mozilla/5.0 (Windows NT 10.0; Win64; x64) AppleWebKit/537.36 (KHTML, like Gecko) Chrome/133.0.0.0 Safari/537.36","WebKit","Chrome","133.0.0.0","Windows","10.0","https://hz8g1ckzuq.cognition.run/","en-US,en;q=0.9","wn0q5w90v9gemmo","34","[""White""]","No","Male","1409355.5","3111","","","{""product_choice"":""C""}","choice","tdc","repulsion_2","1","washing machines","null","null","null","null","null","null","2","100","90","100","30","40","20","Average lifespan","Energy savings","",""
"","","","","","choice_trial_setup","html-keyboard-response","122","1239607","0.0-5.0-0.19","208","1","2025-04-14 15:14:53","bb671e3ae32f654b8954ea4c4635f915","","Mozilla/5.0 (Windows NT 10.0; Win64; x64) AppleWebKit/537.36 (KHTML, like Gecko) Chrome/133.0.0.0 Safari/537.36","WebKit","Chrome","133.0.0.0","Windows","10.0","https://hz8g1ckzuq.cognition.run/","en-US,en;q=0.9","wn0q5w90v9gemmo","34","[""White""]","No","Male","1409355.5","null","","<p></p>","null","choice","tcd","attraction_1","1","televisions","null","null","null","null","null","null","2","","","","","","","","","",""
"","","","","","choice_trial","survey-html-form","123","1245068","0.0-5.0-1.19","208","1","2025-04-14 15:14:53","bb671e3ae32f654b8954ea4c4635f915","","Mozilla/5.0 (Windows NT 10.0; Win64; x64) AppleWebKit/537.36 (KHTML, like Gecko) Chrome/133.0.0.0 Safari/537.36","WebKit","Chrome","133.0.0.0","Windows","10.0","https://hz8g1ckzuq.cognition.run/","en-US,en;q=0.9","wn0q5w90v9gemmo","34","[""White""]","No","Male","1409355.5","5447","","","{""product_choice"":""B""}","choice","tcd","attraction_1","1","televisions","null","null","null","null","null","null","2","60","50","60","50","60","45","Screen size","Average lifespan","",""
"","","","","","choice_trial_setup","html-keyboard-response","124","1245379","0.0-5.0-0.20","208","1","2025-04-14 15:14:53","bb671e3ae32f654b8954ea4c4635f915","","Mozilla/5.0 (Windows NT 10.0; Win64; x64) AppleWebKit/537.36 (KHTML, like Gecko) Chrome/133.0.0.0 Safari/537.36","WebKit","Chrome","133.0.0.0","Windows","10.0","https://hz8g1ckzuq.cognition.run/","en-US,en;q=0.9","wn0q5w90v9gemmo","34","[""White""]","No","Male","1409355.5","null","","<p></p>","null","choice","tdc","repulsion_1","2","laptops","null","null","null","null","null","null","2","","","","","","","","","",""
"","","","","","choice_trial","survey-html-form","125","1252520","0.0-5.0-1.20","208","1","2025-04-14 15:14:53","bb671e3ae32f654b8954ea4c4635f915","","Mozilla/5.0 (Windows NT 10.0; Win64; x64) AppleWebKit/537.36 (KHTML, like Gecko) Chrome/133.0.0.0 Safari/537.36","WebKit","Chrome","133.0.0.0","Windows","10.0","https://hz8g1ckzuq.cognition.run/","en-US,en;q=0.9","wn0q5w90v9gemmo","34","[""White""]","No","Male","1409355.5","7126","","","{""product_choice"":""C""}","choice","tdc","repulsion_1","2","laptops","null","null","null","null","null","null","2","30","40","25","100","90","100","Processing speed","Memory (RAM)","",""
"","","","","","choice_trial_setup","html-keyboard-response","126","1252836","0.0-5.0-0.21","208","1","2025-04-14 15:14:53","bb671e3ae32f654b8954ea4c4635f915","","Mozilla/5.0 (Windows NT 10.0; Win64; x64) AppleWebKit/537.36 (KHTML, like Gecko) Chrome/133.0.0.0 Safari/537.36","WebKit","Chrome","133.0.0.0","Windows","10.0","https://hz8g1ckzuq.cognition.run/","en-US,en;q=0.9","wn0q5w90v9gemmo","34","[""White""]","No","Male","1409355.5","null","","<p></p>","null","choice","wbw","catch","null","laptops","85","90","5","15","45","35","2","","","","","","","","","",""
"","","","","","choice_trial","survey-html-form","127","1258168","0.0-5.0-1.21","208","1","2025-04-14 15:14:53","bb671e3ae32f654b8954ea4c4635f915","","Mozilla/5.0 (Windows NT 10.0; Win64; x64) AppleWebKit/537.36 (KHTML, like Gecko) Chrome/133.0.0.0 Safari/537.36","WebKit","Chrome","133.0.0.0","Windows","10.0","https://hz8g1ckzuq.cognition.run/","en-US,en;q=0.9","wn0q5w90v9gemmo","34","[""White""]","No","Male","1409355.5","5322","","","{""product_choice"":""B""}","choice","wbw","catch","null","laptops","85","90","5","15","45","35","2","null","null","null","null","null","null","Processing speed","Memory (RAM)","",""
"","","","","","choice_trial_setup","html-keyboard-response","128","1258483","0.0-5.0-0.22","208","1","2025-04-14 15:14:53","bb671e3ae32f654b8954ea4c4635f915","","Mozilla/5.0 (Windows NT 10.0; Win64; x64) AppleWebKit/537.36 (KHTML, like Gecko) Chrome/133.0.0.0 Safari/537.36","WebKit","Chrome","133.0.0.0","Windows","10.0","https://hz8g1ckzuq.cognition.run/","en-US,en;q=0.9","wn0q5w90v9gemmo","34","[""White""]","No","Male","1409355.5","null","","<p></p>","null","choice","tcd","repulsion_1","1","laptops","null","null","null","null","null","null","2","","","","","","","","","",""
"","","","","","choice_trial","survey-html-form","129","1263150","0.0-5.0-1.22","208","1","2025-04-14 15:14:53","bb671e3ae32f654b8954ea4c4635f915","","Mozilla/5.0 (Windows NT 10.0; Win64; x64) AppleWebKit/537.36 (KHTML, like Gecko) Chrome/133.0.0.0 Safari/537.36","WebKit","Chrome","133.0.0.0","Windows","10.0","https://hz8g1ckzuq.cognition.run/","en-US,en;q=0.9","wn0q5w90v9gemmo","34","[""White""]","No","Male","1409355.5","4653","","","{""product_choice"":""B""}","choice","tcd","repulsion_1","1","laptops","null","null","null","null","null","null","2","100","90","100","30","40","25","Processing speed","Memory (RAM)","",""
"","","","","","choice_trial_setup","html-keyboard-response","130","1263462","0.0-5.0-0.23","208","1","2025-04-14 15:14:53","bb671e3ae32f654b8954ea4c4635f915","","Mozilla/5.0 (Windows NT 10.0; Win64; x64) AppleWebKit/537.36 (KHTML, like Gecko) Chrome/133.0.0.0 Safari/537.36","WebKit","Chrome","133.0.0.0","Windows","10.0","https://hz8g1ckzuq.cognition.run/","en-US,en;q=0.9","wn0q5w90v9gemmo","34","[""White""]","No","Male","1409355.5","null","","<p></p>","null","choice","tdc","attraction_1","2","washing machines","null","null","null","null","null","null","2","","","","","","","","","",""
"","","","","","choice_trial","survey-html-form","131","1268190","0.0-5.0-1.23","208","1","2025-04-14 15:14:53","bb671e3ae32f654b8954ea4c4635f915","","Mozilla/5.0 (Windows NT 10.0; Win64; x64) AppleWebKit/537.36 (KHTML, like Gecko) Chrome/133.0.0.0 Safari/537.36","WebKit","Chrome","133.0.0.0","Windows","10.0","https://hz8g1ckzuq.cognition.run/","en-US,en;q=0.9","wn0q5w90v9gemmo","34","[""White""]","No","Male","1409355.5","4712","","","{""product_choice"":""A""}","choice","tdc","attraction_1","2","washing machines","null","null","null","null","null","null","2","50","60","45","60","50","60","Average lifespan","Energy savings","",""
"","","","","","choice_trial_setup","html-keyboard-response","132","1268505","0.0-5.0-0.24","208","1","2025-04-14 15:14:53","bb671e3ae32f654b8954ea4c4635f915","","Mozilla/5.0 (Windows NT 10.0; Win64; x64) AppleWebKit/537.36 (KHTML, like Gecko) Chrome/133.0.0.0 Safari/537.36","WebKit","Chrome","133.0.0.0","Windows","10.0","https://hz8g1ckzuq.cognition.run/","en-US,en;q=0.9","wn0q5w90v9gemmo","34","[""White""]","No","Male","1409355.5","null","","<p></p>","null","choice","tdc","attraction_1","2","microwave ovens","null","null","null","null","null","null","2","","","","","","","","","",""
"","","","","","choice_trial","survey-html-form","133","1270744","0.0-5.0-1.24","208","1","2025-04-14 15:14:53","bb671e3ae32f654b8954ea4c4635f915","","Mozilla/5.0 (Windows NT 10.0; Win64; x64) AppleWebKit/537.36 (KHTML, like Gecko) Chrome/133.0.0.0 Safari/537.36","WebKit","Chrome","133.0.0.0","Windows","10.0","https://hz8g1ckzuq.cognition.run/","en-US,en;q=0.9","wn0q5w90v9gemmo","34","[""White""]","No","Male","1409355.5","2227","","","{""product_choice"":""A""}","choice","tdc","attraction_1","2","microwave ovens","null","null","null","null","null","null","2","50","60","45","60","50","60","Warranty","Cooking power","",""
"","","","","","choice_trial_setup","html-keyboard-response","134","1271056","0.0-5.0-0.25","208","1","2025-04-14 15:14:53","bb671e3ae32f654b8954ea4c4635f915","","Mozilla/5.0 (Windows NT 10.0; Win64; x64) AppleWebKit/537.36 (KHTML, like Gecko) Chrome/133.0.0.0 Safari/537.36","WebKit","Chrome","133.0.0.0","Windows","10.0","https://hz8g1ckzuq.cognition.run/","en-US,en;q=0.9","wn0q5w90v9gemmo","34","[""White""]","No","Male","1409355.5","null","","<p></p>","null","choice","dct","attraction_1","1","laptops","null","null","null","null","null","null","2","","","","","","","","","",""
"","","","","","choice_trial","survey-html-form","135","1273814","0.0-5.0-1.25","208","1","2025-04-14 15:14:53","bb671e3ae32f654b8954ea4c4635f915","","Mozilla/5.0 (Windows NT 10.0; Win64; x64) AppleWebKit/537.36 (KHTML, like Gecko) Chrome/133.0.0.0 Safari/537.36","WebKit","Chrome","133.0.0.0","Windows","10.0","https://hz8g1ckzuq.cognition.run/","en-US,en;q=0.9","wn0q5w90v9gemmo","34","[""White""]","No","Male","1409355.5","2743","","","{""product_choice"":""B""}","choice","dct","attraction_1","1","laptops","null","null","null","null","null","null","2","60","50","60","50","60","45","Processing speed","Memory (RAM)","",""
"","","","","","choice_trial_setup","html-keyboard-response","136","1274126","0.0-5.0-0.26","208","1","2025-04-14 15:14:53","bb671e3ae32f654b8954ea4c4635f915","","Mozilla/5.0 (Windows NT 10.0; Win64; x64) AppleWebKit/537.36 (KHTML, like Gecko) Chrome/133.0.0.0 Safari/537.36","WebKit","Chrome","133.0.0.0","Windows","10.0","https://hz8g1ckzuq.cognition.run/","en-US,en;q=0.9","wn0q5w90v9gemmo","34","[""White""]","No","Male","1409355.5","null","","<p></p>","null","choice","tdc","repulsion_1","2","televisions","null","null","null","null","null","null","1","","","","","","","","","",""
"","","","","","choice_trial","survey-html-form","137","1277194","0.0-5.0-1.26","208","1","2025-04-14 15:14:53","bb671e3ae32f654b8954ea4c4635f915","","Mozilla/5.0 (Windows NT 10.0; Win64; x64) AppleWebKit/537.36 (KHTML, like Gecko) Chrome/133.0.0.0 Safari/537.36","WebKit","Chrome","133.0.0.0","Windows","10.0","https://hz8g1ckzuq.cognition.run/","en-US,en;q=0.9","wn0q5w90v9gemmo","34","[""White""]","No","Male","1409355.5","3054","","","{""product_choice"":""C""}","choice","tdc","repulsion_1","2","televisions","null","null","null","null","null","null","1","30","40","25","100","90","100","Screen size","Average lifespan","",""
"","","","","","choice_trial_setup","html-keyboard-response","138","1277509","0.0-5.0-0.27","208","1","2025-04-14 15:14:53","bb671e3ae32f654b8954ea4c4635f915","","Mozilla/5.0 (Windows NT 10.0; Win64; x64) AppleWebKit/537.36 (KHTML, like Gecko) Chrome/133.0.0.0 Safari/537.36","WebKit","Chrome","133.0.0.0","Windows","10.0","https://hz8g1ckzuq.cognition.run/","en-US,en;q=0.9","wn0q5w90v9gemmo","34","[""White""]","No","Male","1409355.5","null","","<p></p>","null","choice","tdc","repulsion_1","1","washing machines","null","null","null","null","null","null","1","","","","","","","","","",""
"","","","","","choice_trial","survey-html-form","139","1279924","0.0-5.0-1.27","208","1","2025-04-14 15:14:53","bb671e3ae32f654b8954ea4c4635f915","","Mozilla/5.0 (Windows NT 10.0; Win64; x64) AppleWebKit/537.36 (KHTML, like Gecko) Chrome/133.0.0.0 Safari/537.36","WebKit","Chrome","133.0.0.0","Windows","10.0","https://hz8g1ckzuq.cognition.run/","en-US,en;q=0.9","wn0q5w90v9gemmo","34","[""White""]","No","Male","1409355.5","2400","","","{""product_choice"":""C""}","choice","tdc","repulsion_1","1","washing machines","null","null","null","null","null","null","1","100","90","100","30","40","25","Average lifespan","Energy savings","",""
"","","","","","choice_trial_setup","html-keyboard-response","140","1280236","0.0-5.0-0.28","208","1","2025-04-14 15:14:53","bb671e3ae32f654b8954ea4c4635f915","","Mozilla/5.0 (Windows NT 10.0; Win64; x64) AppleWebKit/537.36 (KHTML, like Gecko) Chrome/133.0.0.0 Safari/537.36","WebKit","Chrome","133.0.0.0","Windows","10.0","https://hz8g1ckzuq.cognition.run/","en-US,en;q=0.9","wn0q5w90v9gemmo","34","[""White""]","No","Male","1409355.5","null","","<p></p>","null","choice","dtc","repulsion_2","2","laptops","null","null","null","null","null","null","2","","","","","","","","","",""
"","","","","","choice_trial","survey-html-form","141","1282488","0.0-5.0-1.28","208","1","2025-04-14 15:14:53","bb671e3ae32f654b8954ea4c4635f915","","Mozilla/5.0 (Windows NT 10.0; Win64; x64) AppleWebKit/537.36 (KHTML, like Gecko) Chrome/133.0.0.0 Safari/537.36","WebKit","Chrome","133.0.0.0","Windows","10.0","https://hz8g1ckzuq.cognition.run/","en-US,en;q=0.9","wn0q5w90v9gemmo","34","[""White""]","No","Male","1409355.5","2237","","","{""product_choice"":""C""}","choice","dtc","repulsion_2","2","laptops","null","null","null","null","null","null","2","30","40","20","100","90","100","Processing speed","Memory (RAM)","",""
"","","","","","choice_trial_setup","html-keyboard-response","142","1282797","0.0-5.0-0.29","208","1","2025-04-14 15:14:53","bb671e3ae32f654b8954ea4c4635f915","","Mozilla/5.0 (Windows NT 10.0; Win64; x64) AppleWebKit/537.36 (KHTML, like Gecko) Chrome/133.0.0.0 Safari/537.36","WebKit","Chrome","133.0.0.0","Windows","10.0","https://hz8g1ckzuq.cognition.run/","en-US,en;q=0.9","wn0q5w90v9gemmo","34","[""White""]","No","Male","1409355.5","null","","<p></p>","null","choice","dct","repulsion_1","1","televisions","null","null","null","null","null","null","2","","","","","","","","","",""
"","","","","","choice_trial","survey-html-form","143","1288080","0.0-5.0-1.29","208","1","2025-04-14 15:14:53","bb671e3ae32f654b8954ea4c4635f915","","Mozilla/5.0 (Windows NT 10.0; Win64; x64) AppleWebKit/537.36 (KHTML, like Gecko) Chrome/133.0.0.0 Safari/537.36","WebKit","Chrome","133.0.0.0","Windows","10.0","https://hz8g1ckzuq.cognition.run/","en-US,en;q=0.9","wn0q5w90v9gemmo","34","[""White""]","No","Male","1409355.5","5268","","","{""product_choice"":""B""}","choice","dct","repulsion_1","1","televisions","null","null","null","null","null","null","2","100","90","100","30","40","25","Screen size","Average lifespan","",""
"","","","","","choice_trial_setup","html-keyboard-response","144","1288391","0.0-5.0-0.30","208","1","2025-04-14 15:14:53","bb671e3ae32f654b8954ea4c4635f915","","Mozilla/5.0 (Windows NT 10.0; Win64; x64) AppleWebKit/537.36 (KHTML, like Gecko) Chrome/133.0.0.0 Safari/537.36","WebKit","Chrome","133.0.0.0","Windows","10.0","https://hz8g1ckzuq.cognition.run/","en-US,en;q=0.9","wn0q5w90v9gemmo","34","[""White""]","No","Male","1409355.5","null","","<p></p>","null","choice","ctd","attraction_2","2","microwave ovens","null","null","null","null","null","null","2","","","","","","","","","",""
"","","","","","choice_trial","survey-html-form","145","1292966","0.0-5.0-1.30","208","1","2025-04-14 15:14:53","bb671e3ae32f654b8954ea4c4635f915","","Mozilla/5.0 (Windows NT 10.0; Win64; x64) AppleWebKit/537.36 (KHTML, like Gecko) Chrome/133.0.0.0 Safari/537.36","WebKit","Chrome","133.0.0.0","Windows","10.0","https://hz8g1ckzuq.cognition.run/","en-US,en;q=0.9","wn0q5w90v9gemmo","34","[""White""]","No","Male","1409355.5","4559","","","{""product_choice"":""B""}","choice","ctd","attraction_2","2","microwave ovens","null","null","null","null","null","null","2","50","60","40","60","50","60","Warranty","Cooking power","",""
"","","","","","choice_trial_setup","html-keyboard-response","146","1293278","0.0-5.0-0.31","208","1","2025-04-14 15:14:53","bb671e3ae32f654b8954ea4c4635f915","","Mozilla/5.0 (Windows NT 10.0; Win64; x64) AppleWebKit/537.36 (KHTML, like Gecko) Chrome/133.0.0.0 Safari/537.36","WebKit","Chrome","133.0.0.0","Windows","10.0","https://hz8g1ckzuq.cognition.run/","en-US,en;q=0.9","wn0q5w90v9gemmo","34","[""White""]","No","Male","1409355.5","null","","<p></p>","null","choice","wbw","catch","null","microwave ovens","65","50","20","40","40","10","1","","","","","","","","","",""
"","","","","","choice_trial","survey-html-form","147","1296340","0.0-5.0-1.31","208","1","2025-04-14 15:14:53","bb671e3ae32f654b8954ea4c4635f915","","Mozilla/5.0 (Windows NT 10.0; Win64; x64) AppleWebKit/537.36 (KHTML, like Gecko) Chrome/133.0.0.0 Safari/537.36","WebKit","Chrome","133.0.0.0","Windows","10.0","https://hz8g1ckzuq.cognition.run/","en-US,en;q=0.9","wn0q5w90v9gemmo","34","[""White""]","No","Male","1409355.5","3044","","","{""product_choice"":""B""}","choice","wbw","catch","null","microwave ovens","65","50","20","40","40","10","1","null","null","null","null","null","null","Warranty","Cooking power","",""
"","","","","","choice_trial_setup","html-keyboard-response","148","1296664","0.0-5.0-0.32","208","1","2025-04-14 15:14:53","bb671e3ae32f654b8954ea4c4635f915","","Mozilla/5.0 (Windows NT 10.0; Win64; x64) AppleWebKit/537.36 (KHTML, like Gecko) Chrome/133.0.0.0 Safari/537.36","WebKit","Chrome","133.0.0.0","Windows","10.0","https://hz8g1ckzuq.cognition.run/","en-US,en;q=0.9","wn0q5w90v9gemmo","34","[""White""]","No","Male","1409355.5","null","","<p></p>","null","choice","tdc","repulsion_1","1","microwave ovens","null","null","null","null","null","null","1","","","","","","","","","",""
"","","","","","choice_trial","survey-html-form","149","1299776","0.0-5.0-1.32","208","1","2025-04-14 15:14:53","bb671e3ae32f654b8954ea4c4635f915","","Mozilla/5.0 (Windows NT 10.0; Win64; x64) AppleWebKit/537.36 (KHTML, like Gecko) Chrome/133.0.0.0 Safari/537.36","WebKit","Chrome","133.0.0.0","Windows","10.0","https://hz8g1ckzuq.cognition.run/","en-US,en;q=0.9","wn0q5w90v9gemmo","34","[""White""]","No","Male","1409355.5","3097","","","{""product_choice"":""C""}","choice","tdc","repulsion_1","1","microwave ovens","null","null","null","null","null","null","1","100","90","100","30","40","25","Warranty","Cooking power","",""
"","","","","","choice_trial_setup","html-keyboard-response","150","1300092","0.0-5.0-0.33","208","1","2025-04-14 15:14:53","bb671e3ae32f654b8954ea4c4635f915","","Mozilla/5.0 (Windows NT 10.0; Win64; x64) AppleWebKit/537.36 (KHTML, like Gecko) Chrome/133.0.0.0 Safari/537.36","WebKit","Chrome","133.0.0.0","Windows","10.0","https://hz8g1ckzuq.cognition.run/","en-US,en;q=0.9","wn0q5w90v9gemmo","34","[""White""]","No","Male","1409355.5","null","","<p></p>","null","choice","wbw","catch","null","washing machines","60","95","30","5","10","5","2","","","","","","","","","",""
"","","","","","choice_trial","survey-html-form","151","1304438","0.0-5.0-1.33","208","1","2025-04-14 15:14:53","bb671e3ae32f654b8954ea4c4635f915","","Mozilla/5.0 (Windows NT 10.0; Win64; x64) AppleWebKit/537.36 (KHTML, like Gecko) Chrome/133.0.0.0 Safari/537.36","WebKit","Chrome","133.0.0.0","Windows","10.0","https://hz8g1ckzuq.cognition.run/","en-US,en;q=0.9","wn0q5w90v9gemmo","34","[""White""]","No","Male","1409355.5","4329","","","{""product_choice"":""B""}","choice","wbw","catch","null","washing machines","60","95","30","5","10","5","2","null","null","null","null","null","null","Average lifespan","Energy savings","",""
"","","","","","choice_trial_setup","html-keyboard-response","152","1304750","0.0-5.0-0.34","208","1","2025-04-14 15:14:53","bb671e3ae32f654b8954ea4c4635f915","","Mozilla/5.0 (Windows NT 10.0; Win64; x64) AppleWebKit/537.36 (KHTML, like Gecko) Chrome/133.0.0.0 Safari/537.36","WebKit","Chrome","133.0.0.0","Windows","10.0","https://hz8g1ckzuq.cognition.run/","en-US,en;q=0.9","wn0q5w90v9gemmo","34","[""White""]","No","Male","1409355.5","null","","<p></p>","null","choice","wbw","catch","null","washing machines","55","50","15","15","50","15","1","","","","","","","","","",""
"","","","","","choice_trial","survey-html-form","153","1308132","0.0-5.0-1.34","208","1","2025-04-14 15:14:53","bb671e3ae32f654b8954ea4c4635f915","","Mozilla/5.0 (Windows NT 10.0; Win64; x64) AppleWebKit/537.36 (KHTML, like Gecko) Chrome/133.0.0.0 Safari/537.36","WebKit","Chrome","133.0.0.0","Windows","10.0","https://hz8g1ckzuq.cognition.run/","en-US,en;q=0.9","wn0q5w90v9gemmo","34","[""White""]","No","Male","1409355.5","3368","","","{""product_choice"":""B""}","choice","wbw","catch","null","washing machines","55","50","15","15","50","15","1","null","null","null","null","null","null","Average lifespan","Energy savings","",""
"","","","","","choice_trial_setup","html-keyboard-response","154","1308445","0.0-5.0-0.35","208","1","2025-04-14 15:14:53","bb671e3ae32f654b8954ea4c4635f915","","Mozilla/5.0 (Windows NT 10.0; Win64; x64) AppleWebKit/537.36 (KHTML, like Gecko) Chrome/133.0.0.0 Safari/537.36","WebKit","Chrome","133.0.0.0","Windows","10.0","https://hz8g1ckzuq.cognition.run/","en-US,en;q=0.9","wn0q5w90v9gemmo","34","[""White""]","No","Male","1409355.5","null","","<p></p>","null","choice","cdt","attraction_2","2","televisions","null","null","null","null","null","null","2","","","","","","","","","",""
"","","","","","choice_trial","survey-html-form","155","1312778","0.0-5.0-1.35","208","1","2025-04-14 15:14:53","bb671e3ae32f654b8954ea4c4635f915","","Mozilla/5.0 (Windows NT 10.0; Win64; x64) AppleWebKit/537.36 (KHTML, like Gecko) Chrome/133.0.0.0 Safari/537.36","WebKit","Chrome","133.0.0.0","Windows","10.0","https://hz8g1ckzuq.cognition.run/","en-US,en;q=0.9","wn0q5w90v9gemmo","34","[""White""]","No","Male","1409355.5","4315","","","{""product_choice"":""C""}","choice","cdt","attraction_2","2","televisions","null","null","null","null","null","null","2","50","60","40","60","50","60","Screen size","Average lifespan","",""
"","","","","","choice_trial_setup","html-keyboard-response","156","1313093","0.0-5.0-0.36","208","1","2025-04-14 15:14:53","bb671e3ae32f654b8954ea4c4635f915","","Mozilla/5.0 (Windows NT 10.0; Win64; x64) AppleWebKit/537.36 (KHTML, like Gecko) Chrome/133.0.0.0 Safari/537.36","WebKit","Chrome","133.0.0.0","Windows","10.0","https://hz8g1ckzuq.cognition.run/","en-US,en;q=0.9","wn0q5w90v9gemmo","34","[""White""]","No","Male","1409355.5","null","","<p></p>","null","choice","bww","catch","null","televisions","60","50","10","35","40","15","1","","","","","","","","","",""
"","","","","","choice_trial","survey-html-form","157","1317320","0.0-5.0-1.36","208","1","2025-04-14 15:14:53","bb671e3ae32f654b8954ea4c4635f915","","Mozilla/5.0 (Windows NT 10.0; Win64; x64) AppleWebKit/537.36 (KHTML, like Gecko) Chrome/133.0.0.0 Safari/537.36","WebKit","Chrome","133.0.0.0","Windows","10.0","https://hz8g1ckzuq.cognition.run/","en-US,en;q=0.9","wn0q5w90v9gemmo","34","[""White""]","No","Male","1409355.5","4211","","","{""product_choice"":""A""}","choice","bww","catch","null","televisions","60","50","10","35","40","15","1","null","null","null","null","null","null","Screen size","Average lifespan","",""
"","","","","","choice_trial_setup","html-keyboard-response","158","1317637","0.0-5.0-0.37","208","1","2025-04-14 15:14:53","bb671e3ae32f654b8954ea4c4635f915","","Mozilla/5.0 (Windows NT 10.0; Win64; x64) AppleWebKit/537.36 (KHTML, like Gecko) Chrome/133.0.0.0 Safari/537.36","WebKit","Chrome","133.0.0.0","Windows","10.0","https://hz8g1ckzuq.cognition.run/","en-US,en;q=0.9","wn0q5w90v9gemmo","34","[""White""]","No","Male","1409355.5","null","","<p></p>","null","choice","cdt","attraction_2","1","microwave ovens","null","null","null","null","null","null","1","","","","","","","","","",""
"","","","","","choice_trial","survey-html-form","159","1323688","0.0-5.0-1.37","208","1","2025-04-14 15:14:53","bb671e3ae32f654b8954ea4c4635f915","","Mozilla/5.0 (Windows NT 10.0; Win64; x64) AppleWebKit/537.36 (KHTML, like Gecko) Chrome/133.0.0.0 Safari/537.36","WebKit","Chrome","133.0.0.0","Windows","10.0","https://hz8g1ckzuq.cognition.run/","en-US,en;q=0.9","wn0q5w90v9gemmo","34","[""White""]","No","Male","1409355.5","6036","","","{""product_choice"":""A""}","choice","cdt","attraction_2","1","microwave ovens","null","null","null","null","null","null","1","60","50","60","50","60","40","Warranty","Cooking power","",""
