"success","timeout","failed_images","failed_audio","failed_video","screen_id","trial_type","trial_index","time_elapsed","internal_node_id","run_id","condition","recorded_at","source_code_version","ip","user_agent","device","browser","browser_version","platform","platform_version","referer","accept_language","ppt_id","age","race","ethnicity","gender","exp_duration","rt","view_history","stimulus","response","phase","order","effect","t_high","category","d1_best","d2_best","d1_worst1","d2_worst1","d1_worst2","d2_worst2","first_dim","d1_t","d1_c","d1_d","d2_t","d2_c","d2_d","d1_name","d2_name","strategy_response","question_order"
"true","false","[]","[]","[]","img preload","preload","0","1375","0.0-0.0","210","1","2025-04-14 15:17:11","bb671e3ae32f654b8954ea4c4635f915","","Mozilla/5.0 (Macintosh; Intel Mac OS X 10_15_7) AppleWebKit/537.36 (KHTML, like Gecko) Chrome/135.0.0.0 Safari/537.36","Macintosh","Chrome","135.0.0.0","OS X","10_15_7","https://hz8g1ckzuq.cognition.run/","en-US,en;q=0.9","4ta2218m3dva4up","25","[""Black or African-American""]","No","Male","2245150.900000006","","","","","","","","","","","","","","","","","","","","","","","","","",""
"true","","","","","","fullscreen","1","15715","0.0-1.0","210","1","2025-04-14 15:17:11","bb671e3ae32f654b8954ea4c4635f915","","Mozilla/5.0 (Macintosh; Intel Mac OS X 10_15_7) AppleWebKit/537.36 (KHTML, like Gecko) Chrome/135.0.0.0 Safari/537.36","Macintosh","Chrome","135.0.0.0","OS X","10_15_7","https://hz8g1ckzuq.cognition.run/","en-US,en;q=0.9","4ta2218m3dva4up","25","[""Black or African-American""]","No","Male","2245150.900000006","13333","","","","","","","","","","","","","","","","","","","","","","","","",""
"","","","","","","instructions","2","185397","0.0-2.0","210","1","2025-04-14 15:17:11","bb671e3ae32f654b8954ea4c4635f915","","Mozilla/5.0 (Macintosh; Intel Mac OS X 10_15_7) AppleWebKit/537.36 (KHTML, like Gecko) Chrome/135.0.0.0 Safari/537.36","Macintosh","Chrome","135.0.0.0","OS X","10_15_7","https://hz8g1ckzuq.cognition.run/","en-US,en;q=0.9","4ta2218m3dva4up","25","[""Black or African-American""]","No","Male","2245150.900000006","169676","[{""page_index"":0,""viewing_time"":1612},{""page_index"":1,""viewing_time"":4150},{""page_index"":2,""viewing_time"":3234},{""page_index"":3,""viewing_time"":3732},{""page_index"":4,""viewing_time"":116385},{""page_index"":5,""viewing_time"":6305},{""page_index"":6,""viewing_time"":11579},{""page_index"":7,""viewing_time"":11167},{""page_index"":8,""viewing_time"":7164},{""page_index"":9,""viewing_time"":4347}]","","","","","","","","","","","","","","","","","","","","","","","",""
"","","","","","rating_trial_setup","html-keyboard-response","3","185701","0.0-3.0-0.0","210","1","2025-04-14 15:17:11","bb671e3ae32f654b8954ea4c4635f915","","Mozilla/5.0 (Macintosh; Intel Mac OS X 10_15_7) AppleWebKit/537.36 (KHTML, like Gecko) Chrome/135.0.0.0 Safari/537.36","Macintosh","Chrome","135.0.0.0","OS X","10_15_7","https://hz8g1ckzuq.cognition.run/","en-US,en;q=0.9","4ta2218m3dva4up","25","[""Black or African-American""]","No","Male","2245150.900000006","null","","<p></p>","null","rating","dct","attraction_2","2","laptops","null","null","null","null","null","null","2","","","","","","","","","",""
"","","","","","rating_trial","survey-html-form","4","234018","0.0-3.0-1.0","210","1","2025-04-14 15:17:11","bb671e3ae32f654b8954ea4c4635f915","","Mozilla/5.0 (Macintosh; Intel Mac OS X 10_15_7) AppleWebKit/537.36 (KHTML, like Gecko) Chrome/135.0.0.0 Safari/537.36","Macintosh","Chrome","135.0.0.0","OS X","10_15_7","https://hz8g1ckzuq.cognition.run/","en-US,en;q=0.9","4ta2218m3dva4up","25","[""Black or African-American""]","No","Male","2245150.900000006","48310","","","{""price_1"":""300"",""price_2"":""280"",""price_3"":""365""}","rating","dct","attraction_2","2","laptops","null","null","null","null","null","null","2","50","60","40","60","50","60","Processing speed","Memory (RAM)","",""
"","","","","","rating_trial_setup","html-keyboard-response","5","234321","0.0-3.0-0.1","210","1","2025-04-14 15:17:11","bb671e3ae32f654b8954ea4c4635f915","","Mozilla/5.0 (Macintosh; Intel Mac OS X 10_15_7) AppleWebKit/537.36 (KHTML, like Gecko) Chrome/135.0.0.0 Safari/537.36","Macintosh","Chrome","135.0.0.0","OS X","10_15_7","https://hz8g1ckzuq.cognition.run/","en-US,en;q=0.9","4ta2218m3dva4up","25","[""Black or African-American""]","No","Male","2245150.900000006","null","","<p></p>","null","rating","tdc","attraction_1","2","laptops","null","null","null","null","null","null","1","","","","","","","","","",""
"","","","","","rating_trial","survey-html-form","6","262455","0.0-3.0-1.1","210","1","2025-04-14 15:17:11","bb671e3ae32f654b8954ea4c4635f915","","Mozilla/5.0 (Macintosh; Intel Mac OS X 10_15_7) AppleWebKit/537.36 (KHTML, like Gecko) Chrome/135.0.0.0 Safari/537.36","Macintosh","Chrome","135.0.0.0","OS X","10_15_7","https://hz8g1ckzuq.cognition.run/","en-US,en;q=0.9","4ta2218m3dva4up","25","[""Black or African-American""]","No","Male","2245150.900000006","28156","","","{""price_1"":""360"",""price_2"":""280"",""price_3"":""386""}","rating","tdc","attraction_1","2","laptops","null","null","null","null","null","null","1","50","60","45","60","50","60","Processing speed","Memory (RAM)","",""
"","","","","","rating_trial_setup","html-keyboard-response","7","262757","0.0-3.0-0.2","210","1","2025-04-14 15:17:11","bb671e3ae32f654b8954ea4c4635f915","","Mozilla/5.0 (Macintosh; Intel Mac OS X 10_15_7) AppleWebKit/537.36 (KHTML, like Gecko) Chrome/135.0.0.0 Safari/537.36","Macintosh","Chrome","135.0.0.0","OS X","10_15_7","https://hz8g1ckzuq.cognition.run/","en-US,en;q=0.9","4ta2218m3dva4up","25","[""Black or African-American""]","No","Male","2245150.900000006","null","","<p></p>","null","rating","dct","attraction_1","2","washing machines","null","null","null","null","null","null","2","","","","","","","","","",""
"","","","","","rating_trial","survey-html-form","8","286216","0.0-3.0-1.2","210","1","2025-04-14 15:17:11","bb671e3ae32f654b8954ea4c4635f915","","Mozilla/5.0 (Macintosh; Intel Mac OS X 10_15_7) AppleWebKit/537.36 (KHTML, like Gecko) Chrome/135.0.0.0 Safari/537.36","Macintosh","Chrome","135.0.0.0","OS X","10_15_7","https://hz8g1ckzuq.cognition.run/","en-US,en;q=0.9","4ta2218m3dva4up","25","[""Black or African-American""]","No","Male","2245150.900000006","23471","","","{""price_1"":""380"",""price_2"":""350"",""price_3"":""370""}","rating","dct","attraction_1","2","washing machines","null","null","null","null","null","null","2","50","60","45","60","50","60","Average lifespan","Energy savings","",""
"","","","","","rating_trial_setup","html-keyboard-response","9","286519","0.0-3.0-0.3","210","1","2025-04-14 15:17:11","bb671e3ae32f654b8954ea4c4635f915","","Mozilla/5.0 (Macintosh; Intel Mac OS X 10_15_7) AppleWebKit/537.36 (KHTML, like Gecko) Chrome/135.0.0.0 Safari/537.36","Macintosh","Chrome","135.0.0.0","OS X","10_15_7","https://hz8g1ckzuq.cognition.run/","en-US,en;q=0.9","4ta2218m3dva4up","25","[""Black or African-American""]","No","Male","2245150.900000006","null","","<p></p>","null","rating","wbw","catch","null","televisions","95","95","30","20","40","35","2","","","","","","","","","",""
"","","","","","rating_trial","survey-html-form","10","329610","0.0-3.0-1.3","210","1","2025-04-14 15:17:11","bb671e3ae32f654b8954ea4c4635f915","","Mozilla/5.0 (Macintosh; Intel Mac OS X 10_15_7) AppleWebKit/537.36 (KHTML, like Gecko) Chrome/135.0.0.0 Safari/537.36","Macintosh","Chrome","135.0.0.0","OS X","10_15_7","https://hz8g1ckzuq.cognition.run/","en-US,en;q=0.9","4ta2218m3dva4up","25","[""Black or African-American""]","No","Male","2245150.900000006","43091","","","{""price_1"":""150"",""price_2"":""500"",""price_3"":""220""}","rating","wbw","catch","null","televisions","95","95","30","20","40","35","2","null","null","null","null","null","null","Screen size","Average lifespan","",""
"","","","","","rating_trial_setup","html-keyboard-response","11","329913","0.0-3.0-0.4","210","1","2025-04-14 15:17:11","bb671e3ae32f654b8954ea4c4635f915","","Mozilla/5.0 (Macintosh; Intel Mac OS X 10_15_7) AppleWebKit/537.36 (KHTML, like Gecko) Chrome/135.0.0.0 Safari/537.36","Macintosh","Chrome","135.0.0.0","OS X","10_15_7","https://hz8g1ckzuq.cognition.run/","en-US,en;q=0.9","4ta2218m3dva4up","25","[""Black or African-American""]","No","Male","2245150.900000006","null","","<p></p>","null","rating","wbw","catch","null","microwave ovens","60","75","30","10","10","35","2","","","","","","","","","",""
"","","","","","rating_trial","survey-html-form","12","363035","0.0-3.0-1.4","210","1","2025-04-14 15:17:11","bb671e3ae32f654b8954ea4c4635f915","","Mozilla/5.0 (Macintosh; Intel Mac OS X 10_15_7) AppleWebKit/537.36 (KHTML, like Gecko) Chrome/135.0.0.0 Safari/537.36","Macintosh","Chrome","135.0.0.0","OS X","10_15_7","https://hz8g1ckzuq.cognition.run/","en-US,en;q=0.9","4ta2218m3dva4up","25","[""Black or African-American""]","No","Male","2245150.900000006","33118","","","{""price_1"":""40"",""price_2"":""160"",""price_3"":""45""}","rating","wbw","catch","null","microwave ovens","60","75","30","10","10","35","2","null","null","null","null","null","null","Warranty","Cooking power","",""
"","","","","","rating_trial_setup","html-keyboard-response","13","363337","0.0-3.0-0.5","210","1","2025-04-14 15:17:11","bb671e3ae32f654b8954ea4c4635f915","","Mozilla/5.0 (Macintosh; Intel Mac OS X 10_15_7) AppleWebKit/537.36 (KHTML, like Gecko) Chrome/135.0.0.0 Safari/537.36","Macintosh","Chrome","135.0.0.0","OS X","10_15_7","https://hz8g1ckzuq.cognition.run/","en-US,en;q=0.9","4ta2218m3dva4up","25","[""Black or African-American""]","No","Male","2245150.900000006","null","","<p></p>","null","rating","dct","repulsion_2","2","laptops","null","null","null","null","null","null","2","","","","","","","","","",""
"","","","","","rating_trial","survey-html-form","14","388433","0.0-3.0-1.5","210","1","2025-04-14 15:17:11","bb671e3ae32f654b8954ea4c4635f915","","Mozilla/5.0 (Macintosh; Intel Mac OS X 10_15_7) AppleWebKit/537.36 (KHTML, like Gecko) Chrome/135.0.0.0 Safari/537.36","Macintosh","Chrome","135.0.0.0","OS X","10_15_7","https://hz8g1ckzuq.cognition.run/","en-US,en;q=0.9","4ta2218m3dva4up","25","[""Black or African-American""]","No","Male","2245150.900000006","25092","","","{""price_1"":""350"",""price_2"":""380"",""price_3"":""325""}","rating","dct","repulsion_2","2","laptops","null","null","null","null","null","null","2","30","40","20","100","90","100","Processing speed","Memory (RAM)","",""
"","","","","","rating_trial_setup","html-keyboard-response","15","388736","0.0-3.0-0.6","210","1","2025-04-14 15:17:11","bb671e3ae32f654b8954ea4c4635f915","","Mozilla/5.0 (Macintosh; Intel Mac OS X 10_15_7) AppleWebKit/537.36 (KHTML, like Gecko) Chrome/135.0.0.0 Safari/537.36","Macintosh","Chrome","135.0.0.0","OS X","10_15_7","https://hz8g1ckzuq.cognition.run/","en-US,en;q=0.9","4ta2218m3dva4up","25","[""Black or African-American""]","No","Male","2245150.900000006","null","","<p></p>","null","rating","dtc","attraction_1","1","laptops","null","null","null","null","null","null","2","","","","","","","","","",""
"","","","","","rating_trial","survey-html-form","16","413401","0.0-3.0-1.6","210","1","2025-04-14 15:17:11","bb671e3ae32f654b8954ea4c4635f915","","Mozilla/5.0 (Macintosh; Intel Mac OS X 10_15_7) AppleWebKit/537.36 (KHTML, like Gecko) Chrome/135.0.0.0 Safari/537.36","Macintosh","Chrome","135.0.0.0","OS X","10_15_7","https://hz8g1ckzuq.cognition.run/","en-US,en;q=0.9","4ta2218m3dva4up","25","[""Black or African-American""]","No","Male","2245150.900000006","24662","","","{""price_1"":""320"",""price_2"":""340"",""price_3"":""380""}","rating","dtc","attraction_1","1","laptops","null","null","null","null","null","null","2","60","50","60","50","60","45","Processing speed","Memory (RAM)","",""
"","","","","","rating_trial_setup","html-keyboard-response","17","413705","0.0-3.0-0.7","210","1","2025-04-14 15:17:11","bb671e3ae32f654b8954ea4c4635f915","","Mozilla/5.0 (Macintosh; Intel Mac OS X 10_15_7) AppleWebKit/537.36 (KHTML, like Gecko) Chrome/135.0.0.0 Safari/537.36","Macintosh","Chrome","135.0.0.0","OS X","10_15_7","https://hz8g1ckzuq.cognition.run/","en-US,en;q=0.9","4ta2218m3dva4up","25","[""Black or African-American""]","No","Male","2245150.900000006","null","","<p></p>","null","rating","tdc","attraction_1","1","washing machines","null","null","null","null","null","null","1","","","","","","","","","",""
"","","","","","rating_trial","survey-html-form","18","437472","0.0-3.0-1.7","210","1","2025-04-14 15:17:11","bb671e3ae32f654b8954ea4c4635f915","","Mozilla/5.0 (Macintosh; Intel Mac OS X 10_15_7) AppleWebKit/537.36 (KHTML, like Gecko) Chrome/135.0.0.0 Safari/537.36","Macintosh","Chrome","135.0.0.0","OS X","10_15_7","https://hz8g1ckzuq.cognition.run/","en-US,en;q=0.9","4ta2218m3dva4up","25","[""Black or African-American""]","No","Male","2245150.900000006","23765","","","{""price_1"":""500"",""price_2"":""465"",""price_3"":""430""}","rating","tdc","attraction_1","1","washing machines","null","null","null","null","null","null","1","60","50","60","50","60","45","Average lifespan","Energy savings","",""
"","","","","","rating_trial_setup","html-keyboard-response","19","437774","0.0-3.0-0.8","210","1","2025-04-14 15:17:11","bb671e3ae32f654b8954ea4c4635f915","","Mozilla/5.0 (Macintosh; Intel Mac OS X 10_15_7) AppleWebKit/537.36 (KHTML, like Gecko) Chrome/135.0.0.0 Safari/537.36","Macintosh","Chrome","135.0.0.0","OS X","10_15_7","https://hz8g1ckzuq.cognition.run/","en-US,en;q=0.9","4ta2218m3dva4up","25","[""Black or African-American""]","No","Male","2245150.900000006","null","","<p></p>","null","rating","dct","repulsion_1","2","laptops","null","null","null","null","null","null","2","","","","","","","","","",""
"","","","","","rating_trial","survey-html-form","20","481964","0.0-3.0-1.8","210","1","2025-04-14 15:17:11","bb671e3ae32f654b8954ea4c4635f915","","Mozilla/5.0 (Macintosh; Intel Mac OS X 10_15_7) AppleWebKit/537.36 (KHTML, like Gecko) Chrome/135.0.0.0 Safari/537.36","Macintosh","Chrome","135.0.0.0","OS X","10_15_7","https://hz8g1ckzuq.cognition.run/","en-US,en;q=0.9","4ta2218m3dva4up","25","[""Black or African-American""]","No","Male","2245150.900000006","44187","","","{""price_1"":""380"",""price_2"":""380"",""price_3"":""395""}","rating","dct","repulsion_1","2","laptops","null","null","null","null","null","null","2","30","40","25","100","90","100","Processing speed","Memory (RAM)","",""
"","","","","","rating_trial_setup","html-keyboard-response","21","482266","0.0-3.0-0.9","210","1","2025-04-14 15:17:11","bb671e3ae32f654b8954ea4c4635f915","","Mozilla/5.0 (Macintosh; Intel Mac OS X 10_15_7) AppleWebKit/537.36 (KHTML, like Gecko) Chrome/135.0.0.0 Safari/537.36","Macintosh","Chrome","135.0.0.0","OS X","10_15_7","https://hz8g1ckzuq.cognition.run/","en-US,en;q=0.9","4ta2218m3dva4up","25","[""Black or African-American""]","No","Male","2245150.900000006","null","","<p></p>","null","rating","ctd","repulsion_2","1","washing machines","null","null","null","null","null","null","2","","","","","","","","","",""
"","","","","","rating_trial","survey-html-form","22","502413","0.0-3.0-1.9","210","1","2025-04-14 15:17:11","bb671e3ae32f654b8954ea4c4635f915","","Mozilla/5.0 (Macintosh; Intel Mac OS X 10_15_7) AppleWebKit/537.36 (KHTML, like Gecko) Chrome/135.0.0.0 Safari/537.36","Macintosh","Chrome","135.0.0.0","OS X","10_15_7","https://hz8g1ckzuq.cognition.run/","en-US,en;q=0.9","4ta2218m3dva4up","25","[""Black or African-American""]","No","Male","2245150.900000006","20144","","","{""price_1"":""400"",""price_2"":""400"",""price_3"":""380""}","rating","ctd","repulsion_2","1","washing machines","null","null","null","null","null","null","2","100","90","100","30","40","20","Average lifespan","Energy savings","",""
"","","","","","rating_trial_setup","html-keyboard-response","23","502716","0.0-3.0-0.10","210","1","2025-04-14 15:17:11","bb671e3ae32f654b8954ea4c4635f915","","Mozilla/5.0 (Macintosh; Intel Mac OS X 10_15_7) AppleWebKit/537.36 (KHTML, like Gecko) Chrome/135.0.0.0 Safari/537.36","Macintosh","Chrome","135.0.0.0","OS X","10_15_7","https://hz8g1ckzuq.cognition.run/","en-US,en;q=0.9","4ta2218m3dva4up","25","[""Black or African-American""]","No","Male","2245150.900000006","null","","<p></p>","null","rating","cdt","attraction_2","2","washing machines","null","null","null","null","null","null","2","","","","","","","","","",""
"","","","","","rating_trial","survey-html-form","24","516996","0.0-3.0-1.10","210","1","2025-04-14 15:17:11","bb671e3ae32f654b8954ea4c4635f915","","Mozilla/5.0 (Macintosh; Intel Mac OS X 10_15_7) AppleWebKit/537.36 (KHTML, like Gecko) Chrome/135.0.0.0 Safari/537.36","Macintosh","Chrome","135.0.0.0","OS X","10_15_7","https://hz8g1ckzuq.cognition.run/","en-US,en;q=0.9","4ta2218m3dva4up","25","[""Black or African-American""]","No","Male","2245150.900000006","14278","","","{""price_1"":""365"",""price_2"":""365"",""price_3"":""375""}","rating","cdt","attraction_2","2","washing machines","null","null","null","null","null","null","2","50","60","40","60","50","60","Average lifespan","Energy savings","",""
"","","","","","rating_trial_setup","html-keyboard-response","25","517300","0.0-3.0-0.11","210","1","2025-04-14 15:17:11","bb671e3ae32f654b8954ea4c4635f915","","Mozilla/5.0 (Macintosh; Intel Mac OS X 10_15_7) AppleWebKit/537.36 (KHTML, like Gecko) Chrome/135.0.0.0 Safari/537.36","Macintosh","Chrome","135.0.0.0","OS X","10_15_7","https://hz8g1ckzuq.cognition.run/","en-US,en;q=0.9","4ta2218m3dva4up","25","[""Black or African-American""]","No","Male","2245150.900000006","null","","<p></p>","null","rating","ctd","attraction_2","1","televisions","null","null","null","null","null","null","2","","","","","","","","","",""
"","","","","","rating_trial","survey-html-form","26","830327","0.0-3.0-1.11","210","1","2025-04-14 15:17:11","bb671e3ae32f654b8954ea4c4635f915","","Mozilla/5.0 (Macintosh; Intel Mac OS X 10_15_7) AppleWebKit/537.36 (KHTML, like Gecko) Chrome/135.0.0.0 Safari/537.36","Macintosh","Chrome","135.0.0.0","OS X","10_15_7","https://hz8g1ckzuq.cognition.run/","en-US,en;q=0.9","4ta2218m3dva4up","25","[""Black or African-American""]","No","Male","2245150.900000006","313015","","","{""price_1"":""380"",""price_2"":""380"",""price_3"":""360""}","rating","ctd","attraction_2","1","televisions","null","null","null","null","null","null","2","60","50","60","50","60","40","Screen size","Average lifespan","",""
"","","","","","rating_trial_setup","html-keyboard-response","27","830630","0.0-3.0-0.12","210","1","2025-04-14 15:17:11","bb671e3ae32f654b8954ea4c4635f915","","Mozilla/5.0 (Macintosh; Intel Mac OS X 10_15_7) AppleWebKit/537.36 (KHTML, like Gecko) Chrome/135.0.0.0 Safari/537.36","Macintosh","Chrome","135.0.0.0","OS X","10_15_7","https://hz8g1ckzuq.cognition.run/","en-US,en;q=0.9","4ta2218m3dva4up","25","[""Black or African-American""]","No","Male","2245150.900000006","null","","<p></p>","null","rating","wwb","catch","null","washing machines","65","70","50","10","30","50","2","","","","","","","","","",""
"","","","","","rating_trial","survey-html-form","28","855646","0.0-3.0-1.12","210","1","2025-04-14 15:17:11","bb671e3ae32f654b8954ea4c4635f915","","Mozilla/5.0 (Macintosh; Intel Mac OS X 10_15_7) AppleWebKit/537.36 (KHTML, like Gecko) Chrome/135.0.0.0 Safari/537.36","Macintosh","Chrome","135.0.0.0","OS X","10_15_7","https://hz8g1ckzuq.cognition.run/","en-US,en;q=0.9","4ta2218m3dva4up","25","[""Black or African-American""]","No","Male","2245150.900000006","25014","","","{""price_1"":""200"",""price_2"":""359"",""price_3"":""599""}","rating","wwb","catch","null","washing machines","65","70","50","10","30","50","2","null","null","null","null","null","null","Average lifespan","Energy savings","",""
"","","","","","rating_trial_setup","html-keyboard-response","29","855949","0.0-3.0-0.13","210","1","2025-04-14 15:17:11","bb671e3ae32f654b8954ea4c4635f915","","Mozilla/5.0 (Macintosh; Intel Mac OS X 10_15_7) AppleWebKit/537.36 (KHTML, like Gecko) Chrome/135.0.0.0 Safari/537.36","Macintosh","Chrome","135.0.0.0","OS X","10_15_7","https://hz8g1ckzuq.cognition.run/","en-US,en;q=0.9","4ta2218m3dva4up","25","[""Black or African-American""]","No","Male","2245150.900000006","null","","<p></p>","null","rating","cdt","repulsion_2","2","televisions","null","null","null","null","null","null","1","","","","","","","","","",""
"","","","","","rating_trial","survey-html-form","30","872369","0.0-3.0-1.13","210","1","2025-04-14 15:17:11","bb671e3ae32f654b8954ea4c4635f915","","Mozilla/5.0 (Macintosh; Intel Mac OS X 10_15_7) AppleWebKit/537.36 (KHTML, like Gecko) Chrome/135.0.0.0 Safari/537.36","Macintosh","Chrome","135.0.0.0","OS X","10_15_7","https://hz8g1ckzuq.cognition.run/","en-US,en;q=0.9","4ta2218m3dva4up","25","[""Black or African-American""]","No","Male","2245150.900000006","16417","","","{""price_1"":""324"",""price_2"":""276"",""price_3"":""355""}","rating","cdt","repulsion_2","2","televisions","null","null","null","null","null","null","1","30","40","20","100","90","100","Screen size","Average lifespan","",""
"","","","","","rating_trial_setup","html-keyboard-response","31","872672","0.0-3.0-0.14","210","1","2025-04-14 15:17:11","bb671e3ae32f654b8954ea4c4635f915","","Mozilla/5.0 (Macintosh; Intel Mac OS X 10_15_7) AppleWebKit/537.36 (KHTML, like Gecko) Chrome/135.0.0.0 Safari/537.36","Macintosh","Chrome","135.0.0.0","OS X","10_15_7","https://hz8g1ckzuq.cognition.run/","en-US,en;q=0.9","4ta2218m3dva4up","25","[""Black or African-American""]","No","Male","2245150.900000006","null","","<p></p>","null","rating","tcd","attraction_2","1","washing machines","null","null","null","null","null","null","1","","","","","","","","","",""
"","","","","","rating_trial","survey-html-form","32","895973","0.0-3.0-1.14","210","1","2025-04-14 15:17:11","bb671e3ae32f654b8954ea4c4635f915","","Mozilla/5.0 (Macintosh; Intel Mac OS X 10_15_7) AppleWebKit/537.36 (KHTML, like Gecko) Chrome/135.0.0.0 Safari/537.36","Macintosh","Chrome","135.0.0.0","OS X","10_15_7","https://hz8g1ckzuq.cognition.run/","en-US,en;q=0.9","4ta2218m3dva4up","25","[""Black or African-American""]","No","Male","2245150.900000006","23294","","","{""price_1"":""380"",""price_2"":""350"",""price_3"":""342""}","rating","tcd","attraction_2","1","washing machines","null","null","null","null","null","null","1","60","50","60","50","60","40","Average lifespan","Energy savings","",""
"","","","","","rating_trial_setup","html-keyboard-response","33","896275","0.0-3.0-0.15","210","1","2025-04-14 15:17:11","bb671e3ae32f654b8954ea4c4635f915","","Mozilla/5.0 (Macintosh; Intel Mac OS X 10_15_7) AppleWebKit/537.36 (KHTML, like Gecko) Chrome/135.0.0.0 Safari/537.36","Macintosh","Chrome","135.0.0.0","OS X","10_15_7","https://hz8g1ckzuq.cognition.run/","en-US,en;q=0.9","4ta2218m3dva4up","25","[""Black or African-American""]","No","Male","2245150.900000006","null","","<p></p>","null","rating","tdc","repulsion_1","1","laptops","null","null","null","null","null","null","1","","","","","","","","","",""
"","","","","","rating_trial","survey-html-form","34","1067140","0.0-3.0-1.15","210","1","2025-04-14 15:17:11","bb671e3ae32f654b8954ea4c4635f915","","Mozilla/5.0 (Macintosh; Intel Mac OS X 10_15_7) AppleWebKit/537.36 (KHTML, like Gecko) Chrome/135.0.0.0 Safari/537.36","Macintosh","Chrome","135.0.0.0","OS X","10_15_7","https://hz8g1ckzuq.cognition.run/","en-US,en;q=0.9","4ta2218m3dva4up","25","[""Black or African-American""]","No","Male","2245150.900000006","170857","","","{""price_1"":""320"",""price_2"":""310"",""price_3"":""320""}","rating","tdc","repulsion_1","1","laptops","null","null","null","null","null","null","1","100","90","100","30","40","25","Processing speed","Memory (RAM)","",""
"","","","","","rating_trial_setup","html-keyboard-response","35","1067444","0.0-3.0-0.16","210","1","2025-04-14 15:17:11","bb671e3ae32f654b8954ea4c4635f915","","Mozilla/5.0 (Macintosh; Intel Mac OS X 10_15_7) AppleWebKit/537.36 (KHTML, like Gecko) Chrome/135.0.0.0 Safari/537.36","Macintosh","Chrome","135.0.0.0","OS X","10_15_7","https://hz8g1ckzuq.cognition.run/","en-US,en;q=0.9","4ta2218m3dva4up","25","[""Black or African-American""]","No","Male","2245150.900000006","null","","<p></p>","null","rating","tdc","repulsion_1","1","televisions","null","null","null","null","null","null","1","","","","","","","","","",""
"","","","","","rating_trial","survey-html-form","36","1084943","0.0-3.0-1.16","210","1","2025-04-14 15:17:11","bb671e3ae32f654b8954ea4c4635f915","","Mozilla/5.0 (Macintosh; Intel Mac OS X 10_15_7) AppleWebKit/537.36 (KHTML, like Gecko) Chrome/135.0.0.0 Safari/537.36","Macintosh","Chrome","135.0.0.0","OS X","10_15_7","https://hz8g1ckzuq.cognition.run/","en-US,en;q=0.9","4ta2218m3dva4up","25","[""Black or African-American""]","No","Male","2245150.900000006","17497","","","{""price_1"":""320"",""price_2"":""310"",""price_3"":""320""}","rating","tdc","repulsion_1","1","televisions","null","null","null","null","null","null","1","100","90","100","30","40","25","Screen size","Average lifespan","",""
"","","","","","rating_trial_setup","html-keyboard-response","37","1085246","0.0-3.0-0.17","210","1","2025-04-14 15:17:11","bb671e3ae32f654b8954ea4c4635f915","","Mozilla/5.0 (Macintosh; Intel Mac OS X 10_15_7) AppleWebKit/537.36 (KHTML, like Gecko) Chrome/135.0.0.0 Safari/537.36","Macintosh","Chrome","135.0.0.0","OS X","10_15_7","https://hz8g1ckzuq.cognition.run/","en-US,en;q=0.9","4ta2218m3dva4up","25","[""Black or African-American""]","No","Male","2245150.900000006","null","","<p></p>","null","rating","tcd","repulsion_1","1","washing machines","null","null","null","null","null","null","1","","","","","","","","","",""
"","","","","","rating_trial","survey-html-form","38","1116521","0.0-3.0-1.17","210","1","2025-04-14 15:17:11","bb671e3ae32f654b8954ea4c4635f915","","Mozilla/5.0 (Macintosh; Intel Mac OS X 10_15_7) AppleWebKit/537.36 (KHTML, like Gecko) Chrome/135.0.0.0 Safari/537.36","Macintosh","Chrome","135.0.0.0","OS X","10_15_7","https://hz8g1ckzuq.cognition.run/","en-US,en;q=0.9","4ta2218m3dva4up","25","[""Black or African-American""]","No","Male","2245150.900000006","31271","","","{""price_1"":""420"",""price_2"":""420"",""price_3"":""410""}","rating","tcd","repulsion_1","1","washing machines","null","null","null","null","null","null","1","100","90","100","30","40","25","Average lifespan","Energy savings","",""
"","","","","","rating_trial_setup","html-keyboard-response","39","1116824","0.0-3.0-0.18","210","1","2025-04-14 15:17:11","bb671e3ae32f654b8954ea4c4635f915","","Mozilla/5.0 (Macintosh; Intel Mac OS X 10_15_7) AppleWebKit/537.36 (KHTML, like Gecko) Chrome/135.0.0.0 Safari/537.36","Macintosh","Chrome","135.0.0.0","OS X","10_15_7","https://hz8g1ckzuq.cognition.run/","en-US,en;q=0.9","4ta2218m3dva4up","25","[""Black or African-American""]","No","Male","2245150.900000006","null","","<p></p>","null","rating","tdc","attraction_2","1","laptops","null","null","null","null","null","null","2","","","","","","","","","",""
"","","","","","rating_trial","survey-html-form","40","1138846","0.0-3.0-1.18","210","1","2025-04-14 15:17:11","bb671e3ae32f654b8954ea4c4635f915","","Mozilla/5.0 (Macintosh; Intel Mac OS X 10_15_7) AppleWebKit/537.36 (KHTML, like Gecko) Chrome/135.0.0.0 Safari/537.36","Macintosh","Chrome","135.0.0.0","OS X","10_15_7","https://hz8g1ckzuq.cognition.run/","en-US,en;q=0.9","4ta2218m3dva4up","25","[""Black or African-American""]","No","Male","2245150.900000006","22017","","","{""price_1"":""320"",""price_2"":""310"",""price_3"":""320""}","rating","tdc","attraction_2","1","laptops","null","null","null","null","null","null","2","60","50","60","50","60","40","Processing speed","Memory (RAM)","",""
"","","","","","rating_trial_setup","html-keyboard-response","41","1139148","0.0-3.0-0.19","210","1","2025-04-14 15:17:11","bb671e3ae32f654b8954ea4c4635f915","","Mozilla/5.0 (Macintosh; Intel Mac OS X 10_15_7) AppleWebKit/537.36 (KHTML, like Gecko) Chrome/135.0.0.0 Safari/537.36","Macintosh","Chrome","135.0.0.0","OS X","10_15_7","https://hz8g1ckzuq.cognition.run/","en-US,en;q=0.9","4ta2218m3dva4up","25","[""Black or African-American""]","No","Male","2245150.900000006","null","","<p></p>","null","rating","dct","attraction_1","2","microwave ovens","null","null","null","null","null","null","2","","","","","","","","","",""
"","","","","","rating_trial","survey-html-form","42","1160250","0.0-3.0-1.19","210","1","2025-04-14 15:17:11","bb671e3ae32f654b8954ea4c4635f915","","Mozilla/5.0 (Macintosh; Intel Mac OS X 10_15_7) AppleWebKit/537.36 (KHTML, like Gecko) Chrome/135.0.0.0 Safari/537.36","Macintosh","Chrome","135.0.0.0","OS X","10_15_7","https://hz8g1ckzuq.cognition.run/","en-US,en;q=0.9","4ta2218m3dva4up","25","[""Black or African-American""]","No","Male","2245150.900000006","21109","","","{""price_1"":""80"",""price_2"":""125"",""price_3"":""125""}","rating","dct","attraction_1","2","microwave ovens","null","null","null","null","null","null","2","50","60","45","60","50","60","Warranty","Cooking power","",""
"","","","","","rating_trial_setup","html-keyboard-response","43","1160553","0.0-3.0-0.20","210","1","2025-04-14 15:17:11","bb671e3ae32f654b8954ea4c4635f915","","Mozilla/5.0 (Macintosh; Intel Mac OS X 10_15_7) AppleWebKit/537.36 (KHTML, like Gecko) Chrome/135.0.0.0 Safari/537.36","Macintosh","Chrome","135.0.0.0","OS X","10_15_7","https://hz8g1ckzuq.cognition.run/","en-US,en;q=0.9","4ta2218m3dva4up","25","[""Black or African-American""]","No","Male","2245150.900000006","null","","<p></p>","null","rating","dtc","attraction_2","2","microwave ovens","null","null","null","null","null","null","1","","","","","","","","","",""
"","","","","","rating_trial","survey-html-form","44","1179436","0.0-3.0-1.20","210","1","2025-04-14 15:17:11","bb671e3ae32f654b8954ea4c4635f915","","Mozilla/5.0 (Macintosh; Intel Mac OS X 10_15_7) AppleWebKit/537.36 (KHTML, like Gecko) Chrome/135.0.0.0 Safari/537.36","Macintosh","Chrome","135.0.0.0","OS X","10_15_7","https://hz8g1ckzuq.cognition.run/","en-US,en;q=0.9","4ta2218m3dva4up","25","[""Black or African-American""]","No","Male","2245150.900000006","18887","","","{""price_1"":""80"",""price_2"":""90"",""price_3"":""90""}","rating","dtc","attraction_2","2","microwave ovens","null","null","null","null","null","null","1","50","60","40","60","50","60","Warranty","Cooking power","",""
"","","","","","rating_trial_setup","html-keyboard-response","45","1179739","0.0-3.0-0.21","210","1","2025-04-14 15:17:11","bb671e3ae32f654b8954ea4c4635f915","","Mozilla/5.0 (Macintosh; Intel Mac OS X 10_15_7) AppleWebKit/537.36 (KHTML, like Gecko) Chrome/135.0.0.0 Safari/537.36","Macintosh","Chrome","135.0.0.0","OS X","10_15_7","https://hz8g1ckzuq.cognition.run/","en-US,en;q=0.9","4ta2218m3dva4up","25","[""Black or African-American""]","No","Male","2245150.900000006","null","","<p></p>","null","rating","dtc","attraction_1","2","televisions","null","null","null","null","null","null","1","","","","","","","","","",""
"","","","","","rating_trial","survey-html-form","46","1202649","0.0-3.0-1.21","210","1","2025-04-14 15:17:11","bb671e3ae32f654b8954ea4c4635f915","","Mozilla/5.0 (Macintosh; Intel Mac OS X 10_15_7) AppleWebKit/537.36 (KHTML, like Gecko) Chrome/135.0.0.0 Safari/537.36","Macintosh","Chrome","135.0.0.0","OS X","10_15_7","https://hz8g1ckzuq.cognition.run/","en-US,en;q=0.9","4ta2218m3dva4up","25","[""Black or African-American""]","No","Male","2245150.900000006","22908","","","{""price_1"":""165"",""price_2"":""170"",""price_3"":""180""}","rating","dtc","attraction_1","2","televisions","null","null","null","null","null","null","1","50","60","45","60","50","60","Screen size","Average lifespan","",""
"","","","","","rating_trial_setup","html-keyboard-response","47","1202952","0.0-3.0-0.22","210","1","2025-04-14 15:17:11","bb671e3ae32f654b8954ea4c4635f915","","Mozilla/5.0 (Macintosh; Intel Mac OS X 10_15_7) AppleWebKit/537.36 (KHTML, like Gecko) Chrome/135.0.0.0 Safari/537.36","Macintosh","Chrome","135.0.0.0","OS X","10_15_7","https://hz8g1ckzuq.cognition.run/","en-US,en;q=0.9","4ta2218m3dva4up","25","[""Black or African-American""]","No","Male","2245150.900000006","null","","<p></p>","null","rating","tcd","attraction_2","2","televisions","null","null","null","null","null","null","1","","","","","","","","","",""
"","","","","","rating_trial","survey-html-form","48","1227866","0.0-3.0-1.22","210","1","2025-04-14 15:17:11","bb671e3ae32f654b8954ea4c4635f915","","Mozilla/5.0 (Macintosh; Intel Mac OS X 10_15_7) AppleWebKit/537.36 (KHTML, like Gecko) Chrome/135.0.0.0 Safari/537.36","Macintosh","Chrome","135.0.0.0","OS X","10_15_7","https://hz8g1ckzuq.cognition.run/","en-US,en;q=0.9","4ta2218m3dva4up","25","[""Black or African-American""]","No","Male","2245150.900000006","24910","","","{""price_1"":""170"",""price_2"":""165"",""price_3"":""160""}","rating","tcd","attraction_2","2","televisions","null","null","null","null","null","null","1","50","60","40","60","50","60","Screen size","Average lifespan","",""
"","","","","","rating_trial_setup","html-keyboard-response","49","1228170","0.0-3.0-0.23","210","1","2025-04-14 15:17:11","bb671e3ae32f654b8954ea4c4635f915","","Mozilla/5.0 (Macintosh; Intel Mac OS X 10_15_7) AppleWebKit/537.36 (KHTML, like Gecko) Chrome/135.0.0.0 Safari/537.36","Macintosh","Chrome","135.0.0.0","OS X","10_15_7","https://hz8g1ckzuq.cognition.run/","en-US,en;q=0.9","4ta2218m3dva4up","25","[""Black or African-American""]","No","Male","2245150.900000006","null","","<p></p>","null","rating","dtc","repulsion_1","1","microwave ovens","null","null","null","null","null","null","2","","","","","","","","","",""
"","","","","","rating_trial","survey-html-form","50","1252077","0.0-3.0-1.23","210","1","2025-04-14 15:17:11","bb671e3ae32f654b8954ea4c4635f915","","Mozilla/5.0 (Macintosh; Intel Mac OS X 10_15_7) AppleWebKit/537.36 (KHTML, like Gecko) Chrome/135.0.0.0 Safari/537.36","Macintosh","Chrome","135.0.0.0","OS X","10_15_7","https://hz8g1ckzuq.cognition.run/","en-US,en;q=0.9","4ta2218m3dva4up","25","[""Black or African-American""]","No","Male","2245150.900000006","23902","","","{""price_1"":""65"",""price_2"":""70"",""price_3"":""75""}","rating","dtc","repulsion_1","1","microwave ovens","null","null","null","null","null","null","2","100","90","100","30","40","25","Warranty","Cooking power","",""
"","","","","","rating_trial_setup","html-keyboard-response","51","1252379","0.0-3.0-0.24","210","1","2025-04-14 15:17:11","bb671e3ae32f654b8954ea4c4635f915","","Mozilla/5.0 (Macintosh; Intel Mac OS X 10_15_7) AppleWebKit/537.36 (KHTML, like Gecko) Chrome/135.0.0.0 Safari/537.36","Macintosh","Chrome","135.0.0.0","OS X","10_15_7","https://hz8g1ckzuq.cognition.run/","en-US,en;q=0.9","4ta2218m3dva4up","25","[""Black or African-American""]","No","Male","2245150.900000006","null","","<p></p>","null","rating","wbw","catch","null","televisions","95","85","5","25","15","45","2","","","","","","","","","",""
"","","","","","rating_trial","survey-html-form","52","1267363","0.0-3.0-1.24","210","1","2025-04-14 15:17:11","bb671e3ae32f654b8954ea4c4635f915","","Mozilla/5.0 (Macintosh; Intel Mac OS X 10_15_7) AppleWebKit/537.36 (KHTML, like Gecko) Chrome/135.0.0.0 Safari/537.36","Macintosh","Chrome","135.0.0.0","OS X","10_15_7","https://hz8g1ckzuq.cognition.run/","en-US,en;q=0.9","4ta2218m3dva4up","25","[""Black or African-American""]","No","Male","2245150.900000006","14979","","","{""price_1"":""80"",""price_2"":""400"",""price_3"":""320""}","rating","wbw","catch","null","televisions","95","85","5","25","15","45","2","null","null","null","null","null","null","Screen size","Average lifespan","",""
"","","","","","rating_trial_setup","html-keyboard-response","53","1267666","0.0-3.0-0.25","210","1","2025-04-14 15:17:11","bb671e3ae32f654b8954ea4c4635f915","","Mozilla/5.0 (Macintosh; Intel Mac OS X 10_15_7) AppleWebKit/537.36 (KHTML, like Gecko) Chrome/135.0.0.0 Safari/537.36","Macintosh","Chrome","135.0.0.0","OS X","10_15_7","https://hz8g1ckzuq.cognition.run/","en-US,en;q=0.9","4ta2218m3dva4up","25","[""Black or African-American""]","No","Male","2245150.900000006","null","","<p></p>","null","rating","ctd","repulsion_1","2","microwave ovens","null","null","null","null","null","null","1","","","","","","","","","",""
"","","","","","rating_trial","survey-html-form","54","1287669","0.0-3.0-1.25","210","1","2025-04-14 15:17:11","bb671e3ae32f654b8954ea4c4635f915","","Mozilla/5.0 (Macintosh; Intel Mac OS X 10_15_7) AppleWebKit/537.36 (KHTML, like Gecko) Chrome/135.0.0.0 Safari/537.36","Macintosh","Chrome","135.0.0.0","OS X","10_15_7","https://hz8g1ckzuq.cognition.run/","en-US,en;q=0.9","4ta2218m3dva4up","25","[""Black or African-American""]","No","Male","2245150.900000006","19997","","","{""price_1"":""125"",""price_2"":""120"",""price_3"":""120""}","rating","ctd","repulsion_1","2","microwave ovens","null","null","null","null","null","null","1","30","40","25","100","90","100","Warranty","Cooking power","",""
"","","","","","rating_trial_setup","html-keyboard-response","55","1287972","0.0-3.0-0.26","210","1","2025-04-14 15:17:11","bb671e3ae32f654b8954ea4c4635f915","","Mozilla/5.0 (Macintosh; Intel Mac OS X 10_15_7) AppleWebKit/537.36 (KHTML, like Gecko) Chrome/135.0.0.0 Safari/537.36","Macintosh","Chrome","135.0.0.0","OS X","10_15_7","https://hz8g1ckzuq.cognition.run/","en-US,en;q=0.9","4ta2218m3dva4up","25","[""Black or African-American""]","No","Male","2245150.900000006","null","","<p></p>","null","rating","tdc","repulsion_2","1","microwave ovens","null","null","null","null","null","null","1","","","","","","","","","",""
"","","","","","rating_trial","survey-html-form","56","1299015","0.0-3.0-1.26","210","1","2025-04-14 15:17:11","bb671e3ae32f654b8954ea4c4635f915","","Mozilla/5.0 (Macintosh; Intel Mac OS X 10_15_7) AppleWebKit/537.36 (KHTML, like Gecko) Chrome/135.0.0.0 Safari/537.36","Macintosh","Chrome","135.0.0.0","OS X","10_15_7","https://hz8g1ckzuq.cognition.run/","en-US,en;q=0.9","4ta2218m3dva4up","25","[""Black or African-American""]","No","Male","2245150.900000006","11039","","","{""price_1"":""100"",""price_2"":""95"",""price_3"":""98""}","rating","tdc","repulsion_2","1","microwave ovens","null","null","null","null","null","null","1","100","90","100","30","40","20","Warranty","Cooking power","",""
"","","","","","rating_trial_setup","html-keyboard-response","57","1299320","0.0-3.0-0.27","210","1","2025-04-14 15:17:11","bb671e3ae32f654b8954ea4c4635f915","","Mozilla/5.0 (Macintosh; Intel Mac OS X 10_15_7) AppleWebKit/537.36 (KHTML, like Gecko) Chrome/135.0.0.0 Safari/537.36","Macintosh","Chrome","135.0.0.0","OS X","10_15_7","https://hz8g1ckzuq.cognition.run/","en-US,en;q=0.9","4ta2218m3dva4up","25","[""Black or African-American""]","No","Male","2245150.900000006","null","","<p></p>","null","rating","wbw","catch","null","microwave ovens","55","85","20","30","40","50","2","","","","","","","","","",""
"","","","","","rating_trial","survey-html-form","58","1318818","0.0-3.0-1.27","210","1","2025-04-14 15:17:11","bb671e3ae32f654b8954ea4c4635f915","","Mozilla/5.0 (Macintosh; Intel Mac OS X 10_15_7) AppleWebKit/537.36 (KHTML, like Gecko) Chrome/135.0.0.0 Safari/537.36","Macintosh","Chrome","135.0.0.0","OS X","10_15_7","https://hz8g1ckzuq.cognition.run/","en-US,en;q=0.9","4ta2218m3dva4up","25","[""Black or African-American""]","No","Male","2245150.900000006","19492","","","{""price_1"":""65"",""price_2"":""135"",""price_3"":""125""}","rating","wbw","catch","null","microwave ovens","55","85","20","30","40","50","2","null","null","null","null","null","null","Warranty","Cooking power","",""
"","","","","","rating_trial_setup","html-keyboard-response","59","1319121","0.0-3.0-0.28","210","1","2025-04-14 15:17:11","bb671e3ae32f654b8954ea4c4635f915","","Mozilla/5.0 (Macintosh; Intel Mac OS X 10_15_7) AppleWebKit/537.36 (KHTML, like Gecko) Chrome/135.0.0.0 Safari/537.36","Macintosh","Chrome","135.0.0.0","OS X","10_15_7","https://hz8g1ckzuq.cognition.run/","en-US,en;q=0.9","4ta2218m3dva4up","25","[""Black or African-American""]","No","Male","2245150.900000006","null","","<p></p>","null","rating","wbw","catch","null","laptops","90","70","5","45","10","35","1","","","","","","","","","",""
"","","","","","rating_trial","survey-html-form","60","1336741","0.0-3.0-1.28","210","1","2025-04-14 15:17:11","bb671e3ae32f654b8954ea4c4635f915","","Mozilla/5.0 (Macintosh; Intel Mac OS X 10_15_7) AppleWebKit/537.36 (KHTML, like Gecko) Chrome/135.0.0.0 Safari/537.36","Macintosh","Chrome","135.0.0.0","OS X","10_15_7","https://hz8g1ckzuq.cognition.run/","en-US,en;q=0.9","4ta2218m3dva4up","25","[""Black or African-American""]","No","Male","2245150.900000006","17615","","","{""price_1"":""120"",""price_2"":""380"",""price_3"":""225""}","rating","wbw","catch","null","laptops","90","70","5","45","10","35","1","null","null","null","null","null","null","Processing speed","Memory (RAM)","",""
"","","","","","rating_trial_setup","html-keyboard-response","61","1337045","0.0-3.0-0.29","210","1","2025-04-14 15:17:11","bb671e3ae32f654b8954ea4c4635f915","","Mozilla/5.0 (Macintosh; Intel Mac OS X 10_15_7) AppleWebKit/537.36 (KHTML, like Gecko) Chrome/135.0.0.0 Safari/537.36","Macintosh","Chrome","135.0.0.0","OS X","10_15_7","https://hz8g1ckzuq.cognition.run/","en-US,en;q=0.9","4ta2218m3dva4up","25","[""Black or African-American""]","No","Male","2245150.900000006","null","","<p></p>","null","rating","cdt","repulsion_2","1","laptops","null","null","null","null","null","null","2","","","","","","","","","",""
"","","","","","rating_trial","survey-html-form","62","1368701","0.0-3.0-1.29","210","1","2025-04-14 15:17:11","bb671e3ae32f654b8954ea4c4635f915","","Mozilla/5.0 (Macintosh; Intel Mac OS X 10_15_7) AppleWebKit/537.36 (KHTML, like Gecko) Chrome/135.0.0.0 Safari/537.36","Macintosh","Chrome","135.0.0.0","OS X","10_15_7","https://hz8g1ckzuq.cognition.run/","en-US,en;q=0.9","4ta2218m3dva4up","25","[""Black or African-American""]","No","Male","2245150.900000006","31652","","","{""price_1"":""340"",""price_2"":""325"",""price_3"":""340""}","rating","cdt","repulsion_2","1","laptops","null","null","null","null","null","null","2","100","90","100","30","40","20","Processing speed","Memory (RAM)","",""
"","","","","","rating_trial_setup","html-keyboard-response","63","1369005","0.0-3.0-0.30","210","1","2025-04-14 15:17:11","bb671e3ae32f654b8954ea4c4635f915","","Mozilla/5.0 (Macintosh; Intel Mac OS X 10_15_7) AppleWebKit/537.36 (KHTML, like Gecko) Chrome/135.0.0.0 Safari/537.36","Macintosh","Chrome","135.0.0.0","OS X","10_15_7","https://hz8g1ckzuq.cognition.run/","en-US,en;q=0.9","4ta2218m3dva4up","25","[""Black or African-American""]","No","Male","2245150.900000006","null","","<p></p>","null","rating","ctd","repulsion_2","2","microwave ovens","null","null","null","null","null","null","1","","","","","","","","","",""
"","","","","","rating_trial","survey-html-form","64","1409597","0.0-3.0-1.30","210","1","2025-04-14 15:17:11","bb671e3ae32f654b8954ea4c4635f915","","Mozilla/5.0 (Macintosh; Intel Mac OS X 10_15_7) AppleWebKit/537.36 (KHTML, like Gecko) Chrome/135.0.0.0 Safari/537.36","Macintosh","Chrome","135.0.0.0","OS X","10_15_7","https://hz8g1ckzuq.cognition.run/","en-US,en;q=0.9","4ta2218m3dva4up","25","[""Black or African-American""]","No","Male","2245150.900000006","40586","","","{""price_1"":""125"",""price_2"":""125"",""price_3"":""110""}","rating","ctd","repulsion_2","2","microwave ovens","null","null","null","null","null","null","1","30","40","20","100","90","100","Warranty","Cooking power","",""
"","","","","","rating_trial_setup","html-keyboard-response","65","1409901","0.0-3.0-0.31","210","1","2025-04-14 15:17:11","bb671e3ae32f654b8954ea4c4635f915","","Mozilla/5.0 (Macintosh; Intel Mac OS X 10_15_7) AppleWebKit/537.36 (KHTML, like Gecko) Chrome/135.0.0.0 Safari/537.36","Macintosh","Chrome","135.0.0.0","OS X","10_15_7","https://hz8g1ckzuq.cognition.run/","en-US,en;q=0.9","4ta2218m3dva4up","25","[""Black or African-American""]","No","Male","2245150.900000006","null","","<p></p>","null","rating","tcd","attraction_2","1","microwave ovens","null","null","null","null","null","null","2","","","","","","","","","",""
"","","","","","rating_trial","survey-html-form","66","1431508","0.0-3.0-1.31","210","1","2025-04-14 15:17:11","bb671e3ae32f654b8954ea4c4635f915","","Mozilla/5.0 (Macintosh; Intel Mac OS X 10_15_7) AppleWebKit/537.36 (KHTML, like Gecko) Chrome/135.0.0.0 Safari/537.36","Macintosh","Chrome","135.0.0.0","OS X","10_15_7","https://hz8g1ckzuq.cognition.run/","en-US,en;q=0.9","4ta2218m3dva4up","25","[""Black or African-American""]","No","Male","2245150.900000006","21602","","","{""price_1"":""125"",""price_2"":""125"",""price_3"":""110""}","rating","tcd","attraction_2","1","microwave ovens","null","null","null","null","null","null","2","60","50","60","50","60","40","Warranty","Cooking power","",""
"","","","","","rating_trial_setup","html-keyboard-response","67","1431812","0.0-3.0-0.32","210","1","2025-04-14 15:17:11","bb671e3ae32f654b8954ea4c4635f915","","Mozilla/5.0 (Macintosh; Intel Mac OS X 10_15_7) AppleWebKit/537.36 (KHTML, like Gecko) Chrome/135.0.0.0 Safari/537.36","Macintosh","Chrome","135.0.0.0","OS X","10_15_7","https://hz8g1ckzuq.cognition.run/","en-US,en;q=0.9","4ta2218m3dva4up","25","[""Black or African-American""]","No","Male","2245150.900000006","null","","<p></p>","null","rating","dct","attraction_1","1","microwave ovens","null","null","null","null","null","null","1","","","","","","","","","",""
"","","","","","rating_trial","survey-html-form","68","1456588","0.0-3.0-1.32","210","1","2025-04-14 15:17:11","bb671e3ae32f654b8954ea4c4635f915","","Mozilla/5.0 (Macintosh; Intel Mac OS X 10_15_7) AppleWebKit/537.36 (KHTML, like Gecko) Chrome/135.0.0.0 Safari/537.36","Macintosh","Chrome","135.0.0.0","OS X","10_15_7","https://hz8g1ckzuq.cognition.run/","en-US,en;q=0.9","4ta2218m3dva4up","25","[""Black or African-American""]","No","Male","2245150.900000006","24770","","","{""price_1"":""115"",""price_2"":""125"",""price_3"":""130""}","rating","dct","attraction_1","1","microwave ovens","null","null","null","null","null","null","1","60","50","60","50","60","45","Warranty","Cooking power","",""
"","","","","","rating_trial_setup","html-keyboard-response","69","1456893","0.0-3.0-0.33","210","1","2025-04-14 15:17:11","bb671e3ae32f654b8954ea4c4635f915","","Mozilla/5.0 (Macintosh; Intel Mac OS X 10_15_7) AppleWebKit/537.36 (KHTML, like Gecko) Chrome/135.0.0.0 Safari/537.36","Macintosh","Chrome","135.0.0.0","OS X","10_15_7","https://hz8g1ckzuq.cognition.run/","en-US,en;q=0.9","4ta2218m3dva4up","25","[""Black or African-American""]","No","Male","2245150.900000006","null","","<p></p>","null","rating","dtc","repulsion_1","2","televisions","null","null","null","null","null","null","1","","","","","","","","","",""
"","","","","","rating_trial","survey-html-form","70","1473871","0.0-3.0-1.33","210","1","2025-04-14 15:17:11","bb671e3ae32f654b8954ea4c4635f915","","Mozilla/5.0 (Macintosh; Intel Mac OS X 10_15_7) AppleWebKit/537.36 (KHTML, like Gecko) Chrome/135.0.0.0 Safari/537.36","Macintosh","Chrome","135.0.0.0","OS X","10_15_7","https://hz8g1ckzuq.cognition.run/","en-US,en;q=0.9","4ta2218m3dva4up","25","[""Black or African-American""]","No","Male","2245150.900000006","16971","","","{""price_1"":""120"",""price_2"":""130"",""price_3"":""140""}","rating","dtc","repulsion_1","2","televisions","null","null","null","null","null","null","1","30","40","25","100","90","100","Screen size","Average lifespan","",""
"","","","","","rating_trial_setup","html-keyboard-response","71","1474176","0.0-3.0-0.34","210","1","2025-04-14 15:17:11","bb671e3ae32f654b8954ea4c4635f915","","Mozilla/5.0 (Macintosh; Intel Mac OS X 10_15_7) AppleWebKit/537.36 (KHTML, like Gecko) Chrome/135.0.0.0 Safari/537.36","Macintosh","Chrome","135.0.0.0","OS X","10_15_7","https://hz8g1ckzuq.cognition.run/","en-US,en;q=0.9","4ta2218m3dva4up","25","[""Black or African-American""]","No","Male","2245150.900000006","null","","<p></p>","null","rating","wwb","catch","null","laptops","70","90","50","25","45","25","1","","","","","","","","","",""
"","","","","","rating_trial","survey-html-form","72","1492635","0.0-3.0-1.34","210","1","2025-04-14 15:17:11","bb671e3ae32f654b8954ea4c4635f915","","Mozilla/5.0 (Macintosh; Intel Mac OS X 10_15_7) AppleWebKit/537.36 (KHTML, like Gecko) Chrome/135.0.0.0 Safari/537.36","Macintosh","Chrome","135.0.0.0","OS X","10_15_7","https://hz8g1ckzuq.cognition.run/","en-US,en;q=0.9","4ta2218m3dva4up","25","[""Black or African-American""]","No","Male","2245150.900000006","18452","","","{""price_1"":""220"",""price_2"":""225"",""price_3"":""350""}","rating","wwb","catch","null","laptops","70","90","50","25","45","25","1","null","null","null","null","null","null","Processing speed","Memory (RAM)","",""
"","","","","","rating_trial_setup","html-keyboard-response","73","1492938","0.0-3.0-0.35","210","1","2025-04-14 15:17:11","bb671e3ae32f654b8954ea4c4635f915","","Mozilla/5.0 (Macintosh; Intel Mac OS X 10_15_7) AppleWebKit/537.36 (KHTML, like Gecko) Chrome/135.0.0.0 Safari/537.36","Macintosh","Chrome","135.0.0.0","OS X","10_15_7","https://hz8g1ckzuq.cognition.run/","en-US,en;q=0.9","4ta2218m3dva4up","25","[""Black or African-American""]","No","Male","2245150.900000006","null","","<p></p>","null","rating","bww","catch","null","washing machines","75","90","10","30","30","30","1","","","","","","","","","",""
"","","","","","rating_trial","survey-html-form","74","1896339","0.0-3.0-1.35","210","1","2025-04-14 15:17:11","bb671e3ae32f654b8954ea4c4635f915","","Mozilla/5.0 (Macintosh; Intel Mac OS X 10_15_7) AppleWebKit/537.36 (KHTML, like Gecko) Chrome/135.0.0.0 Safari/537.36","Macintosh","Chrome","135.0.0.0","OS X","10_15_7","https://hz8g1ckzuq.cognition.run/","en-US,en;q=0.9","4ta2218m3dva4up","25","[""Black or African-American""]","No","Male","2245150.900000006","403384","","","{""price_1"":""500"",""price_2"":""120"",""price_3"":""300""}","rating","bww","catch","null","washing machines","75","90","10","30","30","30","1","null","null","null","null","null","null","Average lifespan","Energy savings","",""
"","","","","","rating_trial_setup","html-keyboard-response","75","1896644","0.0-3.0-0.36","210","1","2025-04-14 15:17:11","bb671e3ae32f654b8954ea4c4635f915","","Mozilla/5.0 (Macintosh; Intel Mac OS X 10_15_7) AppleWebKit/537.36 (KHTML, like Gecko) Chrome/135.0.0.0 Safari/537.36","Macintosh","Chrome","135.0.0.0","OS X","10_15_7","https://hz8g1ckzuq.cognition.run/","en-US,en;q=0.9","4ta2218m3dva4up","25","[""Black or African-American""]","No","Male","2245150.900000006","null","","<p></p>","null","rating","dtc","repulsion_2","2","washing machines","null","null","null","null","null","null","2","","","","","","","","","",""
"","","","","","rating_trial","survey-html-form","76","1913651","0.0-3.0-1.36","210","1","2025-04-14 15:17:11","bb671e3ae32f654b8954ea4c4635f915","","Mozilla/5.0 (Macintosh; Intel Mac OS X 10_15_7) AppleWebKit/537.36 (KHTML, like Gecko) Chrome/135.0.0.0 Safari/537.36","Macintosh","Chrome","135.0.0.0","OS X","10_15_7","https://hz8g1ckzuq.cognition.run/","en-US,en;q=0.9","4ta2218m3dva4up","25","[""Black or African-American""]","No","Male","2245150.900000006","17001","","","{""price_1"":""280"",""price_2"":""300"",""price_3"":""380""}","rating","dtc","repulsion_2","2","washing machines","null","null","null","null","null","null","2","30","40","20","100","90","100","Average lifespan","Energy savings","",""
"","","","","","rating_trial_setup","html-keyboard-response","77","1913955","0.0-3.0-0.37","210","1","2025-04-14 15:17:11","bb671e3ae32f654b8954ea4c4635f915","","Mozilla/5.0 (Macintosh; Intel Mac OS X 10_15_7) AppleWebKit/537.36 (KHTML, like Gecko) Chrome/135.0.0.0 Safari/537.36","Macintosh","Chrome","135.0.0.0","OS X","10_15_7","https://hz8g1ckzuq.cognition.run/","en-US,en;q=0.9","4ta2218m3dva4up","25","[""Black or African-American""]","No","Male","2245150.900000006","null","","<p></p>","null","rating","tdc","repulsion_1","2","washing machines","null","null","null","null","null","null","1","","","","","","","","","",""
"","","","","","rating_trial","survey-html-form","78","1929859","0.0-3.0-1.37","210","1","2025-04-14 15:17:11","bb671e3ae32f654b8954ea4c4635f915","","Mozilla/5.0 (Macintosh; Intel Mac OS X 10_15_7) AppleWebKit/537.36 (KHTML, like Gecko) Chrome/135.0.0.0 Safari/537.36","Macintosh","Chrome","135.0.0.0","OS X","10_15_7","https://hz8g1ckzuq.cognition.run/","en-US,en;q=0.9","4ta2218m3dva4up","25","[""Black or African-American""]","No","Male","2245150.900000006","15900","","","{""price_1"":""340"",""price_2"":""320"",""price_3"":""380""}","rating","tdc","repulsion_1","2","washing machines","null","null","null","null","null","null","1","30","40","25","100","90","100","Average lifespan","Energy savings","",""
"","","","","","rating_trial_setup","html-keyboard-response","79","1930164","0.0-3.0-0.38","210","1","2025-04-14 15:17:11","bb671e3ae32f654b8954ea4c4635f915","","Mozilla/5.0 (Macintosh; Intel Mac OS X 10_15_7) AppleWebKit/537.36 (KHTML, like Gecko) Chrome/135.0.0.0 Safari/537.36","Macintosh","Chrome","135.0.0.0","OS X","10_15_7","https://hz8g1ckzuq.cognition.run/","en-US,en;q=0.9","4ta2218m3dva4up","25","[""Black or African-American""]","No","Male","2245150.900000006","null","","<p></p>","null","rating","tcd","repulsion_2","1","televisions","null","null","null","null","null","null","1","","","","","","","","","",""
"","","","","","rating_trial","survey-html-form","80","1949949","0.0-3.0-1.38","210","1","2025-04-14 15:17:11","bb671e3ae32f654b8954ea4c4635f915","","Mozilla/5.0 (Macintosh; Intel Mac OS X 10_15_7) AppleWebKit/537.36 (KHTML, like Gecko) Chrome/135.0.0.0 Safari/537.36","Macintosh","Chrome","135.0.0.0","OS X","10_15_7","https://hz8g1ckzuq.cognition.run/","en-US,en;q=0.9","4ta2218m3dva4up","25","[""Black or African-American""]","No","Male","2245150.900000006","19778","","","{""price_1"":""275"",""price_2"":""340"",""price_3"":""350""}","rating","tcd","repulsion_2","1","televisions","null","null","null","null","null","null","1","100","90","100","30","40","20","Screen size","Average lifespan","",""
"","","","","","rating_trial_setup","html-keyboard-response","81","1950252","0.0-3.0-0.39","210","1","2025-04-14 15:17:11","bb671e3ae32f654b8954ea4c4635f915","","Mozilla/5.0 (Macintosh; Intel Mac OS X 10_15_7) AppleWebKit/537.36 (KHTML, like Gecko) Chrome/135.0.0.0 Safari/537.36","Macintosh","Chrome","135.0.0.0","OS X","10_15_7","https://hz8g1ckzuq.cognition.run/","en-US,en;q=0.9","4ta2218m3dva4up","25","[""Black or African-American""]","No","Male","2245150.900000006","null","","<p></p>","null","rating","ctd","attraction_1","1","televisions","null","null","null","null","null","null","2","","","","","","","","","",""
"","","","","","rating_trial","survey-html-form","82","1963563","0.0-3.0-1.39","210","1","2025-04-14 15:17:11","bb671e3ae32f654b8954ea4c4635f915","","Mozilla/5.0 (Macintosh; Intel Mac OS X 10_15_7) AppleWebKit/537.36 (KHTML, like Gecko) Chrome/135.0.0.0 Safari/537.36","Macintosh","Chrome","135.0.0.0","OS X","10_15_7","https://hz8g1ckzuq.cognition.run/","en-US,en;q=0.9","4ta2218m3dva4up","25","[""Black or African-American""]","No","Male","2245150.900000006","13306","","","{""price_1"":""340"",""price_2"":""350"",""price_3"":""335""}","rating","ctd","attraction_1","1","televisions","null","null","null","null","null","null","2","60","50","60","50","60","45","Screen size","Average lifespan","",""
"","","","","","","instructions","83","2001344","0.0-4.0","210","1","2025-04-14 15:17:11","bb671e3ae32f654b8954ea4c4635f915","","Mozilla/5.0 (Macintosh; Intel Mac OS X 10_15_7) AppleWebKit/537.36 (KHTML, like Gecko) Chrome/135.0.0.0 Safari/537.36","Macintosh","Chrome","135.0.0.0","OS X","10_15_7","https://hz8g1ckzuq.cognition.run/","en-US,en;q=0.9","4ta2218m3dva4up","25","[""Black or African-American""]","No","Male","2245150.900000006","37777","[{""page_index"":0,""viewing_time"":9914},{""page_index"":1,""viewing_time"":1024},{""page_index"":2,""viewing_time"":6747},{""page_index"":3,""viewing_time"":2333},{""page_index"":4,""viewing_time"":5494},{""page_index"":5,""viewing_time"":2744},{""page_index"":6,""viewing_time"":4269},{""page_index"":7,""viewing_time"":5251}]","","","","","","","","","","","","","","","","","","","","","","","",""
"","","","","","choice_trial_setup","html-keyboard-response","84","2001650","0.0-5.0-0.0","210","1","2025-04-14 15:17:11","bb671e3ae32f654b8954ea4c4635f915","","Mozilla/5.0 (Macintosh; Intel Mac OS X 10_15_7) AppleWebKit/537.36 (KHTML, like Gecko) Chrome/135.0.0.0 Safari/537.36","Macintosh","Chrome","135.0.0.0","OS X","10_15_7","https://hz8g1ckzuq.cognition.run/","en-US,en;q=0.9","4ta2218m3dva4up","25","[""Black or African-American""]","No","Male","2245150.900000006","null","","<p></p>","null","choice","tcd","repulsion_2","2","televisions","null","null","null","null","null","null","2","","","","","","","","","",""
"","","","","","choice_trial","survey-html-form","85","2040498","0.0-5.0-1.0","210","1","2025-04-14 15:17:11","bb671e3ae32f654b8954ea4c4635f915","","Mozilla/5.0 (Macintosh; Intel Mac OS X 10_15_7) AppleWebKit/537.36 (KHTML, like Gecko) Chrome/135.0.0.0 Safari/537.36","Macintosh","Chrome","135.0.0.0","OS X","10_15_7","https://hz8g1ckzuq.cognition.run/","en-US,en;q=0.9","4ta2218m3dva4up","25","[""Black or African-American""]","No","Male","2245150.900000006","38840","","","{""product_choice"":""B""}","choice","tcd","repulsion_2","2","televisions","null","null","null","null","null","null","2","30","40","20","100","90","100","Screen size","Average lifespan","",""
"","","","","","choice_trial_setup","html-keyboard-response","86","2040803","0.0-5.0-0.1","210","1","2025-04-14 15:17:11","bb671e3ae32f654b8954ea4c4635f915","","Mozilla/5.0 (Macintosh; Intel Mac OS X 10_15_7) AppleWebKit/537.36 (KHTML, like Gecko) Chrome/135.0.0.0 Safari/537.36","Macintosh","Chrome","135.0.0.0","OS X","10_15_7","https://hz8g1ckzuq.cognition.run/","en-US,en;q=0.9","4ta2218m3dva4up","25","[""Black or African-American""]","No","Male","2245150.900000006","null","","<p></p>","null","choice","dtc","repulsion_1","2","laptops","null","null","null","null","null","null","1","","","","","","","","","",""
"","","","","","choice_trial","survey-html-form","87","2047980","0.0-5.0-1.1","210","1","2025-04-14 15:17:11","bb671e3ae32f654b8954ea4c4635f915","","Mozilla/5.0 (Macintosh; Intel Mac OS X 10_15_7) AppleWebKit/537.36 (KHTML, like Gecko) Chrome/135.0.0.0 Safari/537.36","Macintosh","Chrome","135.0.0.0","OS X","10_15_7","https://hz8g1ckzuq.cognition.run/","en-US,en;q=0.9","4ta2218m3dva4up","25","[""Black or African-American""]","No","Male","2245150.900000006","7172","","","{""product_choice"":""B""}","choice","dtc","repulsion_1","2","laptops","null","null","null","null","null","null","1","30","40","25","100","90","100","Processing speed","Memory (RAM)","",""
"","","","","","choice_trial_setup","html-keyboard-response","88","2048286","0.0-5.0-0.2","210","1","2025-04-14 15:17:11","bb671e3ae32f654b8954ea4c4635f915","","Mozilla/5.0 (Macintosh; Intel Mac OS X 10_15_7) AppleWebKit/537.36 (KHTML, like Gecko) Chrome/135.0.0.0 Safari/537.36","Macintosh","Chrome","135.0.0.0","OS X","10_15_7","https://hz8g1ckzuq.cognition.run/","en-US,en;q=0.9","4ta2218m3dva4up","25","[""Black or African-American""]","No","Male","2245150.900000006","null","","<p></p>","null","choice","dct","repulsion_1","1","televisions","null","null","null","null","null","null","1","","","","","","","","","",""
"","","","","","choice_trial","survey-html-form","89","2054563","0.0-5.0-1.2","210","1","2025-04-14 15:17:11","bb671e3ae32f654b8954ea4c4635f915","","Mozilla/5.0 (Macintosh; Intel Mac OS X 10_15_7) AppleWebKit/537.36 (KHTML, like Gecko) Chrome/135.0.0.0 Safari/537.36","Macintosh","Chrome","135.0.0.0","OS X","10_15_7","https://hz8g1ckzuq.cognition.run/","en-US,en;q=0.9","4ta2218m3dva4up","25","[""Black or African-American""]","No","Male","2245150.900000006","6271","","","{""product_choice"":""C""}","choice","dct","repulsion_1","1","televisions","null","null","null","null","null","null","1","100","90","100","30","40","25","Screen size","Average lifespan","",""
"","","","","","choice_trial_setup","html-keyboard-response","90","2054871","0.0-5.0-0.3","210","1","2025-04-14 15:17:11","bb671e3ae32f654b8954ea4c4635f915","","Mozilla/5.0 (Macintosh; Intel Mac OS X 10_15_7) AppleWebKit/537.36 (KHTML, like Gecko) Chrome/135.0.0.0 Safari/537.36","Macintosh","Chrome","135.0.0.0","OS X","10_15_7","https://hz8g1ckzuq.cognition.run/","en-US,en;q=0.9","4ta2218m3dva4up","25","[""Black or African-American""]","No","Male","2245150.900000006","null","","<p></p>","null","choice","dtc","attraction_1","1","washing machines","null","null","null","null","null","null","2","","","","","","","","","",""
"","","","","","choice_trial","survey-html-form","91","2061543","0.0-5.0-1.3","210","1","2025-04-14 15:17:11","bb671e3ae32f654b8954ea4c4635f915","","Mozilla/5.0 (Macintosh; Intel Mac OS X 10_15_7) AppleWebKit/537.36 (KHTML, like Gecko) Chrome/135.0.0.0 Safari/537.36","Macintosh","Chrome","135.0.0.0","OS X","10_15_7","https://hz8g1ckzuq.cognition.run/","en-US,en;q=0.9","4ta2218m3dva4up","25","[""Black or African-American""]","No","Male","2245150.900000006","6665","","","{""product_choice"":""C""}","choice","dtc","attraction_1","1","washing machines","null","null","null","null","null","null","2","60","50","60","50","60","45","Average lifespan","Energy savings","",""
"","","","","","choice_trial_setup","html-keyboard-response","92","2061850","0.0-5.0-0.4","210","1","2025-04-14 15:17:11","bb671e3ae32f654b8954ea4c4635f915","","Mozilla/5.0 (Macintosh; Intel Mac OS X 10_15_7) AppleWebKit/537.36 (KHTML, like Gecko) Chrome/135.0.0.0 Safari/537.36","Macintosh","Chrome","135.0.0.0","OS X","10_15_7","https://hz8g1ckzuq.cognition.run/","en-US,en;q=0.9","4ta2218m3dva4up","25","[""Black or African-American""]","No","Male","2245150.900000006","null","","<p></p>","null","choice","ctd","attraction_1","2","microwave ovens","null","null","null","null","null","null","2","","","","","","","","","",""
"","","","","","choice_trial","survey-html-form","93","2066366","0.0-5.0-1.4","210","1","2025-04-14 15:17:11","bb671e3ae32f654b8954ea4c4635f915","","Mozilla/5.0 (Macintosh; Intel Mac OS X 10_15_7) AppleWebKit/537.36 (KHTML, like Gecko) Chrome/135.0.0.0 Safari/537.36","Macintosh","Chrome","135.0.0.0","OS X","10_15_7","https://hz8g1ckzuq.cognition.run/","en-US,en;q=0.9","4ta2218m3dva4up","25","[""Black or African-American""]","No","Male","2245150.900000006","4512","","","{""product_choice"":""B""}","choice","ctd","attraction_1","2","microwave ovens","null","null","null","null","null","null","2","50","60","45","60","50","60","Warranty","Cooking power","",""
"","","","","","choice_trial_setup","html-keyboard-response","94","2066671","0.0-5.0-0.5","210","1","2025-04-14 15:17:11","bb671e3ae32f654b8954ea4c4635f915","","Mozilla/5.0 (Macintosh; Intel Mac OS X 10_15_7) AppleWebKit/537.36 (KHTML, like Gecko) Chrome/135.0.0.0 Safari/537.36","Macintosh","Chrome","135.0.0.0","OS X","10_15_7","https://hz8g1ckzuq.cognition.run/","en-US,en;q=0.9","4ta2218m3dva4up","25","[""Black or African-American""]","No","Male","2245150.900000006","null","","<p></p>","null","choice","dct","attraction_2","2","washing machines","null","null","null","null","null","null","1","","","","","","","","","",""
"","","","","","choice_trial","survey-html-form","95","2073224","0.0-5.0-1.5","210","1","2025-04-14 15:17:11","bb671e3ae32f654b8954ea4c4635f915","","Mozilla/5.0 (Macintosh; Intel Mac OS X 10_15_7) AppleWebKit/537.36 (KHTML, like Gecko) Chrome/135.0.0.0 Safari/537.36","Macintosh","Chrome","135.0.0.0","OS X","10_15_7","https://hz8g1ckzuq.cognition.run/","en-US,en;q=0.9","4ta2218m3dva4up","25","[""Black or African-American""]","No","Male","2245150.900000006","6547","","","{""product_choice"":""B""}","choice","dct","attraction_2","2","washing machines","null","null","null","null","null","null","1","50","60","40","60","50","60","Average lifespan","Energy savings","",""
"","","","","","choice_trial_setup","html-keyboard-response","96","2073531","0.0-5.0-0.6","210","1","2025-04-14 15:17:11","bb671e3ae32f654b8954ea4c4635f915","","Mozilla/5.0 (Macintosh; Intel Mac OS X 10_15_7) AppleWebKit/537.36 (KHTML, like Gecko) Chrome/135.0.0.0 Safari/537.36","Macintosh","Chrome","135.0.0.0","OS X","10_15_7","https://hz8g1ckzuq.cognition.run/","en-US,en;q=0.9","4ta2218m3dva4up","25","[""Black or African-American""]","No","Male","2245150.900000006","null","","<p></p>","null","choice","dtc","repulsion_2","1","televisions","null","null","null","null","null","null","2","","","","","","","","","",""
"","","","","","choice_trial","survey-html-form","97","2083383","0.0-5.0-1.6","210","1","2025-04-14 15:17:11","bb671e3ae32f654b8954ea4c4635f915","","Mozilla/5.0 (Macintosh; Intel Mac OS X 10_15_7) AppleWebKit/537.36 (KHTML, like Gecko) Chrome/135.0.0.0 Safari/537.36","Macintosh","Chrome","135.0.0.0","OS X","10_15_7","https://hz8g1ckzuq.cognition.run/","en-US,en;q=0.9","4ta2218m3dva4up","25","[""Black or African-American""]","No","Male","2245150.900000006","9845","","","{""product_choice"":""C""}","choice","dtc","repulsion_2","1","televisions","null","null","null","null","null","null","2","100","90","100","30","40","20","Screen size","Average lifespan","",""
"","","","","","choice_trial_setup","html-keyboard-response","98","2083690","0.0-5.0-0.7","210","1","2025-04-14 15:17:11","bb671e3ae32f654b8954ea4c4635f915","","Mozilla/5.0 (Macintosh; Intel Mac OS X 10_15_7) AppleWebKit/537.36 (KHTML, like Gecko) Chrome/135.0.0.0 Safari/537.36","Macintosh","Chrome","135.0.0.0","OS X","10_15_7","https://hz8g1ckzuq.cognition.run/","en-US,en;q=0.9","4ta2218m3dva4up","25","[""Black or African-American""]","No","Male","2245150.900000006","null","","<p></p>","null","choice","bww","catch","null","televisions","75","55","5","20","50","50","1","","","","","","","","","",""
"","","","","","choice_trial","survey-html-form","99","2085836","0.0-5.0-1.7","210","1","2025-04-14 15:17:11","bb671e3ae32f654b8954ea4c4635f915","","Mozilla/5.0 (Macintosh; Intel Mac OS X 10_15_7) AppleWebKit/537.36 (KHTML, like Gecko) Chrome/135.0.0.0 Safari/537.36","Macintosh","Chrome","135.0.0.0","OS X","10_15_7","https://hz8g1ckzuq.cognition.run/","en-US,en;q=0.9","4ta2218m3dva4up","25","[""Black or African-American""]","No","Male","2245150.900000006","2136","","","{""product_choice"":""C""}","choice","bww","catch","null","televisions","75","55","5","20","50","50","1","null","null","null","null","null","null","Screen size","Average lifespan","",""
"","","","","","choice_trial_setup","html-keyboard-response","100","2086141","0.0-5.0-0.8","210","1","2025-04-14 15:17:11","bb671e3ae32f654b8954ea4c4635f915","","Mozilla/5.0 (Macintosh; Intel Mac OS X 10_15_7) AppleWebKit/537.36 (KHTML, like Gecko) Chrome/135.0.0.0 Safari/537.36","Macintosh","Chrome","135.0.0.0","OS X","10_15_7","https://hz8g1ckzuq.cognition.run/","en-US,en;q=0.9","4ta2218m3dva4up","25","[""Black or African-American""]","No","Male","2245150.900000006","null","","<p></p>","null","choice","wbw","catch","null","microwave ovens","90","95","10","50","5","30","2","","","","","","","","","",""
"","","","","","choice_trial","survey-html-form","101","2089324","0.0-5.0-1.8","210","1","2025-04-14 15:17:11","bb671e3ae32f654b8954ea4c4635f915","","Mozilla/5.0 (Macintosh; Intel Mac OS X 10_15_7) AppleWebKit/537.36 (KHTML, like Gecko) Chrome/135.0.0.0 Safari/537.36","Macintosh","Chrome","135.0.0.0","OS X","10_15_7","https://hz8g1ckzuq.cognition.run/","en-US,en;q=0.9","4ta2218m3dva4up","25","[""Black or African-American""]","No","Male","2245150.900000006","3176","","","{""product_choice"":""B""}","choice","wbw","catch","null","microwave ovens","90","95","10","50","5","30","2","null","null","null","null","null","null","Warranty","Cooking power","",""
"","","","","","choice_trial_setup","html-keyboard-response","102","2089631","0.0-5.0-0.9","210","1","2025-04-14 15:17:11","bb671e3ae32f654b8954ea4c4635f915","","Mozilla/5.0 (Macintosh; Intel Mac OS X 10_15_7) AppleWebKit/537.36 (KHTML, like Gecko) Chrome/135.0.0.0 Safari/537.36","Macintosh","Chrome","135.0.0.0","OS X","10_15_7","https://hz8g1ckzuq.cognition.run/","en-US,en;q=0.9","4ta2218m3dva4up","25","[""Black or African-American""]","No","Male","2245150.900000006","null","","<p></p>","null","choice","tcd","attraction_1","1","microwave ovens","null","null","null","null","null","null","2","","","","","","","","","",""
"","","","","","choice_trial","survey-html-form","103","2092614","0.0-5.0-1.9","210","1","2025-04-14 15:17:11","bb671e3ae32f654b8954ea4c4635f915","","Mozilla/5.0 (Macintosh; Intel Mac OS X 10_15_7) AppleWebKit/537.36 (KHTML, like Gecko) Chrome/135.0.0.0 Safari/537.36","Macintosh","Chrome","135.0.0.0","OS X","10_15_7","https://hz8g1ckzuq.cognition.run/","en-US,en;q=0.9","4ta2218m3dva4up","25","[""Black or African-American""]","No","Male","2245150.900000006","2976","","","{""product_choice"":""B""}","choice","tcd","attraction_1","1","microwave ovens","null","null","null","null","null","null","2","60","50","60","50","60","45","Warranty","Cooking power","",""
"","","","","","choice_trial_setup","html-keyboard-response","104","2092921","0.0-5.0-0.10","210","1","2025-04-14 15:17:11","bb671e3ae32f654b8954ea4c4635f915","","Mozilla/5.0 (Macintosh; Intel Mac OS X 10_15_7) AppleWebKit/537.36 (KHTML, like Gecko) Chrome/135.0.0.0 Safari/537.36","Macintosh","Chrome","135.0.0.0","OS X","10_15_7","https://hz8g1ckzuq.cognition.run/","en-US,en;q=0.9","4ta2218m3dva4up","25","[""Black or African-American""]","No","Male","2245150.900000006","null","","<p></p>","null","choice","tcd","attraction_2","1","washing machines","null","null","null","null","null","null","1","","","","","","","","","",""
"","","","","","choice_trial","survey-html-form","105","2095560","0.0-5.0-1.10","210","1","2025-04-14 15:17:11","bb671e3ae32f654b8954ea4c4635f915","","Mozilla/5.0 (Macintosh; Intel Mac OS X 10_15_7) AppleWebKit/537.36 (KHTML, like Gecko) Chrome/135.0.0.0 Safari/537.36","Macintosh","Chrome","135.0.0.0","OS X","10_15_7","https://hz8g1ckzuq.cognition.run/","en-US,en;q=0.9","4ta2218m3dva4up","25","[""Black or African-American""]","No","Male","2245150.900000006","2633","","","{""product_choice"":""A""}","choice","tcd","attraction_2","1","washing machines","null","null","null","null","null","null","1","60","50","60","50","60","40","Average lifespan","Energy savings","",""
"","","","","","choice_trial_setup","html-keyboard-response","106","2095866","0.0-5.0-0.11","210","1","2025-04-14 15:17:11","bb671e3ae32f654b8954ea4c4635f915","","Mozilla/5.0 (Macintosh; Intel Mac OS X 10_15_7) AppleWebKit/537.36 (KHTML, like Gecko) Chrome/135.0.0.0 Safari/537.36","Macintosh","Chrome","135.0.0.0","OS X","10_15_7","https://hz8g1ckzuq.cognition.run/","en-US,en;q=0.9","4ta2218m3dva4up","25","[""Black or African-American""]","No","Male","2245150.900000006","null","","<p></p>","null","choice","bww","catch","null","washing machines","65","50","15","45","5","50","2","","","","","","","","","",""
"","","","","","choice_trial","survey-html-form","107","2101262","0.0-5.0-1.11","210","1","2025-04-14 15:17:11","bb671e3ae32f654b8954ea4c4635f915","","Mozilla/5.0 (Macintosh; Intel Mac OS X 10_15_7) AppleWebKit/537.36 (KHTML, like Gecko) Chrome/135.0.0.0 Safari/537.36","Macintosh","Chrome","135.0.0.0","OS X","10_15_7","https://hz8g1ckzuq.cognition.run/","en-US,en;q=0.9","4ta2218m3dva4up","25","[""Black or African-American""]","No","Male","2245150.900000006","5390","","","{""product_choice"":""A""}","choice","bww","catch","null","washing machines","65","50","15","45","5","50","2","null","null","null","null","null","null","Average lifespan","Energy savings","",""
"","","","","","choice_trial_setup","html-keyboard-response","108","2101567","0.0-5.0-0.12","210","1","2025-04-14 15:17:11","bb671e3ae32f654b8954ea4c4635f915","","Mozilla/5.0 (Macintosh; Intel Mac OS X 10_15_7) AppleWebKit/537.36 (KHTML, like Gecko) Chrome/135.0.0.0 Safari/537.36","Macintosh","Chrome","135.0.0.0","OS X","10_15_7","https://hz8g1ckzuq.cognition.run/","en-US,en;q=0.9","4ta2218m3dva4up","25","[""Black or African-American""]","No","Male","2245150.900000006","null","","<p></p>","null","choice","tcd","attraction_2","1","laptops","null","null","null","null","null","null","1","","","","","","","","","",""
"","","","","","choice_trial","survey-html-form","109","2104599","0.0-5.0-1.12","210","1","2025-04-14 15:17:11","bb671e3ae32f654b8954ea4c4635f915","","Mozilla/5.0 (Macintosh; Intel Mac OS X 10_15_7) AppleWebKit/537.36 (KHTML, like Gecko) Chrome/135.0.0.0 Safari/537.36","Macintosh","Chrome","135.0.0.0","OS X","10_15_7","https://hz8g1ckzuq.cognition.run/","en-US,en;q=0.9","4ta2218m3dva4up","25","[""Black or African-American""]","No","Male","2245150.900000006","3029","","","{""product_choice"":""A""}","choice","tcd","attraction_2","1","laptops","null","null","null","null","null","null","1","60","50","60","50","60","40","Processing speed","Memory (RAM)","",""
"","","","","","choice_trial_setup","html-keyboard-response","110","2104905","0.0-5.0-0.13","210","1","2025-04-14 15:17:11","bb671e3ae32f654b8954ea4c4635f915","","Mozilla/5.0 (Macintosh; Intel Mac OS X 10_15_7) AppleWebKit/537.36 (KHTML, like Gecko) Chrome/135.0.0.0 Safari/537.36","Macintosh","Chrome","135.0.0.0","OS X","10_15_7","https://hz8g1ckzuq.cognition.run/","en-US,en;q=0.9","4ta2218m3dva4up","25","[""Black or African-American""]","No","Male","2245150.900000006","null","","<p></p>","null","choice","tcd","attraction_1","1","laptops","null","null","null","null","null","null","1","","","","","","","","","",""
"","","","","","choice_trial","survey-html-form","111","2106670","0.0-5.0-1.13","210","1","2025-04-14 15:17:11","bb671e3ae32f654b8954ea4c4635f915","","Mozilla/5.0 (Macintosh; Intel Mac OS X 10_15_7) AppleWebKit/537.36 (KHTML, like Gecko) Chrome/135.0.0.0 Safari/537.36","Macintosh","Chrome","135.0.0.0","OS X","10_15_7","https://hz8g1ckzuq.cognition.run/","en-US,en;q=0.9","4ta2218m3dva4up","25","[""Black or African-American""]","No","Male","2245150.900000006","1759","","","{""product_choice"":""A""}","choice","tcd","attraction_1","1","laptops","null","null","null","null","null","null","1","60","50","60","50","60","45","Processing speed","Memory (RAM)","",""
"","","","","","choice_trial_setup","html-keyboard-response","112","2106976","0.0-5.0-0.14","210","1","2025-04-14 15:17:11","bb671e3ae32f654b8954ea4c4635f915","","Mozilla/5.0 (Macintosh; Intel Mac OS X 10_15_7) AppleWebKit/537.36 (KHTML, like Gecko) Chrome/135.0.0.0 Safari/537.36","Macintosh","Chrome","135.0.0.0","OS X","10_15_7","https://hz8g1ckzuq.cognition.run/","en-US,en;q=0.9","4ta2218m3dva4up","25","[""Black or African-American""]","No","Male","2245150.900000006","null","","<p></p>","null","choice","dtc","repulsion_1","2","microwave ovens","null","null","null","null","null","null","1","","","","","","","","","",""
"","","","","","choice_trial","survey-html-form","113","2112190","0.0-5.0-1.14","210","1","2025-04-14 15:17:11","bb671e3ae32f654b8954ea4c4635f915","","Mozilla/5.0 (Macintosh; Intel Mac OS X 10_15_7) AppleWebKit/537.36 (KHTML, like Gecko) Chrome/135.0.0.0 Safari/537.36","Macintosh","Chrome","135.0.0.0","OS X","10_15_7","https://hz8g1ckzuq.cognition.run/","en-US,en;q=0.9","4ta2218m3dva4up","25","[""Black or African-American""]","No","Male","2245150.900000006","5210","","","{""product_choice"":""C""}","choice","dtc","repulsion_1","2","microwave ovens","null","null","null","null","null","null","1","30","40","25","100","90","100","Warranty","Cooking power","",""
"","","","","","choice_trial_setup","html-keyboard-response","114","2112496","0.0-5.0-0.15","210","1","2025-04-14 15:17:11","bb671e3ae32f654b8954ea4c4635f915","","Mozilla/5.0 (Macintosh; Intel Mac OS X 10_15_7) AppleWebKit/537.36 (KHTML, like Gecko) Chrome/135.0.0.0 Safari/537.36","Macintosh","Chrome","135.0.0.0","OS X","10_15_7","https://hz8g1ckzuq.cognition.run/","en-US,en;q=0.9","4ta2218m3dva4up","25","[""Black or African-American""]","No","Male","2245150.900000006","null","","<p></p>","null","choice","tdc","attraction_1","1","televisions","null","null","null","null","null","null","1","","","","","","","","","",""
"","","","","","choice_trial","survey-html-form","115","2114857","0.0-5.0-1.15","210","1","2025-04-14 15:17:11","bb671e3ae32f654b8954ea4c4635f915","","Mozilla/5.0 (Macintosh; Intel Mac OS X 10_15_7) AppleWebKit/537.36 (KHTML, like Gecko) Chrome/135.0.0.0 Safari/537.36","Macintosh","Chrome","135.0.0.0","OS X","10_15_7","https://hz8g1ckzuq.cognition.run/","en-US,en;q=0.9","4ta2218m3dva4up","25","[""Black or African-American""]","No","Male","2245150.900000006","2356","","","{""product_choice"":""C""}","choice","tdc","attraction_1","1","televisions","null","null","null","null","null","null","1","60","50","60","50","60","45","Screen size","Average lifespan","",""
"","","","","","choice_trial_setup","html-keyboard-response","116","2115164","0.0-5.0-0.16","210","1","2025-04-14 15:17:11","bb671e3ae32f654b8954ea4c4635f915","","Mozilla/5.0 (Macintosh; Intel Mac OS X 10_15_7) AppleWebKit/537.36 (KHTML, like Gecko) Chrome/135.0.0.0 Safari/537.36","Macintosh","Chrome","135.0.0.0","OS X","10_15_7","https://hz8g1ckzuq.cognition.run/","en-US,en;q=0.9","4ta2218m3dva4up","25","[""Black or African-American""]","No","Male","2245150.900000006","null","","<p></p>","null","choice","ctd","repulsion_2","1","washing machines","null","null","null","null","null","null","2","","","","","","","","","",""
"","","","","","choice_trial","survey-html-form","117","2118554","0.0-5.0-1.16","210","1","2025-04-14 15:17:11","bb671e3ae32f654b8954ea4c4635f915","","Mozilla/5.0 (Macintosh; Intel Mac OS X 10_15_7) AppleWebKit/537.36 (KHTML, like Gecko) Chrome/135.0.0.0 Safari/537.36","Macintosh","Chrome","135.0.0.0","OS X","10_15_7","https://hz8g1ckzuq.cognition.run/","en-US,en;q=0.9","4ta2218m3dva4up","25","[""Black or African-American""]","No","Male","2245150.900000006","3386","","","{""product_choice"":""B""}","choice","ctd","repulsion_2","1","washing machines","null","null","null","null","null","null","2","100","90","100","30","40","20","Average lifespan","Energy savings","",""
"","","","","","choice_trial_setup","html-keyboard-response","118","2118862","0.0-5.0-0.17","210","1","2025-04-14 15:17:11","bb671e3ae32f654b8954ea4c4635f915","","Mozilla/5.0 (Macintosh; Intel Mac OS X 10_15_7) AppleWebKit/537.36 (KHTML, like Gecko) Chrome/135.0.0.0 Safari/537.36","Macintosh","Chrome","135.0.0.0","OS X","10_15_7","https://hz8g1ckzuq.cognition.run/","en-US,en;q=0.9","4ta2218m3dva4up","25","[""Black or African-American""]","No","Male","2245150.900000006","null","","<p></p>","null","choice","wwb","catch","null","televisions","60","90","5","20","25","45","1","","","","","","","","","",""
"","","","","","choice_trial","survey-html-form","119","2122107","0.0-5.0-1.17","210","1","2025-04-14 15:17:11","bb671e3ae32f654b8954ea4c4635f915","","Mozilla/5.0 (Macintosh; Intel Mac OS X 10_15_7) AppleWebKit/537.36 (KHTML, like Gecko) Chrome/135.0.0.0 Safari/537.36","Macintosh","Chrome","135.0.0.0","OS X","10_15_7","https://hz8g1ckzuq.cognition.run/","en-US,en;q=0.9","4ta2218m3dva4up","25","[""Black or African-American""]","No","Male","2245150.900000006","3238","","","{""product_choice"":""C""}","choice","wwb","catch","null","televisions","60","90","5","20","25","45","1","null","null","null","null","null","null","Screen size","Average lifespan","",""
"","","","","","choice_trial_setup","html-keyboard-response","120","2122415","0.0-5.0-0.18","210","1","2025-04-14 15:17:11","bb671e3ae32f654b8954ea4c4635f915","","Mozilla/5.0 (Macintosh; Intel Mac OS X 10_15_7) AppleWebKit/537.36 (KHTML, like Gecko) Chrome/135.0.0.0 Safari/537.36","Macintosh","Chrome","135.0.0.0","OS X","10_15_7","https://hz8g1ckzuq.cognition.run/","en-US,en;q=0.9","4ta2218m3dva4up","25","[""Black or African-American""]","No","Male","2245150.900000006","null","","<p></p>","null","choice","tcd","repulsion_1","2","televisions","null","null","null","null","null","null","1","","","","","","","","","",""
"","","","","","choice_trial","survey-html-form","121","2126583","0.0-5.0-1.18","210","1","2025-04-14 15:17:11","bb671e3ae32f654b8954ea4c4635f915","","Mozilla/5.0 (Macintosh; Intel Mac OS X 10_15_7) AppleWebKit/537.36 (KHTML, like Gecko) Chrome/135.0.0.0 Safari/537.36","Macintosh","Chrome","135.0.0.0","OS X","10_15_7","https://hz8g1ckzuq.cognition.run/","en-US,en;q=0.9","4ta2218m3dva4up","25","[""Black or African-American""]","No","Male","2245150.900000006","4161","","","{""product_choice"":""B""}","choice","tcd","repulsion_1","2","televisions","null","null","null","null","null","null","1","30","40","25","100","90","100","Screen size","Average lifespan","",""
"","","","","","choice_trial_setup","html-keyboard-response","122","2126890","0.0-5.0-0.19","210","1","2025-04-14 15:17:11","bb671e3ae32f654b8954ea4c4635f915","","Mozilla/5.0 (Macintosh; Intel Mac OS X 10_15_7) AppleWebKit/537.36 (KHTML, like Gecko) Chrome/135.0.0.0 Safari/537.36","Macintosh","Chrome","135.0.0.0","OS X","10_15_7","https://hz8g1ckzuq.cognition.run/","en-US,en;q=0.9","4ta2218m3dva4up","25","[""Black or African-American""]","No","Male","2245150.900000006","null","","<p></p>","null","choice","tdc","attraction_1","2","laptops","null","null","null","null","null","null","1","","","","","","","","","",""
"","","","","","choice_trial","survey-html-form","123","2130230","0.0-5.0-1.19","210","1","2025-04-14 15:17:11","bb671e3ae32f654b8954ea4c4635f915","","Mozilla/5.0 (Macintosh; Intel Mac OS X 10_15_7) AppleWebKit/537.36 (KHTML, like Gecko) Chrome/135.0.0.0 Safari/537.36","Macintosh","Chrome","135.0.0.0","OS X","10_15_7","https://hz8g1ckzuq.cognition.run/","en-US,en;q=0.9","4ta2218m3dva4up","25","[""Black or African-American""]","No","Male","2245150.900000006","3332","","","{""product_choice"":""A""}","choice","tdc","attraction_1","2","laptops","null","null","null","null","null","null","1","50","60","45","60","50","60","Processing speed","Memory (RAM)","",""
"","","","","","choice_trial_setup","html-keyboard-response","124","2130538","0.0-5.0-0.20","210","1","2025-04-14 15:17:11","bb671e3ae32f654b8954ea4c4635f915","","Mozilla/5.0 (Macintosh; Intel Mac OS X 10_15_7) AppleWebKit/537.36 (KHTML, like Gecko) Chrome/135.0.0.0 Safari/537.36","Macintosh","Chrome","135.0.0.0","OS X","10_15_7","https://hz8g1ckzuq.cognition.run/","en-US,en;q=0.9","4ta2218m3dva4up","25","[""Black or African-American""]","No","Male","2245150.900000006","null","","<p></p>","null","choice","dtc","repulsion_1","1","microwave ovens","null","null","null","null","null","null","1","","","","","","","","","",""
"","","","","","choice_trial","survey-html-form","125","2133783","0.0-5.0-1.20","210","1","2025-04-14 15:17:11","bb671e3ae32f654b8954ea4c4635f915","","Mozilla/5.0 (Macintosh; Intel Mac OS X 10_15_7) AppleWebKit/537.36 (KHTML, like Gecko) Chrome/135.0.0.0 Safari/537.36","Macintosh","Chrome","135.0.0.0","OS X","10_15_7","https://hz8g1ckzuq.cognition.run/","en-US,en;q=0.9","4ta2218m3dva4up","25","[""Black or African-American""]","No","Male","2245150.900000006","3240","","","{""product_choice"":""C""}","choice","dtc","repulsion_1","1","microwave ovens","null","null","null","null","null","null","1","100","90","100","30","40","25","Warranty","Cooking power","",""
"","","","","","choice_trial_setup","html-keyboard-response","126","2134090","0.0-5.0-0.21","210","1","2025-04-14 15:17:11","bb671e3ae32f654b8954ea4c4635f915","","Mozilla/5.0 (Macintosh; Intel Mac OS X 10_15_7) AppleWebKit/537.36 (KHTML, like Gecko) Chrome/135.0.0.0 Safari/537.36","Macintosh","Chrome","135.0.0.0","OS X","10_15_7","https://hz8g1ckzuq.cognition.run/","en-US,en;q=0.9","4ta2218m3dva4up","25","[""Black or African-American""]","No","Male","2245150.900000006","null","","<p></p>","null","choice","tcd","attraction_2","1","microwave ovens","null","null","null","null","null","null","2","","","","","","","","","",""
"","","","","","choice_trial","survey-html-form","127","2136180","0.0-5.0-1.21","210","1","2025-04-14 15:17:11","bb671e3ae32f654b8954ea4c4635f915","","Mozilla/5.0 (Macintosh; Intel Mac OS X 10_15_7) AppleWebKit/537.36 (KHTML, like Gecko) Chrome/135.0.0.0 Safari/537.36","Macintosh","Chrome","135.0.0.0","OS X","10_15_7","https://hz8g1ckzuq.cognition.run/","en-US,en;q=0.9","4ta2218m3dva4up","25","[""Black or African-American""]","No","Male","2245150.900000006","2084","","","{""product_choice"":""A""}","choice","tcd","attraction_2","1","microwave ovens","null","null","null","null","null","null","2","60","50","60","50","60","40","Warranty","Cooking power","",""
"","","","","","choice_trial_setup","html-keyboard-response","128","2136486","0.0-5.0-0.22","210","1","2025-04-14 15:17:11","bb671e3ae32f654b8954ea4c4635f915","","Mozilla/5.0 (Macintosh; Intel Mac OS X 10_15_7) AppleWebKit/537.36 (KHTML, like Gecko) Chrome/135.0.0.0 Safari/537.36","Macintosh","Chrome","135.0.0.0","OS X","10_15_7","https://hz8g1ckzuq.cognition.run/","en-US,en;q=0.9","4ta2218m3dva4up","25","[""Black or African-American""]","No","Male","2245150.900000006","null","","<p></p>","null","choice","wwb","catch","null","washing machines","50","80","45","15","30","15","2","","","","","","","","","",""
"","","","","","choice_trial","survey-html-form","129","2138829","0.0-5.0-1.22","210","1","2025-04-14 15:17:11","bb671e3ae32f654b8954ea4c4635f915","","Mozilla/5.0 (Macintosh; Intel Mac OS X 10_15_7) AppleWebKit/537.36 (KHTML, like Gecko) Chrome/135.0.0.0 Safari/537.36","Macintosh","Chrome","135.0.0.0","OS X","10_15_7","https://hz8g1ckzuq.cognition.run/","en-US,en;q=0.9","4ta2218m3dva4up","25","[""Black or African-American""]","No","Male","2245150.900000006","2338","","","{""product_choice"":""C""}","choice","wwb","catch","null","washing machines","50","80","45","15","30","15","2","null","null","null","null","null","null","Average lifespan","Energy savings","",""
"","","","","","choice_trial_setup","html-keyboard-response","130","2139135","0.0-5.0-0.23","210","1","2025-04-14 15:17:11","bb671e3ae32f654b8954ea4c4635f915","","Mozilla/5.0 (Macintosh; Intel Mac OS X 10_15_7) AppleWebKit/537.36 (KHTML, like Gecko) Chrome/135.0.0.0 Safari/537.36","Macintosh","Chrome","135.0.0.0","OS X","10_15_7","https://hz8g1ckzuq.cognition.run/","en-US,en;q=0.9","4ta2218m3dva4up","25","[""Black or African-American""]","No","Male","2245150.900000006","null","","<p></p>","null","choice","dtc","repulsion_2","1","microwave ovens","null","null","null","null","null","null","1","","","","","","","","","",""
"","","","","","choice_trial","survey-html-form","131","2140883","0.0-5.0-1.23","210","1","2025-04-14 15:17:11","bb671e3ae32f654b8954ea4c4635f915","","Mozilla/5.0 (Macintosh; Intel Mac OS X 10_15_7) AppleWebKit/537.36 (KHTML, like Gecko) Chrome/135.0.0.0 Safari/537.36","Macintosh","Chrome","135.0.0.0","OS X","10_15_7","https://hz8g1ckzuq.cognition.run/","en-US,en;q=0.9","4ta2218m3dva4up","25","[""Black or African-American""]","No","Male","2245150.900000006","1743","","","{""product_choice"":""C""}","choice","dtc","repulsion_2","1","microwave ovens","null","null","null","null","null","null","1","100","90","100","30","40","20","Warranty","Cooking power","",""
"","","","","","choice_trial_setup","html-keyboard-response","132","2141188","0.0-5.0-0.24","210","1","2025-04-14 15:17:11","bb671e3ae32f654b8954ea4c4635f915","","Mozilla/5.0 (Macintosh; Intel Mac OS X 10_15_7) AppleWebKit/537.36 (KHTML, like Gecko) Chrome/135.0.0.0 Safari/537.36","Macintosh","Chrome","135.0.0.0","OS X","10_15_7","https://hz8g1ckzuq.cognition.run/","en-US,en;q=0.9","4ta2218m3dva4up","25","[""Black or African-American""]","No","Male","2245150.900000006","null","","<p></p>","null","choice","cdt","repulsion_1","1","laptops","null","null","null","null","null","null","2","","","","","","","","","",""
"","","","","","choice_trial","survey-html-form","133","2143898","0.0-5.0-1.24","210","1","2025-04-14 15:17:11","bb671e3ae32f654b8954ea4c4635f915","","Mozilla/5.0 (Macintosh; Intel Mac OS X 10_15_7) AppleWebKit/537.36 (KHTML, like Gecko) Chrome/135.0.0.0 Safari/537.36","Macintosh","Chrome","135.0.0.0","OS X","10_15_7","https://hz8g1ckzuq.cognition.run/","en-US,en;q=0.9","4ta2218m3dva4up","25","[""Black or African-American""]","No","Male","2245150.900000006","2705","","","{""product_choice"":""A""}","choice","cdt","repulsion_1","1","laptops","null","null","null","null","null","null","2","100","90","100","30","40","25","Processing speed","Memory (RAM)","",""
"","","","","","choice_trial_setup","html-keyboard-response","134","2144205","0.0-5.0-0.25","210","1","2025-04-14 15:17:11","bb671e3ae32f654b8954ea4c4635f915","","Mozilla/5.0 (Macintosh; Intel Mac OS X 10_15_7) AppleWebKit/537.36 (KHTML, like Gecko) Chrome/135.0.0.0 Safari/537.36","Macintosh","Chrome","135.0.0.0","OS X","10_15_7","https://hz8g1ckzuq.cognition.run/","en-US,en;q=0.9","4ta2218m3dva4up","25","[""Black or African-American""]","No","Male","2245150.900000006","null","","<p></p>","null","choice","wbw","catch","null","microwave ovens","50","60","5","50","20","5","1","","","","","","","","","",""
"","","","","","choice_trial","survey-html-form","135","2145974","0.0-5.0-1.25","210","1","2025-04-14 15:17:11","bb671e3ae32f654b8954ea4c4635f915","","Mozilla/5.0 (Macintosh; Intel Mac OS X 10_15_7) AppleWebKit/537.36 (KHTML, like Gecko) Chrome/135.0.0.0 Safari/537.36","Macintosh","Chrome","135.0.0.0","OS X","10_15_7","https://hz8g1ckzuq.cognition.run/","en-US,en;q=0.9","4ta2218m3dva4up","25","[""Black or African-American""]","No","Male","2245150.900000006","1761","","","{""product_choice"":""B""}","choice","wbw","catch","null","microwave ovens","50","60","5","50","20","5","1","null","null","null","null","null","null","Warranty","Cooking power","",""
"","","","","","choice_trial_setup","html-keyboard-response","136","2146281","0.0-5.0-0.26","210","1","2025-04-14 15:17:11","bb671e3ae32f654b8954ea4c4635f915","","Mozilla/5.0 (Macintosh; Intel Mac OS X 10_15_7) AppleWebKit/537.36 (KHTML, like Gecko) Chrome/135.0.0.0 Safari/537.36","Macintosh","Chrome","135.0.0.0","OS X","10_15_7","https://hz8g1ckzuq.cognition.run/","en-US,en;q=0.9","4ta2218m3dva4up","25","[""Black or African-American""]","No","Male","2245150.900000006","null","","<p></p>","null","choice","cdt","attraction_2","2","microwave ovens","null","null","null","null","null","null","2","","","","","","","","","",""
"","","","","","choice_trial","survey-html-form","137","2151200","0.0-5.0-1.26","210","1","2025-04-14 15:17:11","bb671e3ae32f654b8954ea4c4635f915","","Mozilla/5.0 (Macintosh; Intel Mac OS X 10_15_7) AppleWebKit/537.36 (KHTML, like Gecko) Chrome/135.0.0.0 Safari/537.36","Macintosh","Chrome","135.0.0.0","OS X","10_15_7","https://hz8g1ckzuq.cognition.run/","en-US,en;q=0.9","4ta2218m3dva4up","25","[""Black or African-American""]","No","Male","2245150.900000006","4912","","","{""product_choice"":""A""}","choice","cdt","attraction_2","2","microwave ovens","null","null","null","null","null","null","2","50","60","40","60","50","60","Warranty","Cooking power","",""
"","","","","","choice_trial_setup","html-keyboard-response","138","2151508","0.0-5.0-0.27","210","1","2025-04-14 15:17:11","bb671e3ae32f654b8954ea4c4635f915","","Mozilla/5.0 (Macintosh; Intel Mac OS X 10_15_7) AppleWebKit/537.36 (KHTML, like Gecko) Chrome/135.0.0.0 Safari/537.36","Macintosh","Chrome","135.0.0.0","OS X","10_15_7","https://hz8g1ckzuq.cognition.run/","en-US,en;q=0.9","4ta2218m3dva4up","25","[""Black or African-American""]","No","Male","2245150.900000006","null","","<p></p>","null","choice","cdt","attraction_2","2","televisions","null","null","null","null","null","null","2","","","","","","","","","",""
"","","","","","choice_trial","survey-html-form","139","2155204","0.0-5.0-1.27","210","1","2025-04-14 15:17:11","bb671e3ae32f654b8954ea4c4635f915","","Mozilla/5.0 (Macintosh; Intel Mac OS X 10_15_7) AppleWebKit/537.36 (KHTML, like Gecko) Chrome/135.0.0.0 Safari/537.36","Macintosh","Chrome","135.0.0.0","OS X","10_15_7","https://hz8g1ckzuq.cognition.run/","en-US,en;q=0.9","4ta2218m3dva4up","25","[""Black or African-American""]","No","Male","2245150.900000006","3686","","","{""product_choice"":""C""}","choice","cdt","attraction_2","2","televisions","null","null","null","null","null","null","2","50","60","40","60","50","60","Screen size","Average lifespan","",""
"","","","","","choice_trial_setup","html-keyboard-response","140","2155511","0.0-5.0-0.28","210","1","2025-04-14 15:17:11","bb671e3ae32f654b8954ea4c4635f915","","Mozilla/5.0 (Macintosh; Intel Mac OS X 10_15_7) AppleWebKit/537.36 (KHTML, like Gecko) Chrome/135.0.0.0 Safari/537.36","Macintosh","Chrome","135.0.0.0","OS X","10_15_7","https://hz8g1ckzuq.cognition.run/","en-US,en;q=0.9","4ta2218m3dva4up","25","[""Black or African-American""]","No","Male","2245150.900000006","null","","<p></p>","null","choice","cdt","repulsion_2","2","laptops","null","null","null","null","null","null","1","","","","","","","","","",""
"","","","","","choice_trial","survey-html-form","141","2159318","0.0-5.0-1.28","210","1","2025-04-14 15:17:11","bb671e3ae32f654b8954ea4c4635f915","","Mozilla/5.0 (Macintosh; Intel Mac OS X 10_15_7) AppleWebKit/537.36 (KHTML, like Gecko) Chrome/135.0.0.0 Safari/537.36","Macintosh","Chrome","135.0.0.0","OS X","10_15_7","https://hz8g1ckzuq.cognition.run/","en-US,en;q=0.9","4ta2218m3dva4up","25","[""Black or African-American""]","No","Male","2245150.900000006","3798","","","{""product_choice"":""A""}","choice","cdt","repulsion_2","2","laptops","null","null","null","null","null","null","1","30","40","20","100","90","100","Processing speed","Memory (RAM)","",""
"","","","","","choice_trial_setup","html-keyboard-response","142","2159626","0.0-5.0-0.29","210","1","2025-04-14 15:17:11","bb671e3ae32f654b8954ea4c4635f915","","Mozilla/5.0 (Macintosh; Intel Mac OS X 10_15_7) AppleWebKit/537.36 (KHTML, like Gecko) Chrome/135.0.0.0 Safari/537.36","Macintosh","Chrome","135.0.0.0","OS X","10_15_7","https://hz8g1ckzuq.cognition.run/","en-US,en;q=0.9","4ta2218m3dva4up","25","[""Black or African-American""]","No","Male","2245150.900000006","null","","<p></p>","null","choice","bww","catch","null","laptops","75","65","5","50","15","25","2","","","","","","","","","",""
"","","","","","choice_trial","survey-html-form","143","2161527","0.0-5.0-1.29","210","1","2025-04-14 15:17:11","bb671e3ae32f654b8954ea4c4635f915","","Mozilla/5.0 (Macintosh; Intel Mac OS X 10_15_7) AppleWebKit/537.36 (KHTML, like Gecko) Chrome/135.0.0.0 Safari/537.36","Macintosh","Chrome","135.0.0.0","OS X","10_15_7","https://hz8g1ckzuq.cognition.run/","en-US,en;q=0.9","4ta2218m3dva4up","25","[""Black or African-American""]","No","Male","2245150.900000006","1893","","","{""product_choice"":""A""}","choice","bww","catch","null","laptops","75","65","5","50","15","25","2","null","null","null","null","null","null","Processing speed","Memory (RAM)","",""
"","","","","","choice_trial_setup","html-keyboard-response","144","2161834","0.0-5.0-0.30","210","1","2025-04-14 15:17:11","bb671e3ae32f654b8954ea4c4635f915","","Mozilla/5.0 (Macintosh; Intel Mac OS X 10_15_7) AppleWebKit/537.36 (KHTML, like Gecko) Chrome/135.0.0.0 Safari/537.36","Macintosh","Chrome","135.0.0.0","OS X","10_15_7","https://hz8g1ckzuq.cognition.run/","en-US,en;q=0.9","4ta2218m3dva4up","25","[""Black or African-American""]","No","Male","2245150.900000006","null","","<p></p>","null","choice","dtc","attraction_1","2","televisions","null","null","null","null","null","null","1","","","","","","","","","",""
"","","","","","choice_trial","survey-html-form","145","2164180","0.0-5.0-1.30","210","1","2025-04-14 15:17:11","bb671e3ae32f654b8954ea4c4635f915","","Mozilla/5.0 (Macintosh; Intel Mac OS X 10_15_7) AppleWebKit/537.36 (KHTML, like Gecko) Chrome/135.0.0.0 Safari/537.36","Macintosh","Chrome","135.0.0.0","OS X","10_15_7","https://hz8g1ckzuq.cognition.run/","en-US,en;q=0.9","4ta2218m3dva4up","25","[""Black or African-American""]","No","Male","2245150.900000006","2339","","","{""product_choice"":""B""}","choice","dtc","attraction_1","2","televisions","null","null","null","null","null","null","1","50","60","45","60","50","60","Screen size","Average lifespan","",""
"","","","","","choice_trial_setup","html-keyboard-response","146","2164488","0.0-5.0-0.31","210","1","2025-04-14 15:17:11","bb671e3ae32f654b8954ea4c4635f915","","Mozilla/5.0 (Macintosh; Intel Mac OS X 10_15_7) AppleWebKit/537.36 (KHTML, like Gecko) Chrome/135.0.0.0 Safari/537.36","Macintosh","Chrome","135.0.0.0","OS X","10_15_7","https://hz8g1ckzuq.cognition.run/","en-US,en;q=0.9","4ta2218m3dva4up","25","[""Black or African-American""]","No","Male","2245150.900000006","null","","<p></p>","null","choice","tdc","attraction_1","2","washing machines","null","null","null","null","null","null","1","","","","","","","","","",""
"","","","","","choice_trial","survey-html-form","147","2168166","0.0-5.0-1.31","210","1","2025-04-14 15:17:11","bb671e3ae32f654b8954ea4c4635f915","","Mozilla/5.0 (Macintosh; Intel Mac OS X 10_15_7) AppleWebKit/537.36 (KHTML, like Gecko) Chrome/135.0.0.0 Safari/537.36","Macintosh","Chrome","135.0.0.0","OS X","10_15_7","https://hz8g1ckzuq.cognition.run/","en-US,en;q=0.9","4ta2218m3dva4up","25","[""Black or African-American""]","No","Male","2245150.900000006","3671","","","{""product_choice"":""C""}","choice","tdc","attraction_1","2","washing machines","null","null","null","null","null","null","1","50","60","45","60","50","60","Average lifespan","Energy savings","",""
"","","","","","choice_trial_setup","html-keyboard-response","148","2168473","0.0-5.0-0.32","210","1","2025-04-14 15:17:11","bb671e3ae32f654b8954ea4c4635f915","","Mozilla/5.0 (Macintosh; Intel Mac OS X 10_15_7) AppleWebKit/537.36 (KHTML, like Gecko) Chrome/135.0.0.0 Safari/537.36","Macintosh","Chrome","135.0.0.0","OS X","10_15_7","https://hz8g1ckzuq.cognition.run/","en-US,en;q=0.9","4ta2218m3dva4up","25","[""Black or African-American""]","No","Male","2245150.900000006","null","","<p></p>","null","choice","dct","attraction_2","2","laptops","null","null","null","null","null","null","2","","","","","","","","","",""
"","","","","","choice_trial","survey-html-form","149","2173878","0.0-5.0-1.32","210","1","2025-04-14 15:17:11","bb671e3ae32f654b8954ea4c4635f915","","Mozilla/5.0 (Macintosh; Intel Mac OS X 10_15_7) AppleWebKit/537.36 (KHTML, like Gecko) Chrome/135.0.0.0 Safari/537.36","Macintosh","Chrome","135.0.0.0","OS X","10_15_7","https://hz8g1ckzuq.cognition.run/","en-US,en;q=0.9","4ta2218m3dva4up","25","[""Black or African-American""]","No","Male","2245150.900000006","5396","","","{""product_choice"":""B""}","choice","dct","attraction_2","2","laptops","null","null","null","null","null","null","2","50","60","40","60","50","60","Processing speed","Memory (RAM)","",""
"","","","","","choice_trial_setup","html-keyboard-response","150","2174186","0.0-5.0-0.33","210","1","2025-04-14 15:17:11","bb671e3ae32f654b8954ea4c4635f915","","Mozilla/5.0 (Macintosh; Intel Mac OS X 10_15_7) AppleWebKit/537.36 (KHTML, like Gecko) Chrome/135.0.0.0 Safari/537.36","Macintosh","Chrome","135.0.0.0","OS X","10_15_7","https://hz8g1ckzuq.cognition.run/","en-US,en;q=0.9","4ta2218m3dva4up","25","[""Black or African-American""]","No","Male","2245150.900000006","null","","<p></p>","null","choice","wwb","catch","null","laptops","55","95","15","35","40","5","2","","","","","","","","","",""
