"success","timeout","failed_images","failed_audio","failed_video","screen_id","trial_type","trial_index","time_elapsed","internal_node_id","run_id","condition","recorded_at","source_code_version","ip","user_agent","device","browser","browser_version","platform","platform_version","referer","accept_language","ppt_id","age","race","ethnicity","gender","exp_duration","rt","view_history","stimulus","response","phase","order","effect","t_high","category","d1_best","d2_best","d1_worst1","d2_worst1","d1_worst2","d2_worst2","first_dim","d1_t","d1_c","d1_d","d2_t","d2_c","d2_d","d1_name","d2_name","strategy_response","question_order"
"true","false","[]","[]","[]","img preload","preload","0","2832","0.0-0.0","216","1","2025-04-14 16:14:47","bb671e3ae32f654b8954ea4c4635f915","","Mozilla/5.0 (Windows NT 10.0; Win64; x64) AppleWebKit/537.36 (KHTML, like Gecko) Chrome/132.0.0.0 Safari/537.36","WebKit","Chrome","132.0.0.0","Windows","10.0","https://hz8g1ckzuq.cognition.run/","en-US,en;q=0.9","4u6uzgxa7l4vp1j","43","[""Black or African-American""]","No","Male","2513346.799999997","","","","","","","","","","","","","","","","","","","","","","","","","",""
"true","","","","","","fullscreen","1","20374","0.0-1.0","216","1","2025-04-14 16:14:47","bb671e3ae32f654b8954ea4c4635f915","","Mozilla/5.0 (Windows NT 10.0; Win64; x64) AppleWebKit/537.36 (KHTML, like Gecko) Chrome/132.0.0.0 Safari/537.36","WebKit","Chrome","132.0.0.0","Windows","10.0","https://hz8g1ckzuq.cognition.run/","en-US,en;q=0.9","4u6uzgxa7l4vp1j","43","[""Black or African-American""]","No","Male","2513346.799999997","16525","","","","","","","","","","","","","","","","","","","","","","","","",""
"","","","","","","instructions","2","198744","0.0-2.0","216","1","2025-04-14 16:14:47","bb671e3ae32f654b8954ea4c4635f915","","Mozilla/5.0 (Windows NT 10.0; Win64; x64) AppleWebKit/537.36 (KHTML, like Gecko) Chrome/132.0.0.0 Safari/537.36","WebKit","Chrome","132.0.0.0","Windows","10.0","https://hz8g1ckzuq.cognition.run/","en-US,en;q=0.9","4u6uzgxa7l4vp1j","43","[""Black or African-American""]","No","Male","2513346.799999997","178367","[{""page_index"":0,""viewing_time"":1962},{""page_index"":1,""viewing_time"":5348},{""page_index"":2,""viewing_time"":40128},{""page_index"":3,""viewing_time"":12062},{""page_index"":4,""viewing_time"":38487},{""page_index"":5,""viewing_time"":14879},{""page_index"":6,""viewing_time"":18066},{""page_index"":7,""viewing_time"":22370},{""page_index"":8,""viewing_time"":9436},{""page_index"":9,""viewing_time"":15629}]","","","","","","","","","","","","","","","","","","","","","","","",""
"","","","","","rating_trial_setup","html-keyboard-response","3","199047","0.0-3.0-0.0","216","1","2025-04-14 16:14:47","bb671e3ae32f654b8954ea4c4635f915","","Mozilla/5.0 (Windows NT 10.0; Win64; x64) AppleWebKit/537.36 (KHTML, like Gecko) Chrome/132.0.0.0 Safari/537.36","WebKit","Chrome","132.0.0.0","Windows","10.0","https://hz8g1ckzuq.cognition.run/","en-US,en;q=0.9","4u6uzgxa7l4vp1j","43","[""Black or African-American""]","No","Male","2513346.799999997","null","","<p></p>","null","rating","ctd","repulsion_1","2","televisions","null","null","null","null","null","null","1","","","","","","","","","",""
"","","","","","rating_trial","survey-html-form","4","300863","0.0-3.0-1.0","216","1","2025-04-14 16:14:47","bb671e3ae32f654b8954ea4c4635f915","","Mozilla/5.0 (Windows NT 10.0; Win64; x64) AppleWebKit/537.36 (KHTML, like Gecko) Chrome/132.0.0.0 Safari/537.36","WebKit","Chrome","132.0.0.0","Windows","10.0","https://hz8g1ckzuq.cognition.run/","en-US,en;q=0.9","4u6uzgxa7l4vp1j","43","[""Black or African-American""]","No","Male","2513346.799999997","101813","","","{""price_1"":""500"",""price_2"":""400"",""price_3"":""250""}","rating","ctd","repulsion_1","2","televisions","null","null","null","null","null","null","1","30","40","25","100","90","100","Screen size","Average lifespan","",""
"","","","","","rating_trial_setup","html-keyboard-response","5","301165","0.0-3.0-0.1","216","1","2025-04-14 16:14:47","bb671e3ae32f654b8954ea4c4635f915","","Mozilla/5.0 (Windows NT 10.0; Win64; x64) AppleWebKit/537.36 (KHTML, like Gecko) Chrome/132.0.0.0 Safari/537.36","WebKit","Chrome","132.0.0.0","Windows","10.0","https://hz8g1ckzuq.cognition.run/","en-US,en;q=0.9","4u6uzgxa7l4vp1j","43","[""Black or African-American""]","No","Male","2513346.799999997","null","","<p></p>","null","rating","tdc","repulsion_1","1","televisions","null","null","null","null","null","null","1","","","","","","","","","",""
"","","","","","rating_trial","survey-html-form","6","335303","0.0-3.0-1.1","216","1","2025-04-14 16:14:47","bb671e3ae32f654b8954ea4c4635f915","","Mozilla/5.0 (Windows NT 10.0; Win64; x64) AppleWebKit/537.36 (KHTML, like Gecko) Chrome/132.0.0.0 Safari/537.36","WebKit","Chrome","132.0.0.0","Windows","10.0","https://hz8g1ckzuq.cognition.run/","en-US,en;q=0.9","4u6uzgxa7l4vp1j","43","[""Black or African-American""]","No","Male","2513346.799999997","34136","","","{""price_1"":""450"",""price_2"":""400"",""price_3"":""350""}","rating","tdc","repulsion_1","1","televisions","null","null","null","null","null","null","1","100","90","100","30","40","25","Screen size","Average lifespan","",""
"","","","","","rating_trial_setup","html-keyboard-response","7","335605","0.0-3.0-0.2","216","1","2025-04-14 16:14:47","bb671e3ae32f654b8954ea4c4635f915","","Mozilla/5.0 (Windows NT 10.0; Win64; x64) AppleWebKit/537.36 (KHTML, like Gecko) Chrome/132.0.0.0 Safari/537.36","WebKit","Chrome","132.0.0.0","Windows","10.0","https://hz8g1ckzuq.cognition.run/","en-US,en;q=0.9","4u6uzgxa7l4vp1j","43","[""Black or African-American""]","No","Male","2513346.799999997","null","","<p></p>","null","rating","dtc","attraction_2","1","microwave ovens","null","null","null","null","null","null","2","","","","","","","","","",""
"","","","","","rating_trial","survey-html-form","8","418892","0.0-3.0-1.2","216","1","2025-04-14 16:14:47","bb671e3ae32f654b8954ea4c4635f915","","Mozilla/5.0 (Windows NT 10.0; Win64; x64) AppleWebKit/537.36 (KHTML, like Gecko) Chrome/132.0.0.0 Safari/537.36","WebKit","Chrome","132.0.0.0","Windows","10.0","https://hz8g1ckzuq.cognition.run/","en-US,en;q=0.9","4u6uzgxa7l4vp1j","43","[""Black or African-American""]","No","Male","2513346.799999997","83286","","","{""price_1"":""50"",""price_2"":""70"",""price_3"":""90""}","rating","dtc","attraction_2","1","microwave ovens","null","null","null","null","null","null","2","60","50","60","50","60","40","Warranty","Cooking power","",""
"","","","","","rating_trial_setup","html-keyboard-response","9","419195","0.0-3.0-0.3","216","1","2025-04-14 16:14:47","bb671e3ae32f654b8954ea4c4635f915","","Mozilla/5.0 (Windows NT 10.0; Win64; x64) AppleWebKit/537.36 (KHTML, like Gecko) Chrome/132.0.0.0 Safari/537.36","WebKit","Chrome","132.0.0.0","Windows","10.0","https://hz8g1ckzuq.cognition.run/","en-US,en;q=0.9","4u6uzgxa7l4vp1j","43","[""Black or African-American""]","No","Male","2513346.799999997","null","","<p></p>","null","rating","tdc","attraction_1","2","washing machines","null","null","null","null","null","null","1","","","","","","","","","",""
"","","","","","rating_trial","survey-html-form","10","502533","0.0-3.0-1.3","216","1","2025-04-14 16:14:47","bb671e3ae32f654b8954ea4c4635f915","","Mozilla/5.0 (Windows NT 10.0; Win64; x64) AppleWebKit/537.36 (KHTML, like Gecko) Chrome/132.0.0.0 Safari/537.36","WebKit","Chrome","132.0.0.0","Windows","10.0","https://hz8g1ckzuq.cognition.run/","en-US,en;q=0.9","4u6uzgxa7l4vp1j","43","[""Black or African-American""]","No","Male","2513346.799999997","83336","","","{""price_1"":""350"",""price_2"":""400"",""price_3"":""500""}","rating","tdc","attraction_1","2","washing machines","null","null","null","null","null","null","1","50","60","45","60","50","60","Average lifespan","Energy savings","",""
"","","","","","rating_trial_setup","html-keyboard-response","11","502835","0.0-3.0-0.4","216","1","2025-04-14 16:14:47","bb671e3ae32f654b8954ea4c4635f915","","Mozilla/5.0 (Windows NT 10.0; Win64; x64) AppleWebKit/537.36 (KHTML, like Gecko) Chrome/132.0.0.0 Safari/537.36","WebKit","Chrome","132.0.0.0","Windows","10.0","https://hz8g1ckzuq.cognition.run/","en-US,en;q=0.9","4u6uzgxa7l4vp1j","43","[""Black or African-American""]","No","Male","2513346.799999997","null","","<p></p>","null","rating","ctd","attraction_1","1","televisions","null","null","null","null","null","null","1","","","","","","","","","",""
"","","","","","rating_trial","survey-html-form","12","583183","0.0-3.0-1.4","216","1","2025-04-14 16:14:47","bb671e3ae32f654b8954ea4c4635f915","","Mozilla/5.0 (Windows NT 10.0; Win64; x64) AppleWebKit/537.36 (KHTML, like Gecko) Chrome/132.0.0.0 Safari/537.36","WebKit","Chrome","132.0.0.0","Windows","10.0","https://hz8g1ckzuq.cognition.run/","en-US,en;q=0.9","4u6uzgxa7l4vp1j","43","[""Black or African-American""]","No","Male","2513346.799999997","80347","","","{""price_1"":""500"",""price_2"":""600"",""price_3"":""400""}","rating","ctd","attraction_1","1","televisions","null","null","null","null","null","null","1","60","50","60","50","60","45","Screen size","Average lifespan","",""
"","","","","","rating_trial_setup","html-keyboard-response","13","583487","0.0-3.0-0.5","216","1","2025-04-14 16:14:47","bb671e3ae32f654b8954ea4c4635f915","","Mozilla/5.0 (Windows NT 10.0; Win64; x64) AppleWebKit/537.36 (KHTML, like Gecko) Chrome/132.0.0.0 Safari/537.36","WebKit","Chrome","132.0.0.0","Windows","10.0","https://hz8g1ckzuq.cognition.run/","en-US,en;q=0.9","4u6uzgxa7l4vp1j","43","[""Black or African-American""]","No","Male","2513346.799999997","null","","<p></p>","null","rating","bww","catch","null","televisions","80","85","50","40","40","10","1","","","","","","","","","",""
"","","","","","rating_trial","survey-html-form","14","610905","0.0-3.0-1.5","216","1","2025-04-14 16:14:47","bb671e3ae32f654b8954ea4c4635f915","","Mozilla/5.0 (Windows NT 10.0; Win64; x64) AppleWebKit/537.36 (KHTML, like Gecko) Chrome/132.0.0.0 Safari/537.36","WebKit","Chrome","132.0.0.0","Windows","10.0","https://hz8g1ckzuq.cognition.run/","en-US,en;q=0.9","4u6uzgxa7l4vp1j","43","[""Black or African-American""]","No","Male","2513346.799999997","27416","","","{""price_1"":""750"",""price_2"":""500"",""price_3"":""300""}","rating","bww","catch","null","televisions","80","85","50","40","40","10","1","null","null","null","null","null","null","Screen size","Average lifespan","",""
"","","","","","rating_trial_setup","html-keyboard-response","15","611207","0.0-3.0-0.6","216","1","2025-04-14 16:14:47","bb671e3ae32f654b8954ea4c4635f915","","Mozilla/5.0 (Windows NT 10.0; Win64; x64) AppleWebKit/537.36 (KHTML, like Gecko) Chrome/132.0.0.0 Safari/537.36","WebKit","Chrome","132.0.0.0","Windows","10.0","https://hz8g1ckzuq.cognition.run/","en-US,en;q=0.9","4u6uzgxa7l4vp1j","43","[""Black or African-American""]","No","Male","2513346.799999997","null","","<p></p>","null","rating","tdc","repulsion_1","2","microwave ovens","null","null","null","null","null","null","1","","","","","","","","","",""
"","","","","","rating_trial","survey-html-form","16","664266","0.0-3.0-1.6","216","1","2025-04-14 16:14:47","bb671e3ae32f654b8954ea4c4635f915","","Mozilla/5.0 (Windows NT 10.0; Win64; x64) AppleWebKit/537.36 (KHTML, like Gecko) Chrome/132.0.0.0 Safari/537.36","WebKit","Chrome","132.0.0.0","Windows","10.0","https://hz8g1ckzuq.cognition.run/","en-US,en;q=0.9","4u6uzgxa7l4vp1j","43","[""Black or African-American""]","No","Male","2513346.799999997","53056","","","{""price_1"":""55"",""price_2"":""45"",""price_3"":""30""}","rating","tdc","repulsion_1","2","microwave ovens","null","null","null","null","null","null","1","30","40","25","100","90","100","Warranty","Cooking power","",""
"","","","","","rating_trial_setup","html-keyboard-response","17","664569","0.0-3.0-0.7","216","1","2025-04-14 16:14:47","bb671e3ae32f654b8954ea4c4635f915","","Mozilla/5.0 (Windows NT 10.0; Win64; x64) AppleWebKit/537.36 (KHTML, like Gecko) Chrome/132.0.0.0 Safari/537.36","WebKit","Chrome","132.0.0.0","Windows","10.0","https://hz8g1ckzuq.cognition.run/","en-US,en;q=0.9","4u6uzgxa7l4vp1j","43","[""Black or African-American""]","No","Male","2513346.799999997","null","","<p></p>","null","rating","tdc","attraction_1","1","laptops","null","null","null","null","null","null","1","","","","","","","","","",""
"","","","","","rating_trial","survey-html-form","18","702587","0.0-3.0-1.7","216","1","2025-04-14 16:14:47","bb671e3ae32f654b8954ea4c4635f915","","Mozilla/5.0 (Windows NT 10.0; Win64; x64) AppleWebKit/537.36 (KHTML, like Gecko) Chrome/132.0.0.0 Safari/537.36","WebKit","Chrome","132.0.0.0","Windows","10.0","https://hz8g1ckzuq.cognition.run/","en-US,en;q=0.9","4u6uzgxa7l4vp1j","43","[""Black or African-American""]","No","Male","2513346.799999997","38016","","","{""price_1"":""450"",""price_2"":""390"",""price_3"":""320""}","rating","tdc","attraction_1","1","laptops","null","null","null","null","null","null","1","60","50","60","50","60","45","Processing speed","Memory (RAM)","",""
"","","","","","rating_trial_setup","html-keyboard-response","19","702889","0.0-3.0-0.8","216","1","2025-04-14 16:14:47","bb671e3ae32f654b8954ea4c4635f915","","Mozilla/5.0 (Windows NT 10.0; Win64; x64) AppleWebKit/537.36 (KHTML, like Gecko) Chrome/132.0.0.0 Safari/537.36","WebKit","Chrome","132.0.0.0","Windows","10.0","https://hz8g1ckzuq.cognition.run/","en-US,en;q=0.9","4u6uzgxa7l4vp1j","43","[""Black or African-American""]","No","Male","2513346.799999997","null","","<p></p>","null","rating","dct","attraction_1","1","washing machines","null","null","null","null","null","null","2","","","","","","","","","",""
"","","","","","rating_trial","survey-html-form","20","816920","0.0-3.0-1.8","216","1","2025-04-14 16:14:47","bb671e3ae32f654b8954ea4c4635f915","","Mozilla/5.0 (Windows NT 10.0; Win64; x64) AppleWebKit/537.36 (KHTML, like Gecko) Chrome/132.0.0.0 Safari/537.36","WebKit","Chrome","132.0.0.0","Windows","10.0","https://hz8g1ckzuq.cognition.run/","en-US,en;q=0.9","4u6uzgxa7l4vp1j","43","[""Black or African-American""]","No","Male","2513346.799999997","114029","","","{""price_1"":""650"",""price_2"":""520"",""price_3"":""580""}","rating","dct","attraction_1","1","washing machines","null","null","null","null","null","null","2","60","50","60","50","60","45","Average lifespan","Energy savings","",""
"","","","","","rating_trial_setup","html-keyboard-response","21","817223","0.0-3.0-0.9","216","1","2025-04-14 16:14:47","bb671e3ae32f654b8954ea4c4635f915","","Mozilla/5.0 (Windows NT 10.0; Win64; x64) AppleWebKit/537.36 (KHTML, like Gecko) Chrome/132.0.0.0 Safari/537.36","WebKit","Chrome","132.0.0.0","Windows","10.0","https://hz8g1ckzuq.cognition.run/","en-US,en;q=0.9","4u6uzgxa7l4vp1j","43","[""Black or African-American""]","No","Male","2513346.799999997","null","","<p></p>","null","rating","tdc","attraction_1","2","microwave ovens","null","null","null","null","null","null","1","","","","","","","","","",""
"","","","","","rating_trial","survey-html-form","22","870035","0.0-3.0-1.9","216","1","2025-04-14 16:14:47","bb671e3ae32f654b8954ea4c4635f915","","Mozilla/5.0 (Windows NT 10.0; Win64; x64) AppleWebKit/537.36 (KHTML, like Gecko) Chrome/132.0.0.0 Safari/537.36","WebKit","Chrome","132.0.0.0","Windows","10.0","https://hz8g1ckzuq.cognition.run/","en-US,en;q=0.9","4u6uzgxa7l4vp1j","43","[""Black or African-American""]","No","Male","2513346.799999997","52811","","","{""price_1"":""80"",""price_2"":""60"",""price_3"":""100""}","rating","tdc","attraction_1","2","microwave ovens","null","null","null","null","null","null","1","50","60","45","60","50","60","Warranty","Cooking power","",""
"","","","","","rating_trial_setup","html-keyboard-response","23","870350","0.0-3.0-0.10","216","1","2025-04-14 16:14:47","bb671e3ae32f654b8954ea4c4635f915","","Mozilla/5.0 (Windows NT 10.0; Win64; x64) AppleWebKit/537.36 (KHTML, like Gecko) Chrome/132.0.0.0 Safari/537.36","WebKit","Chrome","132.0.0.0","Windows","10.0","https://hz8g1ckzuq.cognition.run/","en-US,en;q=0.9","4u6uzgxa7l4vp1j","43","[""Black or African-American""]","No","Male","2513346.799999997","null","","<p></p>","null","rating","tdc","repulsion_2","1","televisions","null","null","null","null","null","null","1","","","","","","","","","",""
"","","","","","rating_trial","survey-html-form","24","924510","0.0-3.0-1.10","216","1","2025-04-14 16:14:47","bb671e3ae32f654b8954ea4c4635f915","","Mozilla/5.0 (Windows NT 10.0; Win64; x64) AppleWebKit/537.36 (KHTML, like Gecko) Chrome/132.0.0.0 Safari/537.36","WebKit","Chrome","132.0.0.0","Windows","10.0","https://hz8g1ckzuq.cognition.run/","en-US,en;q=0.9","4u6uzgxa7l4vp1j","43","[""Black or African-American""]","No","Male","2513346.799999997","54157","","","{""price_1"":""280"",""price_2"":""220"",""price_3"":""350""}","rating","tdc","repulsion_2","1","televisions","null","null","null","null","null","null","1","100","90","100","30","40","20","Screen size","Average lifespan","",""
"","","","","","rating_trial_setup","html-keyboard-response","25","924812","0.0-3.0-0.11","216","1","2025-04-14 16:14:47","bb671e3ae32f654b8954ea4c4635f915","","Mozilla/5.0 (Windows NT 10.0; Win64; x64) AppleWebKit/537.36 (KHTML, like Gecko) Chrome/132.0.0.0 Safari/537.36","WebKit","Chrome","132.0.0.0","Windows","10.0","https://hz8g1ckzuq.cognition.run/","en-US,en;q=0.9","4u6uzgxa7l4vp1j","43","[""Black or African-American""]","No","Male","2513346.799999997","null","","<p></p>","null","rating","tcd","attraction_2","2","washing machines","null","null","null","null","null","null","1","","","","","","","","","",""
"","","","","","rating_trial","survey-html-form","26","985038","0.0-3.0-1.11","216","1","2025-04-14 16:14:47","bb671e3ae32f654b8954ea4c4635f915","","Mozilla/5.0 (Windows NT 10.0; Win64; x64) AppleWebKit/537.36 (KHTML, like Gecko) Chrome/132.0.0.0 Safari/537.36","WebKit","Chrome","132.0.0.0","Windows","10.0","https://hz8g1ckzuq.cognition.run/","en-US,en;q=0.9","4u6uzgxa7l4vp1j","43","[""Black or African-American""]","No","Male","2513346.799999997","60223","","","{""price_1"":""450"",""price_2"":""500"",""price_3"":""400""}","rating","tcd","attraction_2","2","washing machines","null","null","null","null","null","null","1","50","60","40","60","50","60","Average lifespan","Energy savings","",""
"","","","","","rating_trial_setup","html-keyboard-response","27","985340","0.0-3.0-0.12","216","1","2025-04-14 16:14:47","bb671e3ae32f654b8954ea4c4635f915","","Mozilla/5.0 (Windows NT 10.0; Win64; x64) AppleWebKit/537.36 (KHTML, like Gecko) Chrome/132.0.0.0 Safari/537.36","WebKit","Chrome","132.0.0.0","Windows","10.0","https://hz8g1ckzuq.cognition.run/","en-US,en;q=0.9","4u6uzgxa7l4vp1j","43","[""Black or African-American""]","No","Male","2513346.799999997","null","","<p></p>","null","rating","dtc","attraction_1","2","laptops","null","null","null","null","null","null","2","","","","","","","","","",""
"","","","","","rating_trial","survey-html-form","28","1015200","0.0-3.0-1.12","216","1","2025-04-14 16:14:47","bb671e3ae32f654b8954ea4c4635f915","","Mozilla/5.0 (Windows NT 10.0; Win64; x64) AppleWebKit/537.36 (KHTML, like Gecko) Chrome/132.0.0.0 Safari/537.36","WebKit","Chrome","132.0.0.0","Windows","10.0","https://hz8g1ckzuq.cognition.run/","en-US,en;q=0.9","4u6uzgxa7l4vp1j","43","[""Black or African-American""]","No","Male","2513346.799999997","29859","","","{""price_1"":""400"",""price_2"":""500"",""price_3"":""600""}","rating","dtc","attraction_1","2","laptops","null","null","null","null","null","null","2","50","60","45","60","50","60","Processing speed","Memory (RAM)","",""
"","","","","","rating_trial_setup","html-keyboard-response","29","1015503","0.0-3.0-0.13","216","1","2025-04-14 16:14:47","bb671e3ae32f654b8954ea4c4635f915","","Mozilla/5.0 (Windows NT 10.0; Win64; x64) AppleWebKit/537.36 (KHTML, like Gecko) Chrome/132.0.0.0 Safari/537.36","WebKit","Chrome","132.0.0.0","Windows","10.0","https://hz8g1ckzuq.cognition.run/","en-US,en;q=0.9","4u6uzgxa7l4vp1j","43","[""Black or African-American""]","No","Male","2513346.799999997","null","","<p></p>","null","rating","tcd","repulsion_1","1","microwave ovens","null","null","null","null","null","null","1","","","","","","","","","",""
"","","","","","rating_trial","survey-html-form","30","1082406","0.0-3.0-1.13","216","1","2025-04-14 16:14:47","bb671e3ae32f654b8954ea4c4635f915","","Mozilla/5.0 (Windows NT 10.0; Win64; x64) AppleWebKit/537.36 (KHTML, like Gecko) Chrome/132.0.0.0 Safari/537.36","WebKit","Chrome","132.0.0.0","Windows","10.0","https://hz8g1ckzuq.cognition.run/","en-US,en;q=0.9","4u6uzgxa7l4vp1j","43","[""Black or African-American""]","No","Male","2513346.799999997","66901","","","{""price_1"":""100"",""price_2"":""150"",""price_3"":""50""}","rating","tcd","repulsion_1","1","microwave ovens","null","null","null","null","null","null","1","100","90","100","30","40","25","Warranty","Cooking power","",""
"","","","","","rating_trial_setup","html-keyboard-response","31","1082710","0.0-3.0-0.14","216","1","2025-04-14 16:14:47","bb671e3ae32f654b8954ea4c4635f915","","Mozilla/5.0 (Windows NT 10.0; Win64; x64) AppleWebKit/537.36 (KHTML, like Gecko) Chrome/132.0.0.0 Safari/537.36","WebKit","Chrome","132.0.0.0","Windows","10.0","https://hz8g1ckzuq.cognition.run/","en-US,en;q=0.9","4u6uzgxa7l4vp1j","43","[""Black or African-American""]","No","Male","2513346.799999997","null","","<p></p>","null","rating","dct","attraction_2","1","laptops","null","null","null","null","null","null","2","","","","","","","","","",""
"","","","","","rating_trial","survey-html-form","32","1109149","0.0-3.0-1.14","216","1","2025-04-14 16:14:47","bb671e3ae32f654b8954ea4c4635f915","","Mozilla/5.0 (Windows NT 10.0; Win64; x64) AppleWebKit/537.36 (KHTML, like Gecko) Chrome/132.0.0.0 Safari/537.36","WebKit","Chrome","132.0.0.0","Windows","10.0","https://hz8g1ckzuq.cognition.run/","en-US,en;q=0.9","4u6uzgxa7l4vp1j","43","[""Black or African-American""]","No","Male","2513346.799999997","26437","","","{""price_1"":""300"",""price_2"":""200"",""price_3"":""400""}","rating","dct","attraction_2","1","laptops","null","null","null","null","null","null","2","60","50","60","50","60","40","Processing speed","Memory (RAM)","",""
"","","","","","rating_trial_setup","html-keyboard-response","33","1109451","0.0-3.0-0.15","216","1","2025-04-14 16:14:47","bb671e3ae32f654b8954ea4c4635f915","","Mozilla/5.0 (Windows NT 10.0; Win64; x64) AppleWebKit/537.36 (KHTML, like Gecko) Chrome/132.0.0.0 Safari/537.36","WebKit","Chrome","132.0.0.0","Windows","10.0","https://hz8g1ckzuq.cognition.run/","en-US,en;q=0.9","4u6uzgxa7l4vp1j","43","[""Black or African-American""]","No","Male","2513346.799999997","null","","<p></p>","null","rating","wwb","catch","null","washing machines","75","95","15","20","10","40","2","","","","","","","","","",""
"","","","","","rating_trial","survey-html-form","34","1146179","0.0-3.0-1.15","216","1","2025-04-14 16:14:47","bb671e3ae32f654b8954ea4c4635f915","","Mozilla/5.0 (Windows NT 10.0; Win64; x64) AppleWebKit/537.36 (KHTML, like Gecko) Chrome/132.0.0.0 Safari/537.36","WebKit","Chrome","132.0.0.0","Windows","10.0","https://hz8g1ckzuq.cognition.run/","en-US,en;q=0.9","4u6uzgxa7l4vp1j","43","[""Black or African-American""]","No","Male","2513346.799999997","36724","","","{""price_1"":""350"",""price_2"":""250"",""price_3"":""600""}","rating","wwb","catch","null","washing machines","75","95","15","20","10","40","2","null","null","null","null","null","null","Average lifespan","Energy savings","",""
"","","","","","rating_trial_setup","html-keyboard-response","35","1146481","0.0-3.0-0.16","216","1","2025-04-14 16:14:47","bb671e3ae32f654b8954ea4c4635f915","","Mozilla/5.0 (Windows NT 10.0; Win64; x64) AppleWebKit/537.36 (KHTML, like Gecko) Chrome/132.0.0.0 Safari/537.36","WebKit","Chrome","132.0.0.0","Windows","10.0","https://hz8g1ckzuq.cognition.run/","en-US,en;q=0.9","4u6uzgxa7l4vp1j","43","[""Black or African-American""]","No","Male","2513346.799999997","null","","<p></p>","null","rating","wwb","catch","null","laptops","75","65","10","45","50","40","2","","","","","","","","","",""
"","","","","","rating_trial","survey-html-form","36","1219695","0.0-3.0-1.16","216","1","2025-04-14 16:14:47","bb671e3ae32f654b8954ea4c4635f915","","Mozilla/5.0 (Windows NT 10.0; Win64; x64) AppleWebKit/537.36 (KHTML, like Gecko) Chrome/132.0.0.0 Safari/537.36","WebKit","Chrome","132.0.0.0","Windows","10.0","https://hz8g1ckzuq.cognition.run/","en-US,en;q=0.9","4u6uzgxa7l4vp1j","43","[""Black or African-American""]","No","Male","2513346.799999997","73210","","","{""price_1"":""200"",""price_2"":""300"",""price_3"":""450""}","rating","wwb","catch","null","laptops","75","65","10","45","50","40","2","null","null","null","null","null","null","Processing speed","Memory (RAM)","",""
"","","","","","rating_trial_setup","html-keyboard-response","37","1219998","0.0-3.0-0.17","216","1","2025-04-14 16:14:47","bb671e3ae32f654b8954ea4c4635f915","","Mozilla/5.0 (Windows NT 10.0; Win64; x64) AppleWebKit/537.36 (KHTML, like Gecko) Chrome/132.0.0.0 Safari/537.36","WebKit","Chrome","132.0.0.0","Windows","10.0","https://hz8g1ckzuq.cognition.run/","en-US,en;q=0.9","4u6uzgxa7l4vp1j","43","[""Black or African-American""]","No","Male","2513346.799999997","null","","<p></p>","null","rating","cdt","attraction_2","1","washing machines","null","null","null","null","null","null","1","","","","","","","","","",""
"","","","","","rating_trial","survey-html-form","38","1423811","0.0-3.0-1.17","216","1","2025-04-14 16:14:47","bb671e3ae32f654b8954ea4c4635f915","","Mozilla/5.0 (Windows NT 10.0; Win64; x64) AppleWebKit/537.36 (KHTML, like Gecko) Chrome/132.0.0.0 Safari/537.36","WebKit","Chrome","132.0.0.0","Windows","10.0","https://hz8g1ckzuq.cognition.run/","en-US,en;q=0.9","4u6uzgxa7l4vp1j","43","[""Black or African-American""]","No","Male","2513346.799999997","203811","","","{""price_1"":""450"",""price_2"":""600"",""price_3"":""700""}","rating","cdt","attraction_2","1","washing machines","null","null","null","null","null","null","1","60","50","60","50","60","40","Average lifespan","Energy savings","",""
"","","","","","rating_trial_setup","html-keyboard-response","39","1424113","0.0-3.0-0.18","216","1","2025-04-14 16:14:47","bb671e3ae32f654b8954ea4c4635f915","","Mozilla/5.0 (Windows NT 10.0; Win64; x64) AppleWebKit/537.36 (KHTML, like Gecko) Chrome/132.0.0.0 Safari/537.36","WebKit","Chrome","132.0.0.0","Windows","10.0","https://hz8g1ckzuq.cognition.run/","en-US,en;q=0.9","4u6uzgxa7l4vp1j","43","[""Black or African-American""]","No","Male","2513346.799999997","null","","<p></p>","null","rating","dtc","repulsion_2","1","microwave ovens","null","null","null","null","null","null","1","","","","","","","","","",""
"","","","","","rating_trial","survey-html-form","40","1461241","0.0-3.0-1.18","216","1","2025-04-14 16:14:47","bb671e3ae32f654b8954ea4c4635f915","","Mozilla/5.0 (Windows NT 10.0; Win64; x64) AppleWebKit/537.36 (KHTML, like Gecko) Chrome/132.0.0.0 Safari/537.36","WebKit","Chrome","132.0.0.0","Windows","10.0","https://hz8g1ckzuq.cognition.run/","en-US,en;q=0.9","4u6uzgxa7l4vp1j","43","[""Black or African-American""]","No","Male","2513346.799999997","37125","","","{""price_1"":""80"",""price_2"":""100"",""price_3"":""130""}","rating","dtc","repulsion_2","1","microwave ovens","null","null","null","null","null","null","1","100","90","100","30","40","20","Warranty","Cooking power","",""
"","","","","","rating_trial_setup","html-keyboard-response","41","1461543","0.0-3.0-0.19","216","1","2025-04-14 16:14:47","bb671e3ae32f654b8954ea4c4635f915","","Mozilla/5.0 (Windows NT 10.0; Win64; x64) AppleWebKit/537.36 (KHTML, like Gecko) Chrome/132.0.0.0 Safari/537.36","WebKit","Chrome","132.0.0.0","Windows","10.0","https://hz8g1ckzuq.cognition.run/","en-US,en;q=0.9","4u6uzgxa7l4vp1j","43","[""Black or African-American""]","No","Male","2513346.799999997","null","","<p></p>","null","rating","tcd","attraction_1","1","microwave ovens","null","null","null","null","null","null","1","","","","","","","","","",""
"","","","","","rating_trial","survey-html-form","42","1494007","0.0-3.0-1.19","216","1","2025-04-14 16:14:47","bb671e3ae32f654b8954ea4c4635f915","","Mozilla/5.0 (Windows NT 10.0; Win64; x64) AppleWebKit/537.36 (KHTML, like Gecko) Chrome/132.0.0.0 Safari/537.36","WebKit","Chrome","132.0.0.0","Windows","10.0","https://hz8g1ckzuq.cognition.run/","en-US,en;q=0.9","4u6uzgxa7l4vp1j","43","[""Black or African-American""]","No","Male","2513346.799999997","32457","","","{""price_1"":""120"",""price_2"":""150"",""price_3"":""90""}","rating","tcd","attraction_1","1","microwave ovens","null","null","null","null","null","null","1","60","50","60","50","60","45","Warranty","Cooking power","",""
"","","","","","rating_trial_setup","html-keyboard-response","43","1494310","0.0-3.0-0.20","216","1","2025-04-14 16:14:47","bb671e3ae32f654b8954ea4c4635f915","","Mozilla/5.0 (Windows NT 10.0; Win64; x64) AppleWebKit/537.36 (KHTML, like Gecko) Chrome/132.0.0.0 Safari/537.36","WebKit","Chrome","132.0.0.0","Windows","10.0","https://hz8g1ckzuq.cognition.run/","en-US,en;q=0.9","4u6uzgxa7l4vp1j","43","[""Black or African-American""]","No","Male","2513346.799999997","null","","<p></p>","null","rating","wwb","catch","null","microwave ovens","70","60","25","50","5","30","2","","","","","","","","","",""
"","","","","","rating_trial","survey-html-form","44","1523559","0.0-3.0-1.20","216","1","2025-04-14 16:14:47","bb671e3ae32f654b8954ea4c4635f915","","Mozilla/5.0 (Windows NT 10.0; Win64; x64) AppleWebKit/537.36 (KHTML, like Gecko) Chrome/132.0.0.0 Safari/537.36","WebKit","Chrome","132.0.0.0","Windows","10.0","https://hz8g1ckzuq.cognition.run/","en-US,en;q=0.9","4u6uzgxa7l4vp1j","43","[""Black or African-American""]","No","Male","2513346.799999997","29244","","","{""price_1"":""100"",""price_2"":""70"",""price_3"":""120""}","rating","wwb","catch","null","microwave ovens","70","60","25","50","5","30","2","null","null","null","null","null","null","Warranty","Cooking power","",""
"","","","","","rating_trial_setup","html-keyboard-response","45","1523861","0.0-3.0-0.21","216","1","2025-04-14 16:14:47","bb671e3ae32f654b8954ea4c4635f915","","Mozilla/5.0 (Windows NT 10.0; Win64; x64) AppleWebKit/537.36 (KHTML, like Gecko) Chrome/132.0.0.0 Safari/537.36","WebKit","Chrome","132.0.0.0","Windows","10.0","https://hz8g1ckzuq.cognition.run/","en-US,en;q=0.9","4u6uzgxa7l4vp1j","43","[""Black or African-American""]","No","Male","2513346.799999997","null","","<p></p>","null","rating","tdc","repulsion_1","1","laptops","null","null","null","null","null","null","2","","","","","","","","","",""
"","","","","","rating_trial","survey-html-form","46","1539999","0.0-3.0-1.21","216","1","2025-04-14 16:14:47","bb671e3ae32f654b8954ea4c4635f915","","Mozilla/5.0 (Windows NT 10.0; Win64; x64) AppleWebKit/537.36 (KHTML, like Gecko) Chrome/132.0.0.0 Safari/537.36","WebKit","Chrome","132.0.0.0","Windows","10.0","https://hz8g1ckzuq.cognition.run/","en-US,en;q=0.9","4u6uzgxa7l4vp1j","43","[""Black or African-American""]","No","Male","2513346.799999997","16133","","","{""price_1"":""450"",""price_2"":""420"",""price_3"":""300""}","rating","tdc","repulsion_1","1","laptops","null","null","null","null","null","null","2","100","90","100","30","40","25","Processing speed","Memory (RAM)","",""
"","","","","","rating_trial_setup","html-keyboard-response","47","1540301","0.0-3.0-0.22","216","1","2025-04-14 16:14:47","bb671e3ae32f654b8954ea4c4635f915","","Mozilla/5.0 (Windows NT 10.0; Win64; x64) AppleWebKit/537.36 (KHTML, like Gecko) Chrome/132.0.0.0 Safari/537.36","WebKit","Chrome","132.0.0.0","Windows","10.0","https://hz8g1ckzuq.cognition.run/","en-US,en;q=0.9","4u6uzgxa7l4vp1j","43","[""Black or African-American""]","No","Male","2513346.799999997","null","","<p></p>","null","rating","wbw","catch","null","televisions","50","60","50","15","50","40","2","","","","","","","","","",""
"","","","","","rating_trial","survey-html-form","48","1576151","0.0-3.0-1.22","216","1","2025-04-14 16:14:47","bb671e3ae32f654b8954ea4c4635f915","","Mozilla/5.0 (Windows NT 10.0; Win64; x64) AppleWebKit/537.36 (KHTML, like Gecko) Chrome/132.0.0.0 Safari/537.36","WebKit","Chrome","132.0.0.0","Windows","10.0","https://hz8g1ckzuq.cognition.run/","en-US,en;q=0.9","4u6uzgxa7l4vp1j","43","[""Black or African-American""]","No","Male","2513346.799999997","35846","","","{""price_1"":""400"",""price_2"":""600"",""price_3"":""500""}","rating","wbw","catch","null","televisions","50","60","50","15","50","40","2","null","null","null","null","null","null","Screen size","Average lifespan","",""
"","","","","","rating_trial_setup","html-keyboard-response","49","1576453","0.0-3.0-0.23","216","1","2025-04-14 16:14:47","bb671e3ae32f654b8954ea4c4635f915","","Mozilla/5.0 (Windows NT 10.0; Win64; x64) AppleWebKit/537.36 (KHTML, like Gecko) Chrome/132.0.0.0 Safari/537.36","WebKit","Chrome","132.0.0.0","Windows","10.0","https://hz8g1ckzuq.cognition.run/","en-US,en;q=0.9","4u6uzgxa7l4vp1j","43","[""Black or African-American""]","No","Male","2513346.799999997","null","","<p></p>","null","rating","tdc","repulsion_2","2","laptops","null","null","null","null","null","null","2","","","","","","","","","",""
"","","","","","rating_trial","survey-html-form","50","1607135","0.0-3.0-1.23","216","1","2025-04-14 16:14:47","bb671e3ae32f654b8954ea4c4635f915","","Mozilla/5.0 (Windows NT 10.0; Win64; x64) AppleWebKit/537.36 (KHTML, like Gecko) Chrome/132.0.0.0 Safari/537.36","WebKit","Chrome","132.0.0.0","Windows","10.0","https://hz8g1ckzuq.cognition.run/","en-US,en;q=0.9","4u6uzgxa7l4vp1j","43","[""Black or African-American""]","No","Male","2513346.799999997","30679","","","{""price_1"":""300"",""price_2"":""250"",""price_3"":""350""}","rating","tdc","repulsion_2","2","laptops","null","null","null","null","null","null","2","30","40","20","100","90","100","Processing speed","Memory (RAM)","",""
"","","","","","rating_trial_setup","html-keyboard-response","51","1607438","0.0-3.0-0.24","216","1","2025-04-14 16:14:47","bb671e3ae32f654b8954ea4c4635f915","","Mozilla/5.0 (Windows NT 10.0; Win64; x64) AppleWebKit/537.36 (KHTML, like Gecko) Chrome/132.0.0.0 Safari/537.36","WebKit","Chrome","132.0.0.0","Windows","10.0","https://hz8g1ckzuq.cognition.run/","en-US,en;q=0.9","4u6uzgxa7l4vp1j","43","[""Black or African-American""]","No","Male","2513346.799999997","null","","<p></p>","null","rating","tcd","attraction_1","2","televisions","null","null","null","null","null","null","2","","","","","","","","","",""
"","","","","","rating_trial","survey-html-form","52","1809543","0.0-3.0-1.24","216","1","2025-04-14 16:14:47","bb671e3ae32f654b8954ea4c4635f915","","Mozilla/5.0 (Windows NT 10.0; Win64; x64) AppleWebKit/537.36 (KHTML, like Gecko) Chrome/132.0.0.0 Safari/537.36","WebKit","Chrome","132.0.0.0","Windows","10.0","https://hz8g1ckzuq.cognition.run/","en-US,en;q=0.9","4u6uzgxa7l4vp1j","43","[""Black or African-American""]","No","Male","2513346.799999997","202102","","","{""price_1"":""544"",""price_2"":""560"",""price_3"":""400""}","rating","tcd","attraction_1","2","televisions","null","null","null","null","null","null","2","50","60","45","60","50","60","Screen size","Average lifespan","",""
"","","","","","rating_trial_setup","html-keyboard-response","53","1809846","0.0-3.0-0.25","216","1","2025-04-14 16:14:47","bb671e3ae32f654b8954ea4c4635f915","","Mozilla/5.0 (Windows NT 10.0; Win64; x64) AppleWebKit/537.36 (KHTML, like Gecko) Chrome/132.0.0.0 Safari/537.36","WebKit","Chrome","132.0.0.0","Windows","10.0","https://hz8g1ckzuq.cognition.run/","en-US,en;q=0.9","4u6uzgxa7l4vp1j","43","[""Black or African-American""]","No","Male","2513346.799999997","null","","<p></p>","null","rating","tcd","repulsion_1","1","washing machines","null","null","null","null","null","null","2","","","","","","","","","",""
"","","","","","rating_trial","survey-html-form","54","1822679","0.0-3.0-1.25","216","1","2025-04-14 16:14:47","bb671e3ae32f654b8954ea4c4635f915","","Mozilla/5.0 (Windows NT 10.0; Win64; x64) AppleWebKit/537.36 (KHTML, like Gecko) Chrome/132.0.0.0 Safari/537.36","WebKit","Chrome","132.0.0.0","Windows","10.0","https://hz8g1ckzuq.cognition.run/","en-US,en;q=0.9","4u6uzgxa7l4vp1j","43","[""Black or African-American""]","No","Male","2513346.799999997","12826","","","{""price_1"":""462"",""price_2"":""551"",""price_3"":""874""}","rating","tcd","repulsion_1","1","washing machines","null","null","null","null","null","null","2","100","90","100","30","40","25","Average lifespan","Energy savings","",""
"","","","","","rating_trial_setup","html-keyboard-response","55","1822981","0.0-3.0-0.26","216","1","2025-04-14 16:14:47","bb671e3ae32f654b8954ea4c4635f915","","Mozilla/5.0 (Windows NT 10.0; Win64; x64) AppleWebKit/537.36 (KHTML, like Gecko) Chrome/132.0.0.0 Safari/537.36","WebKit","Chrome","132.0.0.0","Windows","10.0","https://hz8g1ckzuq.cognition.run/","en-US,en;q=0.9","4u6uzgxa7l4vp1j","43","[""Black or African-American""]","No","Male","2513346.799999997","null","","<p></p>","null","rating","tcd","attraction_2","2","televisions","null","null","null","null","null","null","2","","","","","","","","","",""
"","","","","","rating_trial","survey-html-form","56","1835391","0.0-3.0-1.26","216","1","2025-04-14 16:14:47","bb671e3ae32f654b8954ea4c4635f915","","Mozilla/5.0 (Windows NT 10.0; Win64; x64) AppleWebKit/537.36 (KHTML, like Gecko) Chrome/132.0.0.0 Safari/537.36","WebKit","Chrome","132.0.0.0","Windows","10.0","https://hz8g1ckzuq.cognition.run/","en-US,en;q=0.9","4u6uzgxa7l4vp1j","43","[""Black or African-American""]","No","Male","2513346.799999997","12408","","","{""price_1"":""233"",""price_2"":""540"",""price_3"":""546""}","rating","tcd","attraction_2","2","televisions","null","null","null","null","null","null","2","50","60","40","60","50","60","Screen size","Average lifespan","",""
"","","","","","rating_trial_setup","html-keyboard-response","57","1835693","0.0-3.0-0.27","216","1","2025-04-14 16:14:47","bb671e3ae32f654b8954ea4c4635f915","","Mozilla/5.0 (Windows NT 10.0; Win64; x64) AppleWebKit/537.36 (KHTML, like Gecko) Chrome/132.0.0.0 Safari/537.36","WebKit","Chrome","132.0.0.0","Windows","10.0","https://hz8g1ckzuq.cognition.run/","en-US,en;q=0.9","4u6uzgxa7l4vp1j","43","[""Black or African-American""]","No","Male","2513346.799999997","null","","<p></p>","null","rating","ctd","repulsion_1","2","washing machines","null","null","null","null","null","null","2","","","","","","","","","",""
"","","","","","rating_trial","survey-html-form","58","1844007","0.0-3.0-1.27","216","1","2025-04-14 16:14:47","bb671e3ae32f654b8954ea4c4635f915","","Mozilla/5.0 (Windows NT 10.0; Win64; x64) AppleWebKit/537.36 (KHTML, like Gecko) Chrome/132.0.0.0 Safari/537.36","WebKit","Chrome","132.0.0.0","Windows","10.0","https://hz8g1ckzuq.cognition.run/","en-US,en;q=0.9","4u6uzgxa7l4vp1j","43","[""Black or African-American""]","No","Male","2513346.799999997","8305","","","{""price_1"":""231"",""price_2"":""846"",""price_3"":""249""}","rating","ctd","repulsion_1","2","washing machines","null","null","null","null","null","null","2","30","40","25","100","90","100","Average lifespan","Energy savings","",""
"","","","","","rating_trial_setup","html-keyboard-response","59","1844310","0.0-3.0-0.28","216","1","2025-04-14 16:14:47","bb671e3ae32f654b8954ea4c4635f915","","Mozilla/5.0 (Windows NT 10.0; Win64; x64) AppleWebKit/537.36 (KHTML, like Gecko) Chrome/132.0.0.0 Safari/537.36","WebKit","Chrome","132.0.0.0","Windows","10.0","https://hz8g1ckzuq.cognition.run/","en-US,en;q=0.9","4u6uzgxa7l4vp1j","43","[""Black or African-American""]","No","Male","2513346.799999997","null","","<p></p>","null","rating","wwb","catch","null","laptops","90","80","45","35","30","30","1","","","","","","","","","",""
"","","","","","rating_trial","survey-html-form","60","1852975","0.0-3.0-1.28","216","1","2025-04-14 16:14:47","bb671e3ae32f654b8954ea4c4635f915","","Mozilla/5.0 (Windows NT 10.0; Win64; x64) AppleWebKit/537.36 (KHTML, like Gecko) Chrome/132.0.0.0 Safari/537.36","WebKit","Chrome","132.0.0.0","Windows","10.0","https://hz8g1ckzuq.cognition.run/","en-US,en;q=0.9","4u6uzgxa7l4vp1j","43","[""Black or African-American""]","No","Male","2513346.799999997","8663","","","{""price_1"":""462"",""price_2"":""354"",""price_3"":""135""}","rating","wwb","catch","null","laptops","90","80","45","35","30","30","1","null","null","null","null","null","null","Processing speed","Memory (RAM)","",""
"","","","","","rating_trial_setup","html-keyboard-response","61","1853278","0.0-3.0-0.29","216","1","2025-04-14 16:14:47","bb671e3ae32f654b8954ea4c4635f915","","Mozilla/5.0 (Windows NT 10.0; Win64; x64) AppleWebKit/537.36 (KHTML, like Gecko) Chrome/132.0.0.0 Safari/537.36","WebKit","Chrome","132.0.0.0","Windows","10.0","https://hz8g1ckzuq.cognition.run/","en-US,en;q=0.9","4u6uzgxa7l4vp1j","43","[""Black or African-American""]","No","Male","2513346.799999997","null","","<p></p>","null","rating","dtc","attraction_2","2","microwave ovens","null","null","null","null","null","null","2","","","","","","","","","",""
"","","","","","rating_trial","survey-html-form","62","1860647","0.0-3.0-1.29","216","1","2025-04-14 16:14:47","bb671e3ae32f654b8954ea4c4635f915","","Mozilla/5.0 (Windows NT 10.0; Win64; x64) AppleWebKit/537.36 (KHTML, like Gecko) Chrome/132.0.0.0 Safari/537.36","WebKit","Chrome","132.0.0.0","Windows","10.0","https://hz8g1ckzuq.cognition.run/","en-US,en;q=0.9","4u6uzgxa7l4vp1j","43","[""Black or African-American""]","No","Male","2513346.799999997","7361","","","{""price_1"":""546"",""price_2"":""315"",""price_3"":""987""}","rating","dtc","attraction_2","2","microwave ovens","null","null","null","null","null","null","2","50","60","40","60","50","60","Warranty","Cooking power","",""
"","","","","","rating_trial_setup","html-keyboard-response","63","1860950","0.0-3.0-0.30","216","1","2025-04-14 16:14:47","bb671e3ae32f654b8954ea4c4635f915","","Mozilla/5.0 (Windows NT 10.0; Win64; x64) AppleWebKit/537.36 (KHTML, like Gecko) Chrome/132.0.0.0 Safari/537.36","WebKit","Chrome","132.0.0.0","Windows","10.0","https://hz8g1ckzuq.cognition.run/","en-US,en;q=0.9","4u6uzgxa7l4vp1j","43","[""Black or African-American""]","No","Male","2513346.799999997","null","","<p></p>","null","rating","tdc","repulsion_2","2","washing machines","null","null","null","null","null","null","2","","","","","","","","","",""
"","","","","","rating_trial","survey-html-form","64","1870423","0.0-3.0-1.30","216","1","2025-04-14 16:14:47","bb671e3ae32f654b8954ea4c4635f915","","Mozilla/5.0 (Windows NT 10.0; Win64; x64) AppleWebKit/537.36 (KHTML, like Gecko) Chrome/132.0.0.0 Safari/537.36","WebKit","Chrome","132.0.0.0","Windows","10.0","https://hz8g1ckzuq.cognition.run/","en-US,en;q=0.9","4u6uzgxa7l4vp1j","43","[""Black or African-American""]","No","Male","2513346.799999997","9464","","","{""price_1"":""126"",""price_2"":""168"",""price_3"":""251""}","rating","tdc","repulsion_2","2","washing machines","null","null","null","null","null","null","2","30","40","20","100","90","100","Average lifespan","Energy savings","",""
"","","","","","rating_trial_setup","html-keyboard-response","65","1870725","0.0-3.0-0.31","216","1","2025-04-14 16:14:47","bb671e3ae32f654b8954ea4c4635f915","","Mozilla/5.0 (Windows NT 10.0; Win64; x64) AppleWebKit/537.36 (KHTML, like Gecko) Chrome/132.0.0.0 Safari/537.36","WebKit","Chrome","132.0.0.0","Windows","10.0","https://hz8g1ckzuq.cognition.run/","en-US,en;q=0.9","4u6uzgxa7l4vp1j","43","[""Black or African-American""]","No","Male","2513346.799999997","null","","<p></p>","null","rating","tdc","repulsion_2","2","televisions","null","null","null","null","null","null","1","","","","","","","","","",""
"","","","","","rating_trial","survey-html-form","66","1882167","0.0-3.0-1.31","216","1","2025-04-14 16:14:47","bb671e3ae32f654b8954ea4c4635f915","","Mozilla/5.0 (Windows NT 10.0; Win64; x64) AppleWebKit/537.36 (KHTML, like Gecko) Chrome/132.0.0.0 Safari/537.36","WebKit","Chrome","132.0.0.0","Windows","10.0","https://hz8g1ckzuq.cognition.run/","en-US,en;q=0.9","4u6uzgxa7l4vp1j","43","[""Black or African-American""]","No","Male","2513346.799999997","11439","","","{""price_1"":""465"",""price_2"":""231"",""price_3"":""546""}","rating","tdc","repulsion_2","2","televisions","null","null","null","null","null","null","1","30","40","20","100","90","100","Screen size","Average lifespan","",""
"","","","","","rating_trial_setup","html-keyboard-response","67","1882470","0.0-3.0-0.32","216","1","2025-04-14 16:14:47","bb671e3ae32f654b8954ea4c4635f915","","Mozilla/5.0 (Windows NT 10.0; Win64; x64) AppleWebKit/537.36 (KHTML, like Gecko) Chrome/132.0.0.0 Safari/537.36","WebKit","Chrome","132.0.0.0","Windows","10.0","https://hz8g1ckzuq.cognition.run/","en-US,en;q=0.9","4u6uzgxa7l4vp1j","43","[""Black or African-American""]","No","Male","2513346.799999997","null","","<p></p>","null","rating","tdc","attraction_2","1","televisions","null","null","null","null","null","null","2","","","","","","","","","",""
"","","","","","rating_trial","survey-html-form","68","1892671","0.0-3.0-1.32","216","1","2025-04-14 16:14:47","bb671e3ae32f654b8954ea4c4635f915","","Mozilla/5.0 (Windows NT 10.0; Win64; x64) AppleWebKit/537.36 (KHTML, like Gecko) Chrome/132.0.0.0 Safari/537.36","WebKit","Chrome","132.0.0.0","Windows","10.0","https://hz8g1ckzuq.cognition.run/","en-US,en;q=0.9","4u6uzgxa7l4vp1j","43","[""Black or African-American""]","No","Male","2513346.799999997","10193","","","{""price_1"":""546"",""price_2"":""346"",""price_3"":""942""}","rating","tdc","attraction_2","1","televisions","null","null","null","null","null","null","2","60","50","60","50","60","40","Screen size","Average lifespan","",""
"","","","","","rating_trial_setup","html-keyboard-response","69","1892974","0.0-3.0-0.33","216","1","2025-04-14 16:14:47","bb671e3ae32f654b8954ea4c4635f915","","Mozilla/5.0 (Windows NT 10.0; Win64; x64) AppleWebKit/537.36 (KHTML, like Gecko) Chrome/132.0.0.0 Safari/537.36","WebKit","Chrome","132.0.0.0","Windows","10.0","https://hz8g1ckzuq.cognition.run/","en-US,en;q=0.9","4u6uzgxa7l4vp1j","43","[""Black or African-American""]","No","Male","2513346.799999997","null","","<p></p>","null","rating","dct","repulsion_1","2","laptops","null","null","null","null","null","null","1","","","","","","","","","",""
"","","","","","rating_trial","survey-html-form","70","1899967","0.0-3.0-1.33","216","1","2025-04-14 16:14:47","bb671e3ae32f654b8954ea4c4635f915","","Mozilla/5.0 (Windows NT 10.0; Win64; x64) AppleWebKit/537.36 (KHTML, like Gecko) Chrome/132.0.0.0 Safari/537.36","WebKit","Chrome","132.0.0.0","Windows","10.0","https://hz8g1ckzuq.cognition.run/","en-US,en;q=0.9","4u6uzgxa7l4vp1j","43","[""Black or African-American""]","No","Male","2513346.799999997","6985","","","{""price_1"":""946"",""price_2"":""212"",""price_3"":""315""}","rating","dct","repulsion_1","2","laptops","null","null","null","null","null","null","1","30","40","25","100","90","100","Processing speed","Memory (RAM)","",""
"","","","","","rating_trial_setup","html-keyboard-response","71","1900269","0.0-3.0-0.34","216","1","2025-04-14 16:14:47","bb671e3ae32f654b8954ea4c4635f915","","Mozilla/5.0 (Windows NT 10.0; Win64; x64) AppleWebKit/537.36 (KHTML, like Gecko) Chrome/132.0.0.0 Safari/537.36","WebKit","Chrome","132.0.0.0","Windows","10.0","https://hz8g1ckzuq.cognition.run/","en-US,en;q=0.9","4u6uzgxa7l4vp1j","43","[""Black or African-American""]","No","Male","2513346.799999997","null","","<p></p>","null","rating","tdc","repulsion_2","1","laptops","null","null","null","null","null","null","2","","","","","","","","","",""
"","","","","","rating_trial","survey-html-form","72","1907087","0.0-3.0-1.34","216","1","2025-04-14 16:14:47","bb671e3ae32f654b8954ea4c4635f915","","Mozilla/5.0 (Windows NT 10.0; Win64; x64) AppleWebKit/537.36 (KHTML, like Gecko) Chrome/132.0.0.0 Safari/537.36","WebKit","Chrome","132.0.0.0","Windows","10.0","https://hz8g1ckzuq.cognition.run/","en-US,en;q=0.9","4u6uzgxa7l4vp1j","43","[""Black or African-American""]","No","Male","2513346.799999997","6815","","","{""price_1"":""467"",""price_2"":""246"",""price_3"":""951""}","rating","tdc","repulsion_2","1","laptops","null","null","null","null","null","null","2","100","90","100","30","40","20","Processing speed","Memory (RAM)","",""
"","","","","","rating_trial_setup","html-keyboard-response","73","1907390","0.0-3.0-0.35","216","1","2025-04-14 16:14:47","bb671e3ae32f654b8954ea4c4635f915","","Mozilla/5.0 (Windows NT 10.0; Win64; x64) AppleWebKit/537.36 (KHTML, like Gecko) Chrome/132.0.0.0 Safari/537.36","WebKit","Chrome","132.0.0.0","Windows","10.0","https://hz8g1ckzuq.cognition.run/","en-US,en;q=0.9","4u6uzgxa7l4vp1j","43","[""Black or African-American""]","No","Male","2513346.799999997","null","","<p></p>","null","rating","tcd","repulsion_2","1","washing machines","null","null","null","null","null","null","1","","","","","","","","","",""
"","","","","","rating_trial","survey-html-form","74","1915495","0.0-3.0-1.35","216","1","2025-04-14 16:14:47","bb671e3ae32f654b8954ea4c4635f915","","Mozilla/5.0 (Windows NT 10.0; Win64; x64) AppleWebKit/537.36 (KHTML, like Gecko) Chrome/132.0.0.0 Safari/537.36","WebKit","Chrome","132.0.0.0","Windows","10.0","https://hz8g1ckzuq.cognition.run/","en-US,en;q=0.9","4u6uzgxa7l4vp1j","43","[""Black or African-American""]","No","Male","2513346.799999997","8102","","","{""price_1"":""246"",""price_2"":""216"",""price_3"":""95""}","rating","tcd","repulsion_2","1","washing machines","null","null","null","null","null","null","1","100","90","100","30","40","20","Average lifespan","Energy savings","",""
"","","","","","rating_trial_setup","html-keyboard-response","75","1915799","0.0-3.0-0.36","216","1","2025-04-14 16:14:47","bb671e3ae32f654b8954ea4c4635f915","","Mozilla/5.0 (Windows NT 10.0; Win64; x64) AppleWebKit/537.36 (KHTML, like Gecko) Chrome/132.0.0.0 Safari/537.36","WebKit","Chrome","132.0.0.0","Windows","10.0","https://hz8g1ckzuq.cognition.run/","en-US,en;q=0.9","4u6uzgxa7l4vp1j","43","[""Black or African-American""]","No","Male","2513346.799999997","null","","<p></p>","null","rating","tcd","attraction_2","2","laptops","null","null","null","null","null","null","2","","","","","","","","","",""
"","","","","","rating_trial","survey-html-form","76","1923007","0.0-3.0-1.36","216","1","2025-04-14 16:14:47","bb671e3ae32f654b8954ea4c4635f915","","Mozilla/5.0 (Windows NT 10.0; Win64; x64) AppleWebKit/537.36 (KHTML, like Gecko) Chrome/132.0.0.0 Safari/537.36","WebKit","Chrome","132.0.0.0","Windows","10.0","https://hz8g1ckzuq.cognition.run/","en-US,en;q=0.9","4u6uzgxa7l4vp1j","43","[""Black or African-American""]","No","Male","2513346.799999997","7197","","","{""price_1"":""224"",""price_2"":""316"",""price_3"":""615""}","rating","tcd","attraction_2","2","laptops","null","null","null","null","null","null","2","50","60","40","60","50","60","Processing speed","Memory (RAM)","",""
"","","","","","rating_trial_setup","html-keyboard-response","77","1923310","0.0-3.0-0.37","216","1","2025-04-14 16:14:47","bb671e3ae32f654b8954ea4c4635f915","","Mozilla/5.0 (Windows NT 10.0; Win64; x64) AppleWebKit/537.36 (KHTML, like Gecko) Chrome/132.0.0.0 Safari/537.36","WebKit","Chrome","132.0.0.0","Windows","10.0","https://hz8g1ckzuq.cognition.run/","en-US,en;q=0.9","4u6uzgxa7l4vp1j","43","[""Black or African-American""]","No","Male","2513346.799999997","null","","<p></p>","null","rating","wbw","catch","null","washing machines","90","85","5","25","20","35","1","","","","","","","","","",""
"","","","","","rating_trial","survey-html-form","78","1930495","0.0-3.0-1.37","216","1","2025-04-14 16:14:47","bb671e3ae32f654b8954ea4c4635f915","","Mozilla/5.0 (Windows NT 10.0; Win64; x64) AppleWebKit/537.36 (KHTML, like Gecko) Chrome/132.0.0.0 Safari/537.36","WebKit","Chrome","132.0.0.0","Windows","10.0","https://hz8g1ckzuq.cognition.run/","en-US,en;q=0.9","4u6uzgxa7l4vp1j","43","[""Black or African-American""]","No","Male","2513346.799999997","7174","","","{""price_1"":""641"",""price_2"":""326"",""price_3"":""614""}","rating","wbw","catch","null","washing machines","90","85","5","25","20","35","1","null","null","null","null","null","null","Average lifespan","Energy savings","",""
"","","","","","rating_trial_setup","html-keyboard-response","79","1930799","0.0-3.0-0.38","216","1","2025-04-14 16:14:47","bb671e3ae32f654b8954ea4c4635f915","","Mozilla/5.0 (Windows NT 10.0; Win64; x64) AppleWebKit/537.36 (KHTML, like Gecko) Chrome/132.0.0.0 Safari/537.36","WebKit","Chrome","132.0.0.0","Windows","10.0","https://hz8g1ckzuq.cognition.run/","en-US,en;q=0.9","4u6uzgxa7l4vp1j","43","[""Black or African-American""]","No","Male","2513346.799999997","null","","<p></p>","null","rating","wwb","catch","null","microwave ovens","85","70","30","50","5","20","1","","","","","","","","","",""
"","","","","","rating_trial","survey-html-form","80","1938943","0.0-3.0-1.38","216","1","2025-04-14 16:14:47","bb671e3ae32f654b8954ea4c4635f915","","Mozilla/5.0 (Windows NT 10.0; Win64; x64) AppleWebKit/537.36 (KHTML, like Gecko) Chrome/132.0.0.0 Safari/537.36","WebKit","Chrome","132.0.0.0","Windows","10.0","https://hz8g1ckzuq.cognition.run/","en-US,en;q=0.9","4u6uzgxa7l4vp1j","43","[""Black or African-American""]","No","Male","2513346.799999997","8134","","","{""price_1"":""641"",""price_2"":""313"",""price_3"":""615""}","rating","wwb","catch","null","microwave ovens","85","70","30","50","5","20","1","null","null","null","null","null","null","Warranty","Cooking power","",""
"","","","","","rating_trial_setup","html-keyboard-response","81","1939246","0.0-3.0-0.39","216","1","2025-04-14 16:14:47","bb671e3ae32f654b8954ea4c4635f915","","Mozilla/5.0 (Windows NT 10.0; Win64; x64) AppleWebKit/537.36 (KHTML, like Gecko) Chrome/132.0.0.0 Safari/537.36","WebKit","Chrome","132.0.0.0","Windows","10.0","https://hz8g1ckzuq.cognition.run/","en-US,en;q=0.9","4u6uzgxa7l4vp1j","43","[""Black or African-American""]","No","Male","2513346.799999997","null","","<p></p>","null","rating","cdt","repulsion_2","2","microwave ovens","null","null","null","null","null","null","1","","","","","","","","","",""
"","","","","","rating_trial","survey-html-form","82","1950743","0.0-3.0-1.39","216","1","2025-04-14 16:14:47","bb671e3ae32f654b8954ea4c4635f915","","Mozilla/5.0 (Windows NT 10.0; Win64; x64) AppleWebKit/537.36 (KHTML, like Gecko) Chrome/132.0.0.0 Safari/537.36","WebKit","Chrome","132.0.0.0","Windows","10.0","https://hz8g1ckzuq.cognition.run/","en-US,en;q=0.9","4u6uzgxa7l4vp1j","43","[""Black or African-American""]","No","Male","2513346.799999997","11490","","","{""price_1"":""945"",""price_2"":""311"",""price_3"":""451""}","rating","cdt","repulsion_2","2","microwave ovens","null","null","null","null","null","null","1","30","40","20","100","90","100","Warranty","Cooking power","",""
"","","","","","","instructions","83","1988052","0.0-4.0","216","1","2025-04-14 16:14:47","bb671e3ae32f654b8954ea4c4635f915","","Mozilla/5.0 (Windows NT 10.0; Win64; x64) AppleWebKit/537.36 (KHTML, like Gecko) Chrome/132.0.0.0 Safari/537.36","WebKit","Chrome","132.0.0.0","Windows","10.0","https://hz8g1ckzuq.cognition.run/","en-US,en;q=0.9","4u6uzgxa7l4vp1j","43","[""Black or African-American""]","No","Male","2513346.799999997","37308","[{""page_index"":0,""viewing_time"":3841},{""page_index"":1,""viewing_time"":4246},{""page_index"":2,""viewing_time"":3264},{""page_index"":3,""viewing_time"":4964},{""page_index"":4,""viewing_time"":4314},{""page_index"":5,""viewing_time"":3503},{""page_index"":6,""viewing_time"":5763},{""page_index"":7,""viewing_time"":7412}]","","","","","","","","","","","","","","","","","","","","","","","",""
"","","","","","choice_trial_setup","html-keyboard-response","84","1988356","0.0-5.0-0.0","216","1","2025-04-14 16:14:47","bb671e3ae32f654b8954ea4c4635f915","","Mozilla/5.0 (Windows NT 10.0; Win64; x64) AppleWebKit/537.36 (KHTML, like Gecko) Chrome/132.0.0.0 Safari/537.36","WebKit","Chrome","132.0.0.0","Windows","10.0","https://hz8g1ckzuq.cognition.run/","en-US,en;q=0.9","4u6uzgxa7l4vp1j","43","[""Black or African-American""]","No","Male","2513346.799999997","null","","<p></p>","null","choice","cdt","repulsion_2","1","laptops","null","null","null","null","null","null","1","","","","","","","","","",""
"","","","","","choice_trial","survey-html-form","85","2004392","0.0-5.0-1.0","216","1","2025-04-14 16:14:47","bb671e3ae32f654b8954ea4c4635f915","","Mozilla/5.0 (Windows NT 10.0; Win64; x64) AppleWebKit/537.36 (KHTML, like Gecko) Chrome/132.0.0.0 Safari/537.36","WebKit","Chrome","132.0.0.0","Windows","10.0","https://hz8g1ckzuq.cognition.run/","en-US,en;q=0.9","4u6uzgxa7l4vp1j","43","[""Black or African-American""]","No","Male","2513346.799999997","16033","","","{""product_choice"":""A""}","choice","cdt","repulsion_2","1","laptops","null","null","null","null","null","null","1","100","90","100","30","40","20","Processing speed","Memory (RAM)","",""
"","","","","","choice_trial_setup","html-keyboard-response","86","2004695","0.0-5.0-0.1","216","1","2025-04-14 16:14:47","bb671e3ae32f654b8954ea4c4635f915","","Mozilla/5.0 (Windows NT 10.0; Win64; x64) AppleWebKit/537.36 (KHTML, like Gecko) Chrome/132.0.0.0 Safari/537.36","WebKit","Chrome","132.0.0.0","Windows","10.0","https://hz8g1ckzuq.cognition.run/","en-US,en;q=0.9","4u6uzgxa7l4vp1j","43","[""Black or African-American""]","No","Male","2513346.799999997","null","","<p></p>","null","choice","dtc","attraction_1","2","televisions","null","null","null","null","null","null","2","","","","","","","","","",""
"","","","","","choice_trial","survey-html-form","87","2017667","0.0-5.0-1.1","216","1","2025-04-14 16:14:47","bb671e3ae32f654b8954ea4c4635f915","","Mozilla/5.0 (Windows NT 10.0; Win64; x64) AppleWebKit/537.36 (KHTML, like Gecko) Chrome/132.0.0.0 Safari/537.36","WebKit","Chrome","132.0.0.0","Windows","10.0","https://hz8g1ckzuq.cognition.run/","en-US,en;q=0.9","4u6uzgxa7l4vp1j","43","[""Black or African-American""]","No","Male","2513346.799999997","12969","","","{""product_choice"":""C""}","choice","dtc","attraction_1","2","televisions","null","null","null","null","null","null","2","50","60","45","60","50","60","Screen size","Average lifespan","",""
"","","","","","choice_trial_setup","html-keyboard-response","88","2017972","0.0-5.0-0.2","216","1","2025-04-14 16:14:47","bb671e3ae32f654b8954ea4c4635f915","","Mozilla/5.0 (Windows NT 10.0; Win64; x64) AppleWebKit/537.36 (KHTML, like Gecko) Chrome/132.0.0.0 Safari/537.36","WebKit","Chrome","132.0.0.0","Windows","10.0","https://hz8g1ckzuq.cognition.run/","en-US,en;q=0.9","4u6uzgxa7l4vp1j","43","[""Black or African-American""]","No","Male","2513346.799999997","null","","<p></p>","null","choice","tdc","repulsion_1","2","microwave ovens","null","null","null","null","null","null","2","","","","","","","","","",""
"","","","","","choice_trial","survey-html-form","89","2024666","0.0-5.0-1.2","216","1","2025-04-14 16:14:47","bb671e3ae32f654b8954ea4c4635f915","","Mozilla/5.0 (Windows NT 10.0; Win64; x64) AppleWebKit/537.36 (KHTML, like Gecko) Chrome/132.0.0.0 Safari/537.36","WebKit","Chrome","132.0.0.0","Windows","10.0","https://hz8g1ckzuq.cognition.run/","en-US,en;q=0.9","4u6uzgxa7l4vp1j","43","[""Black or African-American""]","No","Male","2513346.799999997","6692","","","{""product_choice"":""C""}","choice","tdc","repulsion_1","2","microwave ovens","null","null","null","null","null","null","2","30","40","25","100","90","100","Warranty","Cooking power","",""
"","","","","","choice_trial_setup","html-keyboard-response","90","2024969","0.0-5.0-0.3","216","1","2025-04-14 16:14:47","bb671e3ae32f654b8954ea4c4635f915","","Mozilla/5.0 (Windows NT 10.0; Win64; x64) AppleWebKit/537.36 (KHTML, like Gecko) Chrome/132.0.0.0 Safari/537.36","WebKit","Chrome","132.0.0.0","Windows","10.0","https://hz8g1ckzuq.cognition.run/","en-US,en;q=0.9","4u6uzgxa7l4vp1j","43","[""Black or African-American""]","No","Male","2513346.799999997","null","","<p></p>","null","choice","cdt","attraction_1","2","microwave ovens","null","null","null","null","null","null","1","","","","","","","","","",""
"","","","","","choice_trial","survey-html-form","91","2052081","0.0-5.0-1.3","216","1","2025-04-14 16:14:47","bb671e3ae32f654b8954ea4c4635f915","","Mozilla/5.0 (Windows NT 10.0; Win64; x64) AppleWebKit/537.36 (KHTML, like Gecko) Chrome/132.0.0.0 Safari/537.36","WebKit","Chrome","132.0.0.0","Windows","10.0","https://hz8g1ckzuq.cognition.run/","en-US,en;q=0.9","4u6uzgxa7l4vp1j","43","[""Black or African-American""]","No","Male","2513346.799999997","27108","","","{""product_choice"":""C""}","choice","cdt","attraction_1","2","microwave ovens","null","null","null","null","null","null","1","50","60","45","60","50","60","Warranty","Cooking power","",""
"","","","","","choice_trial_setup","html-keyboard-response","92","2052384","0.0-5.0-0.4","216","1","2025-04-14 16:14:47","bb671e3ae32f654b8954ea4c4635f915","","Mozilla/5.0 (Windows NT 10.0; Win64; x64) AppleWebKit/537.36 (KHTML, like Gecko) Chrome/132.0.0.0 Safari/537.36","WebKit","Chrome","132.0.0.0","Windows","10.0","https://hz8g1ckzuq.cognition.run/","en-US,en;q=0.9","4u6uzgxa7l4vp1j","43","[""Black or African-American""]","No","Male","2513346.799999997","null","","<p></p>","null","choice","dtc","repulsion_2","2","microwave ovens","null","null","null","null","null","null","2","","","","","","","","","",""
"","","","","","choice_trial","survey-html-form","93","2063057","0.0-5.0-1.4","216","1","2025-04-14 16:14:47","bb671e3ae32f654b8954ea4c4635f915","","Mozilla/5.0 (Windows NT 10.0; Win64; x64) AppleWebKit/537.36 (KHTML, like Gecko) Chrome/132.0.0.0 Safari/537.36","WebKit","Chrome","132.0.0.0","Windows","10.0","https://hz8g1ckzuq.cognition.run/","en-US,en;q=0.9","4u6uzgxa7l4vp1j","43","[""Black or African-American""]","No","Male","2513346.799999997","10670","","","{""product_choice"":""C""}","choice","dtc","repulsion_2","2","microwave ovens","null","null","null","null","null","null","2","30","40","20","100","90","100","Warranty","Cooking power","",""
"","","","","","choice_trial_setup","html-keyboard-response","94","2063360","0.0-5.0-0.5","216","1","2025-04-14 16:14:47","bb671e3ae32f654b8954ea4c4635f915","","Mozilla/5.0 (Windows NT 10.0; Win64; x64) AppleWebKit/537.36 (KHTML, like Gecko) Chrome/132.0.0.0 Safari/537.36","WebKit","Chrome","132.0.0.0","Windows","10.0","https://hz8g1ckzuq.cognition.run/","en-US,en;q=0.9","4u6uzgxa7l4vp1j","43","[""Black or African-American""]","No","Male","2513346.799999997","null","","<p></p>","null","choice","ctd","repulsion_1","1","washing machines","null","null","null","null","null","null","1","","","","","","","","","",""
"","","","","","choice_trial","survey-html-form","95","2083028","0.0-5.0-1.5","216","1","2025-04-14 16:14:47","bb671e3ae32f654b8954ea4c4635f915","","Mozilla/5.0 (Windows NT 10.0; Win64; x64) AppleWebKit/537.36 (KHTML, like Gecko) Chrome/132.0.0.0 Safari/537.36","WebKit","Chrome","132.0.0.0","Windows","10.0","https://hz8g1ckzuq.cognition.run/","en-US,en;q=0.9","4u6uzgxa7l4vp1j","43","[""Black or African-American""]","No","Male","2513346.799999997","19665","","","{""product_choice"":""A""}","choice","ctd","repulsion_1","1","washing machines","null","null","null","null","null","null","1","100","90","100","30","40","25","Average lifespan","Energy savings","",""
"","","","","","choice_trial_setup","html-keyboard-response","96","2083331","0.0-5.0-0.6","216","1","2025-04-14 16:14:47","bb671e3ae32f654b8954ea4c4635f915","","Mozilla/5.0 (Windows NT 10.0; Win64; x64) AppleWebKit/537.36 (KHTML, like Gecko) Chrome/132.0.0.0 Safari/537.36","WebKit","Chrome","132.0.0.0","Windows","10.0","https://hz8g1ckzuq.cognition.run/","en-US,en;q=0.9","4u6uzgxa7l4vp1j","43","[""Black or African-American""]","No","Male","2513346.799999997","null","","<p></p>","null","choice","tdc","repulsion_2","1","washing machines","null","null","null","null","null","null","2","","","","","","","","","",""
"","","","","","choice_trial","survey-html-form","97","2091903","0.0-5.0-1.6","216","1","2025-04-14 16:14:47","bb671e3ae32f654b8954ea4c4635f915","","Mozilla/5.0 (Windows NT 10.0; Win64; x64) AppleWebKit/537.36 (KHTML, like Gecko) Chrome/132.0.0.0 Safari/537.36","WebKit","Chrome","132.0.0.0","Windows","10.0","https://hz8g1ckzuq.cognition.run/","en-US,en;q=0.9","4u6uzgxa7l4vp1j","43","[""Black or African-American""]","No","Male","2513346.799999997","8559","","","{""product_choice"":""C""}","choice","tdc","repulsion_2","1","washing machines","null","null","null","null","null","null","2","100","90","100","30","40","20","Average lifespan","Energy savings","",""
"","","","","","choice_trial_setup","html-keyboard-response","98","2092206","0.0-5.0-0.7","216","1","2025-04-14 16:14:47","bb671e3ae32f654b8954ea4c4635f915","","Mozilla/5.0 (Windows NT 10.0; Win64; x64) AppleWebKit/537.36 (KHTML, like Gecko) Chrome/132.0.0.0 Safari/537.36","WebKit","Chrome","132.0.0.0","Windows","10.0","https://hz8g1ckzuq.cognition.run/","en-US,en;q=0.9","4u6uzgxa7l4vp1j","43","[""Black or African-American""]","No","Male","2513346.799999997","null","","<p></p>","null","choice","tdc","attraction_1","1","washing machines","null","null","null","null","null","null","1","","","","","","","","","",""
"","","","","","choice_trial","survey-html-form","99","2100789","0.0-5.0-1.7","216","1","2025-04-14 16:14:47","bb671e3ae32f654b8954ea4c4635f915","","Mozilla/5.0 (Windows NT 10.0; Win64; x64) AppleWebKit/537.36 (KHTML, like Gecko) Chrome/132.0.0.0 Safari/537.36","WebKit","Chrome","132.0.0.0","Windows","10.0","https://hz8g1ckzuq.cognition.run/","en-US,en;q=0.9","4u6uzgxa7l4vp1j","43","[""Black or African-American""]","No","Male","2513346.799999997","8580","","","{""product_choice"":""A""}","choice","tdc","attraction_1","1","washing machines","null","null","null","null","null","null","1","60","50","60","50","60","45","Average lifespan","Energy savings","",""
"","","","","","choice_trial_setup","html-keyboard-response","100","2101092","0.0-5.0-0.8","216","1","2025-04-14 16:14:47","bb671e3ae32f654b8954ea4c4635f915","","Mozilla/5.0 (Windows NT 10.0; Win64; x64) AppleWebKit/537.36 (KHTML, like Gecko) Chrome/132.0.0.0 Safari/537.36","WebKit","Chrome","132.0.0.0","Windows","10.0","https://hz8g1ckzuq.cognition.run/","en-US,en;q=0.9","4u6uzgxa7l4vp1j","43","[""Black or African-American""]","No","Male","2513346.799999997","null","","<p></p>","null","choice","dct","repulsion_2","1","microwave ovens","null","null","null","null","null","null","2","","","","","","","","","",""
"","","","","","choice_trial","survey-html-form","101","2121909","0.0-5.0-1.8","216","1","2025-04-14 16:14:47","bb671e3ae32f654b8954ea4c4635f915","","Mozilla/5.0 (Windows NT 10.0; Win64; x64) AppleWebKit/537.36 (KHTML, like Gecko) Chrome/132.0.0.0 Safari/537.36","WebKit","Chrome","132.0.0.0","Windows","10.0","https://hz8g1ckzuq.cognition.run/","en-US,en;q=0.9","4u6uzgxa7l4vp1j","43","[""Black or African-American""]","No","Male","2513346.799999997","20808","","","{""product_choice"":""B""}","choice","dct","repulsion_2","1","microwave ovens","null","null","null","null","null","null","2","100","90","100","30","40","20","Warranty","Cooking power","",""
"","","","","","choice_trial_setup","html-keyboard-response","102","2122212","0.0-5.0-0.9","216","1","2025-04-14 16:14:47","bb671e3ae32f654b8954ea4c4635f915","","Mozilla/5.0 (Windows NT 10.0; Win64; x64) AppleWebKit/537.36 (KHTML, like Gecko) Chrome/132.0.0.0 Safari/537.36","WebKit","Chrome","132.0.0.0","Windows","10.0","https://hz8g1ckzuq.cognition.run/","en-US,en;q=0.9","4u6uzgxa7l4vp1j","43","[""Black or African-American""]","No","Male","2513346.799999997","null","","<p></p>","null","choice","tdc","attraction_1","2","washing machines","null","null","null","null","null","null","1","","","","","","","","","",""
"","","","","","choice_trial","survey-html-form","103","2133446","0.0-5.0-1.9","216","1","2025-04-14 16:14:47","bb671e3ae32f654b8954ea4c4635f915","","Mozilla/5.0 (Windows NT 10.0; Win64; x64) AppleWebKit/537.36 (KHTML, like Gecko) Chrome/132.0.0.0 Safari/537.36","WebKit","Chrome","132.0.0.0","Windows","10.0","https://hz8g1ckzuq.cognition.run/","en-US,en;q=0.9","4u6uzgxa7l4vp1j","43","[""Black or African-American""]","No","Male","2513346.799999997","11222","","","{""product_choice"":""C""}","choice","tdc","attraction_1","2","washing machines","null","null","null","null","null","null","1","50","60","45","60","50","60","Average lifespan","Energy savings","",""
"","","","","","choice_trial_setup","html-keyboard-response","104","2133749","0.0-5.0-0.10","216","1","2025-04-14 16:14:47","bb671e3ae32f654b8954ea4c4635f915","","Mozilla/5.0 (Windows NT 10.0; Win64; x64) AppleWebKit/537.36 (KHTML, like Gecko) Chrome/132.0.0.0 Safari/537.36","WebKit","Chrome","132.0.0.0","Windows","10.0","https://hz8g1ckzuq.cognition.run/","en-US,en;q=0.9","4u6uzgxa7l4vp1j","43","[""Black or African-American""]","No","Male","2513346.799999997","null","","<p></p>","null","choice","dct","repulsion_1","2","laptops","null","null","null","null","null","null","1","","","","","","","","","",""
"","","","","","choice_trial","survey-html-form","105","2144304","0.0-5.0-1.10","216","1","2025-04-14 16:14:47","bb671e3ae32f654b8954ea4c4635f915","","Mozilla/5.0 (Windows NT 10.0; Win64; x64) AppleWebKit/537.36 (KHTML, like Gecko) Chrome/132.0.0.0 Safari/537.36","WebKit","Chrome","132.0.0.0","Windows","10.0","https://hz8g1ckzuq.cognition.run/","en-US,en;q=0.9","4u6uzgxa7l4vp1j","43","[""Black or African-American""]","No","Male","2513346.799999997","10552","","","{""product_choice"":""B""}","choice","dct","repulsion_1","2","laptops","null","null","null","null","null","null","1","30","40","25","100","90","100","Processing speed","Memory (RAM)","",""
"","","","","","choice_trial_setup","html-keyboard-response","106","2144607","0.0-5.0-0.11","216","1","2025-04-14 16:14:47","bb671e3ae32f654b8954ea4c4635f915","","Mozilla/5.0 (Windows NT 10.0; Win64; x64) AppleWebKit/537.36 (KHTML, like Gecko) Chrome/132.0.0.0 Safari/537.36","WebKit","Chrome","132.0.0.0","Windows","10.0","https://hz8g1ckzuq.cognition.run/","en-US,en;q=0.9","4u6uzgxa7l4vp1j","43","[""Black or African-American""]","No","Male","2513346.799999997","null","","<p></p>","null","choice","dct","attraction_1","2","laptops","null","null","null","null","null","null","1","","","","","","","","","",""
"","","","","","choice_trial","survey-html-form","107","2149393","0.0-5.0-1.11","216","1","2025-04-14 16:14:47","bb671e3ae32f654b8954ea4c4635f915","","Mozilla/5.0 (Windows NT 10.0; Win64; x64) AppleWebKit/537.36 (KHTML, like Gecko) Chrome/132.0.0.0 Safari/537.36","WebKit","Chrome","132.0.0.0","Windows","10.0","https://hz8g1ckzuq.cognition.run/","en-US,en;q=0.9","4u6uzgxa7l4vp1j","43","[""Black or African-American""]","No","Male","2513346.799999997","4783","","","{""product_choice"":""B""}","choice","dct","attraction_1","2","laptops","null","null","null","null","null","null","1","50","60","45","60","50","60","Processing speed","Memory (RAM)","",""
"","","","","","choice_trial_setup","html-keyboard-response","108","2149696","0.0-5.0-0.12","216","1","2025-04-14 16:14:47","bb671e3ae32f654b8954ea4c4635f915","","Mozilla/5.0 (Windows NT 10.0; Win64; x64) AppleWebKit/537.36 (KHTML, like Gecko) Chrome/132.0.0.0 Safari/537.36","WebKit","Chrome","132.0.0.0","Windows","10.0","https://hz8g1ckzuq.cognition.run/","en-US,en;q=0.9","4u6uzgxa7l4vp1j","43","[""Black or African-American""]","No","Male","2513346.799999997","null","","<p></p>","null","choice","bww","catch","null","televisions","65","50","50","40","50","15","2","","","","","","","","","",""
"","","","","","choice_trial","survey-html-form","109","2155855","0.0-5.0-1.12","216","1","2025-04-14 16:14:47","bb671e3ae32f654b8954ea4c4635f915","","Mozilla/5.0 (Windows NT 10.0; Win64; x64) AppleWebKit/537.36 (KHTML, like Gecko) Chrome/132.0.0.0 Safari/537.36","WebKit","Chrome","132.0.0.0","Windows","10.0","https://hz8g1ckzuq.cognition.run/","en-US,en;q=0.9","4u6uzgxa7l4vp1j","43","[""Black or African-American""]","No","Male","2513346.799999997","6155","","","{""product_choice"":""A""}","choice","bww","catch","null","televisions","65","50","50","40","50","15","2","null","null","null","null","null","null","Screen size","Average lifespan","",""
"","","","","","choice_trial_setup","html-keyboard-response","110","2156158","0.0-5.0-0.13","216","1","2025-04-14 16:14:47","bb671e3ae32f654b8954ea4c4635f915","","Mozilla/5.0 (Windows NT 10.0; Win64; x64) AppleWebKit/537.36 (KHTML, like Gecko) Chrome/132.0.0.0 Safari/537.36","WebKit","Chrome","132.0.0.0","Windows","10.0","https://hz8g1ckzuq.cognition.run/","en-US,en;q=0.9","4u6uzgxa7l4vp1j","43","[""Black or African-American""]","No","Male","2513346.799999997","null","","<p></p>","null","choice","cdt","attraction_1","1","televisions","null","null","null","null","null","null","1","","","","","","","","","",""
"","","","","","choice_trial","survey-html-form","111","2167038","0.0-5.0-1.13","216","1","2025-04-14 16:14:47","bb671e3ae32f654b8954ea4c4635f915","","Mozilla/5.0 (Windows NT 10.0; Win64; x64) AppleWebKit/537.36 (KHTML, like Gecko) Chrome/132.0.0.0 Safari/537.36","WebKit","Chrome","132.0.0.0","Windows","10.0","https://hz8g1ckzuq.cognition.run/","en-US,en;q=0.9","4u6uzgxa7l4vp1j","43","[""Black or African-American""]","No","Male","2513346.799999997","10877","","","{""product_choice"":""C""}","choice","cdt","attraction_1","1","televisions","null","null","null","null","null","null","1","60","50","60","50","60","45","Screen size","Average lifespan","",""
"","","","","","choice_trial_setup","html-keyboard-response","112","2167341","0.0-5.0-0.14","216","1","2025-04-14 16:14:47","bb671e3ae32f654b8954ea4c4635f915","","Mozilla/5.0 (Windows NT 10.0; Win64; x64) AppleWebKit/537.36 (KHTML, like Gecko) Chrome/132.0.0.0 Safari/537.36","WebKit","Chrome","132.0.0.0","Windows","10.0","https://hz8g1ckzuq.cognition.run/","en-US,en;q=0.9","4u6uzgxa7l4vp1j","43","[""Black or African-American""]","No","Male","2513346.799999997","null","","<p></p>","null","choice","cdt","attraction_2","2","washing machines","null","null","null","null","null","null","1","","","","","","","","","",""
"","","","","","choice_trial","survey-html-form","113","2173365","0.0-5.0-1.14","216","1","2025-04-14 16:14:47","bb671e3ae32f654b8954ea4c4635f915","","Mozilla/5.0 (Windows NT 10.0; Win64; x64) AppleWebKit/537.36 (KHTML, like Gecko) Chrome/132.0.0.0 Safari/537.36","WebKit","Chrome","132.0.0.0","Windows","10.0","https://hz8g1ckzuq.cognition.run/","en-US,en;q=0.9","4u6uzgxa7l4vp1j","43","[""Black or African-American""]","No","Male","2513346.799999997","6021","","","{""product_choice"":""A""}","choice","cdt","attraction_2","2","washing machines","null","null","null","null","null","null","1","50","60","40","60","50","60","Average lifespan","Energy savings","",""
"","","","","","choice_trial_setup","html-keyboard-response","114","2173669","0.0-5.0-0.15","216","1","2025-04-14 16:14:47","bb671e3ae32f654b8954ea4c4635f915","","Mozilla/5.0 (Windows NT 10.0; Win64; x64) AppleWebKit/537.36 (KHTML, like Gecko) Chrome/132.0.0.0 Safari/537.36","WebKit","Chrome","132.0.0.0","Windows","10.0","https://hz8g1ckzuq.cognition.run/","en-US,en;q=0.9","4u6uzgxa7l4vp1j","43","[""Black or African-American""]","No","Male","2513346.799999997","null","","<p></p>","null","choice","dct","attraction_2","1","laptops","null","null","null","null","null","null","2","","","","","","","","","",""
"","","","","","choice_trial","survey-html-form","115","2179415","0.0-5.0-1.15","216","1","2025-04-14 16:14:47","bb671e3ae32f654b8954ea4c4635f915","","Mozilla/5.0 (Windows NT 10.0; Win64; x64) AppleWebKit/537.36 (KHTML, like Gecko) Chrome/132.0.0.0 Safari/537.36","WebKit","Chrome","132.0.0.0","Windows","10.0","https://hz8g1ckzuq.cognition.run/","en-US,en;q=0.9","4u6uzgxa7l4vp1j","43","[""Black or African-American""]","No","Male","2513346.799999997","5734","","","{""product_choice"":""C""}","choice","dct","attraction_2","1","laptops","null","null","null","null","null","null","2","60","50","60","50","60","40","Processing speed","Memory (RAM)","",""
"","","","","","choice_trial_setup","html-keyboard-response","116","2179721","0.0-5.0-0.16","216","1","2025-04-14 16:14:47","bb671e3ae32f654b8954ea4c4635f915","","Mozilla/5.0 (Windows NT 10.0; Win64; x64) AppleWebKit/537.36 (KHTML, like Gecko) Chrome/132.0.0.0 Safari/537.36","WebKit","Chrome","132.0.0.0","Windows","10.0","https://hz8g1ckzuq.cognition.run/","en-US,en;q=0.9","4u6uzgxa7l4vp1j","43","[""Black or African-American""]","No","Male","2513346.799999997","null","","<p></p>","null","choice","dct","repulsion_1","1","microwave ovens","null","null","null","null","null","null","1","","","","","","","","","",""
"","","","","","choice_trial","survey-html-form","117","2186729","0.0-5.0-1.16","216","1","2025-04-14 16:14:47","bb671e3ae32f654b8954ea4c4635f915","","Mozilla/5.0 (Windows NT 10.0; Win64; x64) AppleWebKit/537.36 (KHTML, like Gecko) Chrome/132.0.0.0 Safari/537.36","WebKit","Chrome","132.0.0.0","Windows","10.0","https://hz8g1ckzuq.cognition.run/","en-US,en;q=0.9","4u6uzgxa7l4vp1j","43","[""Black or African-American""]","No","Male","2513346.799999997","7004","","","{""product_choice"":""B""}","choice","dct","repulsion_1","1","microwave ovens","null","null","null","null","null","null","1","100","90","100","30","40","25","Warranty","Cooking power","",""
"","","","","","choice_trial_setup","html-keyboard-response","118","2187033","0.0-5.0-0.17","216","1","2025-04-14 16:14:47","bb671e3ae32f654b8954ea4c4635f915","","Mozilla/5.0 (Windows NT 10.0; Win64; x64) AppleWebKit/537.36 (KHTML, like Gecko) Chrome/132.0.0.0 Safari/537.36","WebKit","Chrome","132.0.0.0","Windows","10.0","https://hz8g1ckzuq.cognition.run/","en-US,en;q=0.9","4u6uzgxa7l4vp1j","43","[""Black or African-American""]","No","Male","2513346.799999997","null","","<p></p>","null","choice","dct","attraction_2","1","microwave ovens","null","null","null","null","null","null","1","","","","","","","","","",""
"","","","","","choice_trial","survey-html-form","119","2192944","0.0-5.0-1.17","216","1","2025-04-14 16:14:47","bb671e3ae32f654b8954ea4c4635f915","","Mozilla/5.0 (Windows NT 10.0; Win64; x64) AppleWebKit/537.36 (KHTML, like Gecko) Chrome/132.0.0.0 Safari/537.36","WebKit","Chrome","132.0.0.0","Windows","10.0","https://hz8g1ckzuq.cognition.run/","en-US,en;q=0.9","4u6uzgxa7l4vp1j","43","[""Black or African-American""]","No","Male","2513346.799999997","5908","","","{""product_choice"":""B""}","choice","dct","attraction_2","1","microwave ovens","null","null","null","null","null","null","1","60","50","60","50","60","40","Warranty","Cooking power","",""
"","","","","","choice_trial_setup","html-keyboard-response","120","2193248","0.0-5.0-0.18","216","1","2025-04-14 16:14:47","bb671e3ae32f654b8954ea4c4635f915","","Mozilla/5.0 (Windows NT 10.0; Win64; x64) AppleWebKit/537.36 (KHTML, like Gecko) Chrome/132.0.0.0 Safari/537.36","WebKit","Chrome","132.0.0.0","Windows","10.0","https://hz8g1ckzuq.cognition.run/","en-US,en;q=0.9","4u6uzgxa7l4vp1j","43","[""Black or African-American""]","No","Male","2513346.799999997","null","","<p></p>","null","choice","tdc","repulsion_1","2","televisions","null","null","null","null","null","null","2","","","","","","","","","",""
"","","","","","choice_trial","survey-html-form","121","2200118","0.0-5.0-1.18","216","1","2025-04-14 16:14:47","bb671e3ae32f654b8954ea4c4635f915","","Mozilla/5.0 (Windows NT 10.0; Win64; x64) AppleWebKit/537.36 (KHTML, like Gecko) Chrome/132.0.0.0 Safari/537.36","WebKit","Chrome","132.0.0.0","Windows","10.0","https://hz8g1ckzuq.cognition.run/","en-US,en;q=0.9","4u6uzgxa7l4vp1j","43","[""Black or African-American""]","No","Male","2513346.799999997","6867","","","{""product_choice"":""C""}","choice","tdc","repulsion_1","2","televisions","null","null","null","null","null","null","2","30","40","25","100","90","100","Screen size","Average lifespan","",""
"","","","","","choice_trial_setup","html-keyboard-response","122","2200421","0.0-5.0-0.19","216","1","2025-04-14 16:14:47","bb671e3ae32f654b8954ea4c4635f915","","Mozilla/5.0 (Windows NT 10.0; Win64; x64) AppleWebKit/537.36 (KHTML, like Gecko) Chrome/132.0.0.0 Safari/537.36","WebKit","Chrome","132.0.0.0","Windows","10.0","https://hz8g1ckzuq.cognition.run/","en-US,en;q=0.9","4u6uzgxa7l4vp1j","43","[""Black or African-American""]","No","Male","2513346.799999997","null","","<p></p>","null","choice","cdt","repulsion_1","1","laptops","null","null","null","null","null","null","2","","","","","","","","","",""
"","","","","","choice_trial","survey-html-form","123","2213603","0.0-5.0-1.19","216","1","2025-04-14 16:14:47","bb671e3ae32f654b8954ea4c4635f915","","Mozilla/5.0 (Windows NT 10.0; Win64; x64) AppleWebKit/537.36 (KHTML, like Gecko) Chrome/132.0.0.0 Safari/537.36","WebKit","Chrome","132.0.0.0","Windows","10.0","https://hz8g1ckzuq.cognition.run/","en-US,en;q=0.9","4u6uzgxa7l4vp1j","43","[""Black or African-American""]","No","Male","2513346.799999997","13178","","","{""product_choice"":""A""}","choice","cdt","repulsion_1","1","laptops","null","null","null","null","null","null","2","100","90","100","30","40","25","Processing speed","Memory (RAM)","",""
"","","","","","choice_trial_setup","html-keyboard-response","124","2213908","0.0-5.0-0.20","216","1","2025-04-14 16:14:47","bb671e3ae32f654b8954ea4c4635f915","","Mozilla/5.0 (Windows NT 10.0; Win64; x64) AppleWebKit/537.36 (KHTML, like Gecko) Chrome/132.0.0.0 Safari/537.36","WebKit","Chrome","132.0.0.0","Windows","10.0","https://hz8g1ckzuq.cognition.run/","en-US,en;q=0.9","4u6uzgxa7l4vp1j","43","[""Black or African-American""]","No","Male","2513346.799999997","null","","<p></p>","null","choice","wwb","catch","null","washing machines","50","75","15","35","5","5","1","","","","","","","","","",""
"","","","","","choice_trial","survey-html-form","125","2221226","0.0-5.0-1.20","216","1","2025-04-14 16:14:47","bb671e3ae32f654b8954ea4c4635f915","","Mozilla/5.0 (Windows NT 10.0; Win64; x64) AppleWebKit/537.36 (KHTML, like Gecko) Chrome/132.0.0.0 Safari/537.36","WebKit","Chrome","132.0.0.0","Windows","10.0","https://hz8g1ckzuq.cognition.run/","en-US,en;q=0.9","4u6uzgxa7l4vp1j","43","[""Black or African-American""]","No","Male","2513346.799999997","7315","","","{""product_choice"":""C""}","choice","wwb","catch","null","washing machines","50","75","15","35","5","5","1","null","null","null","null","null","null","Average lifespan","Energy savings","",""
"","","","","","choice_trial_setup","html-keyboard-response","126","2221531","0.0-5.0-0.21","216","1","2025-04-14 16:14:47","bb671e3ae32f654b8954ea4c4635f915","","Mozilla/5.0 (Windows NT 10.0; Win64; x64) AppleWebKit/537.36 (KHTML, like Gecko) Chrome/132.0.0.0 Safari/537.36","WebKit","Chrome","132.0.0.0","Windows","10.0","https://hz8g1ckzuq.cognition.run/","en-US,en;q=0.9","4u6uzgxa7l4vp1j","43","[""Black or African-American""]","No","Male","2513346.799999997","null","","<p></p>","null","choice","dct","repulsion_2","2","laptops","null","null","null","null","null","null","1","","","","","","","","","",""
"","","","","","choice_trial","survey-html-form","127","2230021","0.0-5.0-1.21","216","1","2025-04-14 16:14:47","bb671e3ae32f654b8954ea4c4635f915","","Mozilla/5.0 (Windows NT 10.0; Win64; x64) AppleWebKit/537.36 (KHTML, like Gecko) Chrome/132.0.0.0 Safari/537.36","WebKit","Chrome","132.0.0.0","Windows","10.0","https://hz8g1ckzuq.cognition.run/","en-US,en;q=0.9","4u6uzgxa7l4vp1j","43","[""Black or African-American""]","No","Male","2513346.799999997","8476","","","{""product_choice"":""B""}","choice","dct","repulsion_2","2","laptops","null","null","null","null","null","null","1","30","40","20","100","90","100","Processing speed","Memory (RAM)","",""
"","","","","","choice_trial_setup","html-keyboard-response","128","2230325","0.0-5.0-0.22","216","1","2025-04-14 16:14:47","bb671e3ae32f654b8954ea4c4635f915","","Mozilla/5.0 (Windows NT 10.0; Win64; x64) AppleWebKit/537.36 (KHTML, like Gecko) Chrome/132.0.0.0 Safari/537.36","WebKit","Chrome","132.0.0.0","Windows","10.0","https://hz8g1ckzuq.cognition.run/","en-US,en;q=0.9","4u6uzgxa7l4vp1j","43","[""Black or African-American""]","No","Male","2513346.799999997","null","","<p></p>","null","choice","tcd","attraction_2","2","laptops","null","null","null","null","null","null","1","","","","","","","","","",""
"","","","","","choice_trial","survey-html-form","129","2237443","0.0-5.0-1.22","216","1","2025-04-14 16:14:47","bb671e3ae32f654b8954ea4c4635f915","","Mozilla/5.0 (Windows NT 10.0; Win64; x64) AppleWebKit/537.36 (KHTML, like Gecko) Chrome/132.0.0.0 Safari/537.36","WebKit","Chrome","132.0.0.0","Windows","10.0","https://hz8g1ckzuq.cognition.run/","en-US,en;q=0.9","4u6uzgxa7l4vp1j","43","[""Black or African-American""]","No","Male","2513346.799999997","7114","","","{""product_choice"":""B""}","choice","tcd","attraction_2","2","laptops","null","null","null","null","null","null","1","50","60","40","60","50","60","Processing speed","Memory (RAM)","",""
"","","","","","choice_trial_setup","html-keyboard-response","130","2237747","0.0-5.0-0.23","216","1","2025-04-14 16:14:47","bb671e3ae32f654b8954ea4c4635f915","","Mozilla/5.0 (Windows NT 10.0; Win64; x64) AppleWebKit/537.36 (KHTML, like Gecko) Chrome/132.0.0.0 Safari/537.36","WebKit","Chrome","132.0.0.0","Windows","10.0","https://hz8g1ckzuq.cognition.run/","en-US,en;q=0.9","4u6uzgxa7l4vp1j","43","[""Black or African-American""]","No","Male","2513346.799999997","null","","<p></p>","null","choice","dtc","attraction_1","1","laptops","null","null","null","null","null","null","1","","","","","","","","","",""
"","","","","","choice_trial","survey-html-form","131","2250512","0.0-5.0-1.23","216","1","2025-04-14 16:14:47","bb671e3ae32f654b8954ea4c4635f915","","Mozilla/5.0 (Windows NT 10.0; Win64; x64) AppleWebKit/537.36 (KHTML, like Gecko) Chrome/132.0.0.0 Safari/537.36","WebKit","Chrome","132.0.0.0","Windows","10.0","https://hz8g1ckzuq.cognition.run/","en-US,en;q=0.9","4u6uzgxa7l4vp1j","43","[""Black or African-American""]","No","Male","2513346.799999997","12757","","","{""product_choice"":""B""}","choice","dtc","attraction_1","1","laptops","null","null","null","null","null","null","1","60","50","60","50","60","45","Processing speed","Memory (RAM)","",""
"","","","","","choice_trial_setup","html-keyboard-response","132","2250816","0.0-5.0-0.24","216","1","2025-04-14 16:14:47","bb671e3ae32f654b8954ea4c4635f915","","Mozilla/5.0 (Windows NT 10.0; Win64; x64) AppleWebKit/537.36 (KHTML, like Gecko) Chrome/132.0.0.0 Safari/537.36","WebKit","Chrome","132.0.0.0","Windows","10.0","https://hz8g1ckzuq.cognition.run/","en-US,en;q=0.9","4u6uzgxa7l4vp1j","43","[""Black or African-American""]","No","Male","2513346.799999997","null","","<p></p>","null","choice","tdc","attraction_2","1","washing machines","null","null","null","null","null","null","1","","","","","","","","","",""
"","","","","","choice_trial","survey-html-form","133","2258534","0.0-5.0-1.24","216","1","2025-04-14 16:14:47","bb671e3ae32f654b8954ea4c4635f915","","Mozilla/5.0 (Windows NT 10.0; Win64; x64) AppleWebKit/537.36 (KHTML, like Gecko) Chrome/132.0.0.0 Safari/537.36","WebKit","Chrome","132.0.0.0","Windows","10.0","https://hz8g1ckzuq.cognition.run/","en-US,en;q=0.9","4u6uzgxa7l4vp1j","43","[""Black or African-American""]","No","Male","2513346.799999997","7715","","","{""product_choice"":""A""}","choice","tdc","attraction_2","1","washing machines","null","null","null","null","null","null","1","60","50","60","50","60","40","Average lifespan","Energy savings","",""
"","","","","","choice_trial_setup","html-keyboard-response","134","2258838","0.0-5.0-0.25","216","1","2025-04-14 16:14:47","bb671e3ae32f654b8954ea4c4635f915","","Mozilla/5.0 (Windows NT 10.0; Win64; x64) AppleWebKit/537.36 (KHTML, like Gecko) Chrome/132.0.0.0 Safari/537.36","WebKit","Chrome","132.0.0.0","Windows","10.0","https://hz8g1ckzuq.cognition.run/","en-US,en;q=0.9","4u6uzgxa7l4vp1j","43","[""Black or African-American""]","No","Male","2513346.799999997","null","","<p></p>","null","choice","tdc","repulsion_2","1","televisions","null","null","null","null","null","null","1","","","","","","","","","",""
"","","","","","choice_trial","survey-html-form","135","2267293","0.0-5.0-1.25","216","1","2025-04-14 16:14:47","bb671e3ae32f654b8954ea4c4635f915","","Mozilla/5.0 (Windows NT 10.0; Win64; x64) AppleWebKit/537.36 (KHTML, like Gecko) Chrome/132.0.0.0 Safari/537.36","WebKit","Chrome","132.0.0.0","Windows","10.0","https://hz8g1ckzuq.cognition.run/","en-US,en;q=0.9","4u6uzgxa7l4vp1j","43","[""Black or African-American""]","No","Male","2513346.799999997","8451","","","{""product_choice"":""C""}","choice","tdc","repulsion_2","1","televisions","null","null","null","null","null","null","1","100","90","100","30","40","20","Screen size","Average lifespan","",""
"","","","","","choice_trial_setup","html-keyboard-response","136","2267597","0.0-5.0-0.26","216","1","2025-04-14 16:14:47","bb671e3ae32f654b8954ea4c4635f915","","Mozilla/5.0 (Windows NT 10.0; Win64; x64) AppleWebKit/537.36 (KHTML, like Gecko) Chrome/132.0.0.0 Safari/537.36","WebKit","Chrome","132.0.0.0","Windows","10.0","https://hz8g1ckzuq.cognition.run/","en-US,en;q=0.9","4u6uzgxa7l4vp1j","43","[""Black or African-American""]","No","Male","2513346.799999997","null","","<p></p>","null","choice","wwb","catch","null","washing machines","65","85","30","40","45","40","2","","","","","","","","","",""
"","","","","","choice_trial","survey-html-form","137","2278445","0.0-5.0-1.26","216","1","2025-04-14 16:14:47","bb671e3ae32f654b8954ea4c4635f915","","Mozilla/5.0 (Windows NT 10.0; Win64; x64) AppleWebKit/537.36 (KHTML, like Gecko) Chrome/132.0.0.0 Safari/537.36","WebKit","Chrome","132.0.0.0","Windows","10.0","https://hz8g1ckzuq.cognition.run/","en-US,en;q=0.9","4u6uzgxa7l4vp1j","43","[""Black or African-American""]","No","Male","2513346.799999997","10833","","","{""product_choice"":""C""}","choice","wwb","catch","null","washing machines","65","85","30","40","45","40","2","null","null","null","null","null","null","Average lifespan","Energy savings","",""
"","","","","","choice_trial_setup","html-keyboard-response","138","2278749","0.0-5.0-0.27","216","1","2025-04-14 16:14:47","bb671e3ae32f654b8954ea4c4635f915","","Mozilla/5.0 (Windows NT 10.0; Win64; x64) AppleWebKit/537.36 (KHTML, like Gecko) Chrome/132.0.0.0 Safari/537.36","WebKit","Chrome","132.0.0.0","Windows","10.0","https://hz8g1ckzuq.cognition.run/","en-US,en;q=0.9","4u6uzgxa7l4vp1j","43","[""Black or African-American""]","No","Male","2513346.799999997","null","","<p></p>","null","choice","cdt","repulsion_1","1","televisions","null","null","null","null","null","null","2","","","","","","","","","",""
"","","","","","choice_trial","survey-html-form","139","2289625","0.0-5.0-1.27","216","1","2025-04-14 16:14:47","bb671e3ae32f654b8954ea4c4635f915","","Mozilla/5.0 (Windows NT 10.0; Win64; x64) AppleWebKit/537.36 (KHTML, like Gecko) Chrome/132.0.0.0 Safari/537.36","WebKit","Chrome","132.0.0.0","Windows","10.0","https://hz8g1ckzuq.cognition.run/","en-US,en;q=0.9","4u6uzgxa7l4vp1j","43","[""Black or African-American""]","No","Male","2513346.799999997","10870","","","{""product_choice"":""A""}","choice","cdt","repulsion_1","1","televisions","null","null","null","null","null","null","2","100","90","100","30","40","25","Screen size","Average lifespan","",""
"","","","","","choice_trial_setup","html-keyboard-response","140","2289931","0.0-5.0-0.28","216","1","2025-04-14 16:14:47","bb671e3ae32f654b8954ea4c4635f915","","Mozilla/5.0 (Windows NT 10.0; Win64; x64) AppleWebKit/537.36 (KHTML, like Gecko) Chrome/132.0.0.0 Safari/537.36","WebKit","Chrome","132.0.0.0","Windows","10.0","https://hz8g1ckzuq.cognition.run/","en-US,en;q=0.9","4u6uzgxa7l4vp1j","43","[""Black or African-American""]","No","Male","2513346.799999997","null","","<p></p>","null","choice","bww","catch","null","televisions","55","90","25","40","20","5","1","","","","","","","","","",""
"","","","","","choice_trial","survey-html-form","141","2298406","0.0-5.0-1.28","216","1","2025-04-14 16:14:47","bb671e3ae32f654b8954ea4c4635f915","","Mozilla/5.0 (Windows NT 10.0; Win64; x64) AppleWebKit/537.36 (KHTML, like Gecko) Chrome/132.0.0.0 Safari/537.36","WebKit","Chrome","132.0.0.0","Windows","10.0","https://hz8g1ckzuq.cognition.run/","en-US,en;q=0.9","4u6uzgxa7l4vp1j","43","[""Black or African-American""]","No","Male","2513346.799999997","8461","","","{""product_choice"":""A""}","choice","bww","catch","null","televisions","55","90","25","40","20","5","1","null","null","null","null","null","null","Screen size","Average lifespan","",""
"","","","","","choice_trial_setup","html-keyboard-response","142","2298711","0.0-5.0-0.29","216","1","2025-04-14 16:14:47","bb671e3ae32f654b8954ea4c4635f915","","Mozilla/5.0 (Windows NT 10.0; Win64; x64) AppleWebKit/537.36 (KHTML, like Gecko) Chrome/132.0.0.0 Safari/537.36","WebKit","Chrome","132.0.0.0","Windows","10.0","https://hz8g1ckzuq.cognition.run/","en-US,en;q=0.9","4u6uzgxa7l4vp1j","43","[""Black or African-American""]","No","Male","2513346.799999997","null","","<p></p>","null","choice","wwb","catch","null","laptops","95","50","5","5","15","10","1","","","","","","","","","",""
"","","","","","choice_trial","survey-html-form","143","2305312","0.0-5.0-1.29","216","1","2025-04-14 16:14:47","bb671e3ae32f654b8954ea4c4635f915","","Mozilla/5.0 (Windows NT 10.0; Win64; x64) AppleWebKit/537.36 (KHTML, like Gecko) Chrome/132.0.0.0 Safari/537.36","WebKit","Chrome","132.0.0.0","Windows","10.0","https://hz8g1ckzuq.cognition.run/","en-US,en;q=0.9","4u6uzgxa7l4vp1j","43","[""Black or African-American""]","No","Male","2513346.799999997","6594","","","{""product_choice"":""C""}","choice","wwb","catch","null","laptops","95","50","5","5","15","10","1","null","null","null","null","null","null","Processing speed","Memory (RAM)","",""
"","","","","","choice_trial_setup","html-keyboard-response","144","2305617","0.0-5.0-0.30","216","1","2025-04-14 16:14:47","bb671e3ae32f654b8954ea4c4635f915","","Mozilla/5.0 (Windows NT 10.0; Win64; x64) AppleWebKit/537.36 (KHTML, like Gecko) Chrome/132.0.0.0 Safari/537.36","WebKit","Chrome","132.0.0.0","Windows","10.0","https://hz8g1ckzuq.cognition.run/","en-US,en;q=0.9","4u6uzgxa7l4vp1j","43","[""Black or African-American""]","No","Male","2513346.799999997","null","","<p></p>","null","choice","wwb","catch","null","microwave ovens","50","50","10","30","15","25","2","","","","","","","","","",""
"","","","","","choice_trial","survey-html-form","145","2311114","0.0-5.0-1.30","216","1","2025-04-14 16:14:47","bb671e3ae32f654b8954ea4c4635f915","","Mozilla/5.0 (Windows NT 10.0; Win64; x64) AppleWebKit/537.36 (KHTML, like Gecko) Chrome/132.0.0.0 Safari/537.36","WebKit","Chrome","132.0.0.0","Windows","10.0","https://hz8g1ckzuq.cognition.run/","en-US,en;q=0.9","4u6uzgxa7l4vp1j","43","[""Black or African-American""]","No","Male","2513346.799999997","5489","","","{""product_choice"":""C""}","choice","wwb","catch","null","microwave ovens","50","50","10","30","15","25","2","null","null","null","null","null","null","Warranty","Cooking power","",""
"","","","","","choice_trial_setup","html-keyboard-response","146","2311419","0.0-5.0-0.31","216","1","2025-04-14 16:14:47","bb671e3ae32f654b8954ea4c4635f915","","Mozilla/5.0 (Windows NT 10.0; Win64; x64) AppleWebKit/537.36 (KHTML, like Gecko) Chrome/132.0.0.0 Safari/537.36","WebKit","Chrome","132.0.0.0","Windows","10.0","https://hz8g1ckzuq.cognition.run/","en-US,en;q=0.9","4u6uzgxa7l4vp1j","43","[""Black or African-American""]","No","Male","2513346.799999997","null","","<p></p>","null","choice","dct","attraction_2","2","televisions","null","null","null","null","null","null","2","","","","","","","","","",""
"","","","","","choice_trial","survey-html-form","147","2323962","0.0-5.0-1.31","216","1","2025-04-14 16:14:47","bb671e3ae32f654b8954ea4c4635f915","","Mozilla/5.0 (Windows NT 10.0; Win64; x64) AppleWebKit/537.36 (KHTML, like Gecko) Chrome/132.0.0.0 Safari/537.36","WebKit","Chrome","132.0.0.0","Windows","10.0","https://hz8g1ckzuq.cognition.run/","en-US,en;q=0.9","4u6uzgxa7l4vp1j","43","[""Black or African-American""]","No","Male","2513346.799999997","12540","","","{""product_choice"":""B""}","choice","dct","attraction_2","2","televisions","null","null","null","null","null","null","2","50","60","40","60","50","60","Screen size","Average lifespan","",""
"","","","","","choice_trial_setup","html-keyboard-response","148","2324267","0.0-5.0-0.32","216","1","2025-04-14 16:14:47","bb671e3ae32f654b8954ea4c4635f915","","Mozilla/5.0 (Windows NT 10.0; Win64; x64) AppleWebKit/537.36 (KHTML, like Gecko) Chrome/132.0.0.0 Safari/537.36","WebKit","Chrome","132.0.0.0","Windows","10.0","https://hz8g1ckzuq.cognition.run/","en-US,en;q=0.9","4u6uzgxa7l4vp1j","43","[""Black or African-American""]","No","Male","2513346.799999997","null","","<p></p>","null","choice","dct","repulsion_2","2","washing machines","null","null","null","null","null","null","1","","","","","","","","","",""
"","","","","","choice_trial","survey-html-form","149","2343847","0.0-5.0-1.32","216","1","2025-04-14 16:14:47","bb671e3ae32f654b8954ea4c4635f915","","Mozilla/5.0 (Windows NT 10.0; Win64; x64) AppleWebKit/537.36 (KHTML, like Gecko) Chrome/132.0.0.0 Safari/537.36","WebKit","Chrome","132.0.0.0","Windows","10.0","https://hz8g1ckzuq.cognition.run/","en-US,en;q=0.9","4u6uzgxa7l4vp1j","43","[""Black or African-American""]","No","Male","2513346.799999997","19576","","","{""product_choice"":""B""}","choice","dct","repulsion_2","2","washing machines","null","null","null","null","null","null","1","30","40","20","100","90","100","Average lifespan","Energy savings","",""
"","","","","","choice_trial_setup","html-keyboard-response","150","2344153","0.0-5.0-0.33","216","1","2025-04-14 16:14:47","bb671e3ae32f654b8954ea4c4635f915","","Mozilla/5.0 (Windows NT 10.0; Win64; x64) AppleWebKit/537.36 (KHTML, like Gecko) Chrome/132.0.0.0 Safari/537.36","WebKit","Chrome","132.0.0.0","Windows","10.0","https://hz8g1ckzuq.cognition.run/","en-US,en;q=0.9","4u6uzgxa7l4vp1j","43","[""Black or African-American""]","No","Male","2513346.799999997","null","","<p></p>","null","choice","tdc","attraction_2","1","televisions","null","null","null","null","null","null","2","","","","","","","","","",""
"","","","","","choice_trial","survey-html-form","151","2369400","0.0-5.0-1.33","216","1","2025-04-14 16:14:47","bb671e3ae32f654b8954ea4c4635f915","","Mozilla/5.0 (Windows NT 10.0; Win64; x64) AppleWebKit/537.36 (KHTML, like Gecko) Chrome/132.0.0.0 Safari/537.36","WebKit","Chrome","132.0.0.0","Windows","10.0","https://hz8g1ckzuq.cognition.run/","en-US,en;q=0.9","4u6uzgxa7l4vp1j","43","[""Black or African-American""]","No","Male","2513346.799999997","25243","","","{""product_choice"":""A""}","choice","tdc","attraction_2","1","televisions","null","null","null","null","null","null","2","60","50","60","50","60","40","Screen size","Average lifespan","",""
"","","","","","choice_trial_setup","html-keyboard-response","152","2369705","0.0-5.0-0.34","216","1","2025-04-14 16:14:47","bb671e3ae32f654b8954ea4c4635f915","","Mozilla/5.0 (Windows NT 10.0; Win64; x64) AppleWebKit/537.36 (KHTML, like Gecko) Chrome/132.0.0.0 Safari/537.36","WebKit","Chrome","132.0.0.0","Windows","10.0","https://hz8g1ckzuq.cognition.run/","en-US,en;q=0.9","4u6uzgxa7l4vp1j","43","[""Black or African-American""]","No","Male","2513346.799999997","null","","<p></p>","null","choice","wbw","catch","null","microwave ovens","50","60","20","45","10","40","2","","","","","","","","","",""
