"success","timeout","failed_images","failed_audio","failed_video","screen_id","trial_type","trial_index","time_elapsed","internal_node_id","run_id","condition","recorded_at","source_code_version","ip","user_agent","device","browser","browser_version","platform","platform_version","referer","accept_language","ppt_id","age","race","ethnicity","gender","exp_duration","rt","view_history","stimulus","response","phase","order","effect","t_high","category","d1_best","d2_best","d1_worst1","d2_worst1","d1_worst2","d2_worst2","first_dim","d1_t","d1_c","d1_d","d2_t","d2_c","d2_d","d1_name","d2_name","strategy_response","question_order"
"true","false","[]","[]","[]","img preload","preload","0","424","0.0-0.0","217","1","2025-04-14 16:23:51","bb671e3ae32f654b8954ea4c4635f915","","Mozilla/5.0 (X11; CrOS x86_64 14092.77.0) AppleWebKit/537.36 (KHTML, like Gecko) Chrome/93.0.4577.107 Safari/537.36","WebKit","Chrome","93.0.4577.107","ChromeOS","14092.77.0","https://hz8g1ckzuq.cognition.run/","en-US,en;q=0.9","g83omlelhbdhjro","38","[""White""]","No","Female","1741752.599999994","","","","","","","","","","","","","","","","","","","","","","","","","",""
"true","","","","","","fullscreen","1","3161","0.0-1.0","217","1","2025-04-14 16:23:51","bb671e3ae32f654b8954ea4c4635f915","","Mozilla/5.0 (X11; CrOS x86_64 14092.77.0) AppleWebKit/537.36 (KHTML, like Gecko) Chrome/93.0.4577.107 Safari/537.36","WebKit","Chrome","93.0.4577.107","ChromeOS","14092.77.0","https://hz8g1ckzuq.cognition.run/","en-US,en;q=0.9","g83omlelhbdhjro","38","[""White""]","No","Female","1741752.599999994","1722","","","","","","","","","","","","","","","","","","","","","","","","",""
"","","","","","","instructions","2","118306","0.0-2.0","217","1","2025-04-14 16:23:51","bb671e3ae32f654b8954ea4c4635f915","","Mozilla/5.0 (X11; CrOS x86_64 14092.77.0) AppleWebKit/537.36 (KHTML, like Gecko) Chrome/93.0.4577.107 Safari/537.36","WebKit","Chrome","93.0.4577.107","ChromeOS","14092.77.0","https://hz8g1ckzuq.cognition.run/","en-US,en;q=0.9","g83omlelhbdhjro","38","[""White""]","No","Female","1741752.599999994","115143","[{""page_index"":0,""viewing_time"":1468},{""page_index"":1,""viewing_time"":2872},{""page_index"":2,""viewing_time"":6320},{""page_index"":3,""viewing_time"":4904},{""page_index"":4,""viewing_time"":15224},{""page_index"":5,""viewing_time"":6024},{""page_index"":6,""viewing_time"":10192},{""page_index"":7,""viewing_time"":19880},{""page_index"":8,""viewing_time"":43248},{""page_index"":9,""viewing_time"":5008}]","","","","","","","","","","","","","","","","","","","","","","","",""
"","","","","","rating_trial_setup","html-keyboard-response","3","118611","0.0-3.0-0.0","217","1","2025-04-14 16:23:51","bb671e3ae32f654b8954ea4c4635f915","","Mozilla/5.0 (X11; CrOS x86_64 14092.77.0) AppleWebKit/537.36 (KHTML, like Gecko) Chrome/93.0.4577.107 Safari/537.36","WebKit","Chrome","93.0.4577.107","ChromeOS","14092.77.0","https://hz8g1ckzuq.cognition.run/","en-US,en;q=0.9","g83omlelhbdhjro","38","[""White""]","No","Female","1741752.599999994","null","","<p></p>","null","rating","tdc","repulsion_1","2","televisions","null","null","null","null","null","null","1","","","","","","","","","",""
"","","","","","rating_trial","survey-html-form","4","164087","0.0-3.0-1.0","217","1","2025-04-14 16:23:51","bb671e3ae32f654b8954ea4c4635f915","","Mozilla/5.0 (X11; CrOS x86_64 14092.77.0) AppleWebKit/537.36 (KHTML, like Gecko) Chrome/93.0.4577.107 Safari/537.36","WebKit","Chrome","93.0.4577.107","ChromeOS","14092.77.0","https://hz8g1ckzuq.cognition.run/","en-US,en;q=0.9","g83omlelhbdhjro","38","[""White""]","No","Female","1741752.599999994","45465","","","{""price_1"":""300"",""price_2"":""250"",""price_3"":""500""}","rating","tdc","repulsion_1","2","televisions","null","null","null","null","null","null","1","30","40","25","100","90","100","Screen size","Average lifespan","",""
"","","","","","rating_trial_setup","html-keyboard-response","5","164394","0.0-3.0-0.1","217","1","2025-04-14 16:23:51","bb671e3ae32f654b8954ea4c4635f915","","Mozilla/5.0 (X11; CrOS x86_64 14092.77.0) AppleWebKit/537.36 (KHTML, like Gecko) Chrome/93.0.4577.107 Safari/537.36","WebKit","Chrome","93.0.4577.107","ChromeOS","14092.77.0","https://hz8g1ckzuq.cognition.run/","en-US,en;q=0.9","g83omlelhbdhjro","38","[""White""]","No","Female","1741752.599999994","null","","<p></p>","null","rating","cdt","attraction_1","2","televisions","null","null","null","null","null","null","1","","","","","","","","","",""
"","","","","","rating_trial","survey-html-form","6","222884","0.0-3.0-1.1","217","1","2025-04-14 16:23:51","bb671e3ae32f654b8954ea4c4635f915","","Mozilla/5.0 (X11; CrOS x86_64 14092.77.0) AppleWebKit/537.36 (KHTML, like Gecko) Chrome/93.0.4577.107 Safari/537.36","WebKit","Chrome","93.0.4577.107","ChromeOS","14092.77.0","https://hz8g1ckzuq.cognition.run/","en-US,en;q=0.9","g83omlelhbdhjro","38","[""White""]","No","Female","1741752.599999994","58481","","","{""price_1"":""600"",""price_2"":""400"",""price_3"":""450""}","rating","cdt","attraction_1","2","televisions","null","null","null","null","null","null","1","50","60","45","60","50","60","Screen size","Average lifespan","",""
"","","","","","rating_trial_setup","html-keyboard-response","7","223189","0.0-3.0-0.2","217","1","2025-04-14 16:23:51","bb671e3ae32f654b8954ea4c4635f915","","Mozilla/5.0 (X11; CrOS x86_64 14092.77.0) AppleWebKit/537.36 (KHTML, like Gecko) Chrome/93.0.4577.107 Safari/537.36","WebKit","Chrome","93.0.4577.107","ChromeOS","14092.77.0","https://hz8g1ckzuq.cognition.run/","en-US,en;q=0.9","g83omlelhbdhjro","38","[""White""]","No","Female","1741752.599999994","null","","<p></p>","null","rating","cdt","attraction_1","2","microwave ovens","null","null","null","null","null","null","1","","","","","","","","","",""
"","","","","","rating_trial","survey-html-form","8","270401","0.0-3.0-1.2","217","1","2025-04-14 16:23:51","bb671e3ae32f654b8954ea4c4635f915","","Mozilla/5.0 (X11; CrOS x86_64 14092.77.0) AppleWebKit/537.36 (KHTML, like Gecko) Chrome/93.0.4577.107 Safari/537.36","WebKit","Chrome","93.0.4577.107","ChromeOS","14092.77.0","https://hz8g1ckzuq.cognition.run/","en-US,en;q=0.9","g83omlelhbdhjro","38","[""White""]","No","Female","1741752.599999994","47206","","","{""price_1"":""125"",""price_2"":""150"",""price_3"":""150""}","rating","cdt","attraction_1","2","microwave ovens","null","null","null","null","null","null","1","50","60","45","60","50","60","Warranty","Cooking power","",""
"","","","","","rating_trial_setup","html-keyboard-response","9","270705","0.0-3.0-0.3","217","1","2025-04-14 16:23:51","bb671e3ae32f654b8954ea4c4635f915","","Mozilla/5.0 (X11; CrOS x86_64 14092.77.0) AppleWebKit/537.36 (KHTML, like Gecko) Chrome/93.0.4577.107 Safari/537.36","WebKit","Chrome","93.0.4577.107","ChromeOS","14092.77.0","https://hz8g1ckzuq.cognition.run/","en-US,en;q=0.9","g83omlelhbdhjro","38","[""White""]","No","Female","1741752.599999994","null","","<p></p>","null","rating","tdc","attraction_1","2","washing machines","null","null","null","null","null","null","2","","","","","","","","","",""
"","","","","","rating_trial","survey-html-form","10","300089","0.0-3.0-1.3","217","1","2025-04-14 16:23:51","bb671e3ae32f654b8954ea4c4635f915","","Mozilla/5.0 (X11; CrOS x86_64 14092.77.0) AppleWebKit/537.36 (KHTML, like Gecko) Chrome/93.0.4577.107 Safari/537.36","WebKit","Chrome","93.0.4577.107","ChromeOS","14092.77.0","https://hz8g1ckzuq.cognition.run/","en-US,en;q=0.9","g83omlelhbdhjro","38","[""White""]","No","Female","1741752.599999994","29378","","","{""price_1"":""350"",""price_2"":""325"",""price_3"":""400""}","rating","tdc","attraction_1","2","washing machines","null","null","null","null","null","null","2","50","60","45","60","50","60","Average lifespan","Energy savings","",""
"","","","","","rating_trial_setup","html-keyboard-response","11","300395","0.0-3.0-0.4","217","1","2025-04-14 16:23:51","bb671e3ae32f654b8954ea4c4635f915","","Mozilla/5.0 (X11; CrOS x86_64 14092.77.0) AppleWebKit/537.36 (KHTML, like Gecko) Chrome/93.0.4577.107 Safari/537.36","WebKit","Chrome","93.0.4577.107","ChromeOS","14092.77.0","https://hz8g1ckzuq.cognition.run/","en-US,en;q=0.9","g83omlelhbdhjro","38","[""White""]","No","Female","1741752.599999994","null","","<p></p>","null","rating","wwb","catch","null","laptops","95","50","35","20","30","40","1","","","","","","","","","",""
"","","","","","rating_trial","survey-html-form","12","346863","0.0-3.0-1.4","217","1","2025-04-14 16:23:51","bb671e3ae32f654b8954ea4c4635f915","","Mozilla/5.0 (X11; CrOS x86_64 14092.77.0) AppleWebKit/537.36 (KHTML, like Gecko) Chrome/93.0.4577.107 Safari/537.36","WebKit","Chrome","93.0.4577.107","ChromeOS","14092.77.0","https://hz8g1ckzuq.cognition.run/","en-US,en;q=0.9","g83omlelhbdhjro","38","[""White""]","No","Female","1741752.599999994","46461","","","{""price_1"":""125"",""price_2"":""200"",""price_3"":""600""}","rating","wwb","catch","null","laptops","95","50","35","20","30","40","1","null","null","null","null","null","null","Processing speed","Memory (RAM)","",""
"","","","","","rating_trial_setup","html-keyboard-response","13","347169","0.0-3.0-0.5","217","1","2025-04-14 16:23:51","bb671e3ae32f654b8954ea4c4635f915","","Mozilla/5.0 (X11; CrOS x86_64 14092.77.0) AppleWebKit/537.36 (KHTML, like Gecko) Chrome/93.0.4577.107 Safari/537.36","WebKit","Chrome","93.0.4577.107","ChromeOS","14092.77.0","https://hz8g1ckzuq.cognition.run/","en-US,en;q=0.9","g83omlelhbdhjro","38","[""White""]","No","Female","1741752.599999994","null","","<p></p>","null","rating","wwb","catch","null","laptops","85","95","30","5","20","15","2","","","","","","","","","",""
"","","","","","rating_trial","survey-html-form","14","369018","0.0-3.0-1.5","217","1","2025-04-14 16:23:51","bb671e3ae32f654b8954ea4c4635f915","","Mozilla/5.0 (X11; CrOS x86_64 14092.77.0) AppleWebKit/537.36 (KHTML, like Gecko) Chrome/93.0.4577.107 Safari/537.36","WebKit","Chrome","93.0.4577.107","ChromeOS","14092.77.0","https://hz8g1ckzuq.cognition.run/","en-US,en;q=0.9","g83omlelhbdhjro","38","[""White""]","No","Female","1741752.599999994","21842","","","{""price_1"":""100"",""price_2"":""150"",""price_3"":""850""}","rating","wwb","catch","null","laptops","85","95","30","5","20","15","2","null","null","null","null","null","null","Processing speed","Memory (RAM)","",""
"","","","","","rating_trial_setup","html-keyboard-response","15","369322","0.0-3.0-0.6","217","1","2025-04-14 16:23:51","bb671e3ae32f654b8954ea4c4635f915","","Mozilla/5.0 (X11; CrOS x86_64 14092.77.0) AppleWebKit/537.36 (KHTML, like Gecko) Chrome/93.0.4577.107 Safari/537.36","WebKit","Chrome","93.0.4577.107","ChromeOS","14092.77.0","https://hz8g1ckzuq.cognition.run/","en-US,en;q=0.9","g83omlelhbdhjro","38","[""White""]","No","Female","1741752.599999994","null","","<p></p>","null","rating","bww","catch","null","televisions","65","60","25","20","45","25","1","","","","","","","","","",""
"","","","","","rating_trial","survey-html-form","16","406218","0.0-3.0-1.6","217","1","2025-04-14 16:23:51","bb671e3ae32f654b8954ea4c4635f915","","Mozilla/5.0 (X11; CrOS x86_64 14092.77.0) AppleWebKit/537.36 (KHTML, like Gecko) Chrome/93.0.4577.107 Safari/537.36","WebKit","Chrome","93.0.4577.107","ChromeOS","14092.77.0","https://hz8g1ckzuq.cognition.run/","en-US,en;q=0.9","g83omlelhbdhjro","38","[""White""]","No","Female","1741752.599999994","36889","","","{""price_1"":""600"",""price_2"":""150"",""price_3"":""250""}","rating","bww","catch","null","televisions","65","60","25","20","45","25","1","null","null","null","null","null","null","Screen size","Average lifespan","",""
"","","","","","rating_trial_setup","html-keyboard-response","17","406522","0.0-3.0-0.7","217","1","2025-04-14 16:23:51","bb671e3ae32f654b8954ea4c4635f915","","Mozilla/5.0 (X11; CrOS x86_64 14092.77.0) AppleWebKit/537.36 (KHTML, like Gecko) Chrome/93.0.4577.107 Safari/537.36","WebKit","Chrome","93.0.4577.107","ChromeOS","14092.77.0","https://hz8g1ckzuq.cognition.run/","en-US,en;q=0.9","g83omlelhbdhjro","38","[""White""]","No","Female","1741752.599999994","null","","<p></p>","null","rating","cdt","repulsion_1","1","washing machines","null","null","null","null","null","null","1","","","","","","","","","",""
"","","","","","rating_trial","survey-html-form","18","430834","0.0-3.0-1.7","217","1","2025-04-14 16:23:51","bb671e3ae32f654b8954ea4c4635f915","","Mozilla/5.0 (X11; CrOS x86_64 14092.77.0) AppleWebKit/537.36 (KHTML, like Gecko) Chrome/93.0.4577.107 Safari/537.36","WebKit","Chrome","93.0.4577.107","ChromeOS","14092.77.0","https://hz8g1ckzuq.cognition.run/","en-US,en;q=0.9","g83omlelhbdhjro","38","[""White""]","No","Female","1741752.599999994","24306","","","{""price_1"":""450"",""price_2"":""400"",""price_3"":""400""}","rating","cdt","repulsion_1","1","washing machines","null","null","null","null","null","null","1","100","90","100","30","40","25","Average lifespan","Energy savings","",""
"","","","","","rating_trial_setup","html-keyboard-response","19","431140","0.0-3.0-0.8","217","1","2025-04-14 16:23:51","bb671e3ae32f654b8954ea4c4635f915","","Mozilla/5.0 (X11; CrOS x86_64 14092.77.0) AppleWebKit/537.36 (KHTML, like Gecko) Chrome/93.0.4577.107 Safari/537.36","WebKit","Chrome","93.0.4577.107","ChromeOS","14092.77.0","https://hz8g1ckzuq.cognition.run/","en-US,en;q=0.9","g83omlelhbdhjro","38","[""White""]","No","Female","1741752.599999994","null","","<p></p>","null","rating","dct","attraction_2","1","washing machines","null","null","null","null","null","null","2","","","","","","","","","",""
"","","","","","rating_trial","survey-html-form","20","468179","0.0-3.0-1.8","217","1","2025-04-14 16:23:51","bb671e3ae32f654b8954ea4c4635f915","","Mozilla/5.0 (X11; CrOS x86_64 14092.77.0) AppleWebKit/537.36 (KHTML, like Gecko) Chrome/93.0.4577.107 Safari/537.36","WebKit","Chrome","93.0.4577.107","ChromeOS","14092.77.0","https://hz8g1ckzuq.cognition.run/","en-US,en;q=0.9","g83omlelhbdhjro","38","[""White""]","No","Female","1741752.599999994","37030","","","{""price_1"":""175"",""price_2"":""250"",""price_3"":""200""}","rating","dct","attraction_2","1","washing machines","null","null","null","null","null","null","2","60","50","60","50","60","40","Average lifespan","Energy savings","",""
"","","","","","rating_trial_setup","html-keyboard-response","21","468486","0.0-3.0-0.9","217","1","2025-04-14 16:23:51","bb671e3ae32f654b8954ea4c4635f915","","Mozilla/5.0 (X11; CrOS x86_64 14092.77.0) AppleWebKit/537.36 (KHTML, like Gecko) Chrome/93.0.4577.107 Safari/537.36","WebKit","Chrome","93.0.4577.107","ChromeOS","14092.77.0","https://hz8g1ckzuq.cognition.run/","en-US,en;q=0.9","g83omlelhbdhjro","38","[""White""]","No","Female","1741752.599999994","null","","<p></p>","null","rating","dct","attraction_1","2","laptops","null","null","null","null","null","null","1","","","","","","","","","",""
"","","","","","rating_trial","survey-html-form","22","495514","0.0-3.0-1.9","217","1","2025-04-14 16:23:51","bb671e3ae32f654b8954ea4c4635f915","","Mozilla/5.0 (X11; CrOS x86_64 14092.77.0) AppleWebKit/537.36 (KHTML, like Gecko) Chrome/93.0.4577.107 Safari/537.36","WebKit","Chrome","93.0.4577.107","ChromeOS","14092.77.0","https://hz8g1ckzuq.cognition.run/","en-US,en;q=0.9","g83omlelhbdhjro","38","[""White""]","No","Female","1741752.599999994","27020","","","{""price_1"":""400"",""price_2"":""500"",""price_3"":""450""}","rating","dct","attraction_1","2","laptops","null","null","null","null","null","null","1","50","60","45","60","50","60","Processing speed","Memory (RAM)","",""
"","","","","","rating_trial_setup","html-keyboard-response","23","495819","0.0-3.0-0.10","217","1","2025-04-14 16:23:51","bb671e3ae32f654b8954ea4c4635f915","","Mozilla/5.0 (X11; CrOS x86_64 14092.77.0) AppleWebKit/537.36 (KHTML, like Gecko) Chrome/93.0.4577.107 Safari/537.36","WebKit","Chrome","93.0.4577.107","ChromeOS","14092.77.0","https://hz8g1ckzuq.cognition.run/","en-US,en;q=0.9","g83omlelhbdhjro","38","[""White""]","No","Female","1741752.599999994","null","","<p></p>","null","rating","tdc","repulsion_1","2","washing machines","null","null","null","null","null","null","2","","","","","","","","","",""
"","","","","","rating_trial","survey-html-form","24","518778","0.0-3.0-1.10","217","1","2025-04-14 16:23:51","bb671e3ae32f654b8954ea4c4635f915","","Mozilla/5.0 (X11; CrOS x86_64 14092.77.0) AppleWebKit/537.36 (KHTML, like Gecko) Chrome/93.0.4577.107 Safari/537.36","WebKit","Chrome","93.0.4577.107","ChromeOS","14092.77.0","https://hz8g1ckzuq.cognition.run/","en-US,en;q=0.9","g83omlelhbdhjro","38","[""White""]","No","Female","1741752.599999994","22952","","","{""price_1"":""350"",""price_2"":""350"",""price_3"":""400""}","rating","tdc","repulsion_1","2","washing machines","null","null","null","null","null","null","2","30","40","25","100","90","100","Average lifespan","Energy savings","",""
"","","","","","rating_trial_setup","html-keyboard-response","25","519084","0.0-3.0-0.11","217","1","2025-04-14 16:23:51","bb671e3ae32f654b8954ea4c4635f915","","Mozilla/5.0 (X11; CrOS x86_64 14092.77.0) AppleWebKit/537.36 (KHTML, like Gecko) Chrome/93.0.4577.107 Safari/537.36","WebKit","Chrome","93.0.4577.107","ChromeOS","14092.77.0","https://hz8g1ckzuq.cognition.run/","en-US,en;q=0.9","g83omlelhbdhjro","38","[""White""]","No","Female","1741752.599999994","null","","<p></p>","null","rating","ctd","attraction_1","1","microwave ovens","null","null","null","null","null","null","2","","","","","","","","","",""
"","","","","","rating_trial","survey-html-form","26","565618","0.0-3.0-1.11","217","1","2025-04-14 16:23:51","bb671e3ae32f654b8954ea4c4635f915","","Mozilla/5.0 (X11; CrOS x86_64 14092.77.0) AppleWebKit/537.36 (KHTML, like Gecko) Chrome/93.0.4577.107 Safari/537.36","WebKit","Chrome","93.0.4577.107","ChromeOS","14092.77.0","https://hz8g1ckzuq.cognition.run/","en-US,en;q=0.9","g83omlelhbdhjro","38","[""White""]","No","Female","1741752.599999994","46526","","","{""price_1"":""125"",""price_2"":""75"",""price_3"":""70""}","rating","ctd","attraction_1","1","microwave ovens","null","null","null","null","null","null","2","60","50","60","50","60","45","Warranty","Cooking power","",""
"","","","","","rating_trial_setup","html-keyboard-response","27","565925","0.0-3.0-0.12","217","1","2025-04-14 16:23:51","bb671e3ae32f654b8954ea4c4635f915","","Mozilla/5.0 (X11; CrOS x86_64 14092.77.0) AppleWebKit/537.36 (KHTML, like Gecko) Chrome/93.0.4577.107 Safari/537.36","WebKit","Chrome","93.0.4577.107","ChromeOS","14092.77.0","https://hz8g1ckzuq.cognition.run/","en-US,en;q=0.9","g83omlelhbdhjro","38","[""White""]","No","Female","1741752.599999994","null","","<p></p>","null","rating","dct","attraction_2","2","laptops","null","null","null","null","null","null","1","","","","","","","","","",""
"","","","","","rating_trial","survey-html-form","28","602259","0.0-3.0-1.12","217","1","2025-04-14 16:23:51","bb671e3ae32f654b8954ea4c4635f915","","Mozilla/5.0 (X11; CrOS x86_64 14092.77.0) AppleWebKit/537.36 (KHTML, like Gecko) Chrome/93.0.4577.107 Safari/537.36","WebKit","Chrome","93.0.4577.107","ChromeOS","14092.77.0","https://hz8g1ckzuq.cognition.run/","en-US,en;q=0.9","g83omlelhbdhjro","38","[""White""]","No","Female","1741752.599999994","36324","","","{""price_1"":""375"",""price_2"":""450"",""price_3"":""400""}","rating","dct","attraction_2","2","laptops","null","null","null","null","null","null","1","50","60","40","60","50","60","Processing speed","Memory (RAM)","",""
"","","","","","rating_trial_setup","html-keyboard-response","29","602566","0.0-3.0-0.13","217","1","2025-04-14 16:23:51","bb671e3ae32f654b8954ea4c4635f915","","Mozilla/5.0 (X11; CrOS x86_64 14092.77.0) AppleWebKit/537.36 (KHTML, like Gecko) Chrome/93.0.4577.107 Safari/537.36","WebKit","Chrome","93.0.4577.107","ChromeOS","14092.77.0","https://hz8g1ckzuq.cognition.run/","en-US,en;q=0.9","g83omlelhbdhjro","38","[""White""]","No","Female","1741752.599999994","null","","<p></p>","null","rating","dct","repulsion_2","2","televisions","null","null","null","null","null","null","2","","","","","","","","","",""
"","","","","","rating_trial","survey-html-form","30","643858","0.0-3.0-1.13","217","1","2025-04-14 16:23:51","bb671e3ae32f654b8954ea4c4635f915","","Mozilla/5.0 (X11; CrOS x86_64 14092.77.0) AppleWebKit/537.36 (KHTML, like Gecko) Chrome/93.0.4577.107 Safari/537.36","WebKit","Chrome","93.0.4577.107","ChromeOS","14092.77.0","https://hz8g1ckzuq.cognition.run/","en-US,en;q=0.9","g83omlelhbdhjro","38","[""White""]","No","Female","1741752.599999994","41284","","","{""price_1"":""75"",""price_2"":""90"",""price_3"":""80""}","rating","dct","repulsion_2","2","televisions","null","null","null","null","null","null","2","30","40","20","100","90","100","Screen size","Average lifespan","",""
"","","","","","rating_trial_setup","html-keyboard-response","31","644165","0.0-3.0-0.14","217","1","2025-04-14 16:23:51","bb671e3ae32f654b8954ea4c4635f915","","Mozilla/5.0 (X11; CrOS x86_64 14092.77.0) AppleWebKit/537.36 (KHTML, like Gecko) Chrome/93.0.4577.107 Safari/537.36","WebKit","Chrome","93.0.4577.107","ChromeOS","14092.77.0","https://hz8g1ckzuq.cognition.run/","en-US,en;q=0.9","g83omlelhbdhjro","38","[""White""]","No","Female","1741752.599999994","null","","<p></p>","null","rating","wwb","catch","null","washing machines","95","90","45","5","5","20","1","","","","","","","","","",""
"","","","","","rating_trial","survey-html-form","32","676354","0.0-3.0-1.14","217","1","2025-04-14 16:23:51","bb671e3ae32f654b8954ea4c4635f915","","Mozilla/5.0 (X11; CrOS x86_64 14092.77.0) AppleWebKit/537.36 (KHTML, like Gecko) Chrome/93.0.4577.107 Safari/537.36","WebKit","Chrome","93.0.4577.107","ChromeOS","14092.77.0","https://hz8g1ckzuq.cognition.run/","en-US,en;q=0.9","g83omlelhbdhjro","38","[""White""]","No","Female","1741752.599999994","32179","","","{""price_1"":""150"",""price_2"":""50"",""price_3"":""500""}","rating","wwb","catch","null","washing machines","95","90","45","5","5","20","1","null","null","null","null","null","null","Average lifespan","Energy savings","",""
"","","","","","rating_trial_setup","html-keyboard-response","33","676660","0.0-3.0-0.15","217","1","2025-04-14 16:23:51","bb671e3ae32f654b8954ea4c4635f915","","Mozilla/5.0 (X11; CrOS x86_64 14092.77.0) AppleWebKit/537.36 (KHTML, like Gecko) Chrome/93.0.4577.107 Safari/537.36","WebKit","Chrome","93.0.4577.107","ChromeOS","14092.77.0","https://hz8g1ckzuq.cognition.run/","en-US,en;q=0.9","g83omlelhbdhjro","38","[""White""]","No","Female","1741752.599999994","null","","<p></p>","null","rating","cdt","attraction_2","1","televisions","null","null","null","null","null","null","2","","","","","","","","","",""
"","","","","","rating_trial","survey-html-form","34","695757","0.0-3.0-1.15","217","1","2025-04-14 16:23:51","bb671e3ae32f654b8954ea4c4635f915","","Mozilla/5.0 (X11; CrOS x86_64 14092.77.0) AppleWebKit/537.36 (KHTML, like Gecko) Chrome/93.0.4577.107 Safari/537.36","WebKit","Chrome","93.0.4577.107","ChromeOS","14092.77.0","https://hz8g1ckzuq.cognition.run/","en-US,en;q=0.9","g83omlelhbdhjro","38","[""White""]","No","Female","1741752.599999994","19087","","","{""price_1"":""250"",""price_2"":""175"",""price_3"":""200""}","rating","cdt","attraction_2","1","televisions","null","null","null","null","null","null","2","60","50","60","50","60","40","Screen size","Average lifespan","",""
"","","","","","rating_trial_setup","html-keyboard-response","35","696063","0.0-3.0-0.16","217","1","2025-04-14 16:23:51","bb671e3ae32f654b8954ea4c4635f915","","Mozilla/5.0 (X11; CrOS x86_64 14092.77.0) AppleWebKit/537.36 (KHTML, like Gecko) Chrome/93.0.4577.107 Safari/537.36","WebKit","Chrome","93.0.4577.107","ChromeOS","14092.77.0","https://hz8g1ckzuq.cognition.run/","en-US,en;q=0.9","g83omlelhbdhjro","38","[""White""]","No","Female","1741752.599999994","null","","<p></p>","null","rating","cdt","attraction_2","1","microwave ovens","null","null","null","null","null","null","2","","","","","","","","","",""
"","","","","","rating_trial","survey-html-form","36","720706","0.0-3.0-1.16","217","1","2025-04-14 16:23:51","bb671e3ae32f654b8954ea4c4635f915","","Mozilla/5.0 (X11; CrOS x86_64 14092.77.0) AppleWebKit/537.36 (KHTML, like Gecko) Chrome/93.0.4577.107 Safari/537.36","WebKit","Chrome","93.0.4577.107","ChromeOS","14092.77.0","https://hz8g1ckzuq.cognition.run/","en-US,en;q=0.9","g83omlelhbdhjro","38","[""White""]","No","Female","1741752.599999994","24633","","","{""price_1"":""100"",""price_2"":""70"",""price_3"":""80""}","rating","cdt","attraction_2","1","microwave ovens","null","null","null","null","null","null","2","60","50","60","50","60","40","Warranty","Cooking power","",""
"","","","","","rating_trial_setup","html-keyboard-response","37","721016","0.0-3.0-0.17","217","1","2025-04-14 16:23:51","bb671e3ae32f654b8954ea4c4635f915","","Mozilla/5.0 (X11; CrOS x86_64 14092.77.0) AppleWebKit/537.36 (KHTML, like Gecko) Chrome/93.0.4577.107 Safari/537.36","WebKit","Chrome","93.0.4577.107","ChromeOS","14092.77.0","https://hz8g1ckzuq.cognition.run/","en-US,en;q=0.9","g83omlelhbdhjro","38","[""White""]","No","Female","1741752.599999994","null","","<p></p>","null","rating","cdt","attraction_1","1","washing machines","null","null","null","null","null","null","2","","","","","","","","","",""
"","","","","","rating_trial","survey-html-form","38","748262","0.0-3.0-1.17","217","1","2025-04-14 16:23:51","bb671e3ae32f654b8954ea4c4635f915","","Mozilla/5.0 (X11; CrOS x86_64 14092.77.0) AppleWebKit/537.36 (KHTML, like Gecko) Chrome/93.0.4577.107 Safari/537.36","WebKit","Chrome","93.0.4577.107","ChromeOS","14092.77.0","https://hz8g1ckzuq.cognition.run/","en-US,en;q=0.9","g83omlelhbdhjro","38","[""White""]","No","Female","1741752.599999994","27236","","","{""price_1"":""300"",""price_2"":""1250"",""price_3"":""275""}","rating","cdt","attraction_1","1","washing machines","null","null","null","null","null","null","2","60","50","60","50","60","45","Average lifespan","Energy savings","",""
"","","","","","rating_trial_setup","html-keyboard-response","39","748569","0.0-3.0-0.18","217","1","2025-04-14 16:23:51","bb671e3ae32f654b8954ea4c4635f915","","Mozilla/5.0 (X11; CrOS x86_64 14092.77.0) AppleWebKit/537.36 (KHTML, like Gecko) Chrome/93.0.4577.107 Safari/537.36","WebKit","Chrome","93.0.4577.107","ChromeOS","14092.77.0","https://hz8g1ckzuq.cognition.run/","en-US,en;q=0.9","g83omlelhbdhjro","38","[""White""]","No","Female","1741752.599999994","null","","<p></p>","null","rating","dct","attraction_1","1","televisions","null","null","null","null","null","null","2","","","","","","","","","",""
"","","","","","rating_trial","survey-html-form","40","792274","0.0-3.0-1.18","217","1","2025-04-14 16:23:51","bb671e3ae32f654b8954ea4c4635f915","","Mozilla/5.0 (X11; CrOS x86_64 14092.77.0) AppleWebKit/537.36 (KHTML, like Gecko) Chrome/93.0.4577.107 Safari/537.36","WebKit","Chrome","93.0.4577.107","ChromeOS","14092.77.0","https://hz8g1ckzuq.cognition.run/","en-US,en;q=0.9","g83omlelhbdhjro","38","[""White""]","No","Female","1741752.599999994","43695","","","{""price_1"":""300"",""price_2"":""325"",""price_3"":""300""}","rating","dct","attraction_1","1","televisions","null","null","null","null","null","null","2","60","50","60","50","60","45","Screen size","Average lifespan","",""
"","","","","","rating_trial_setup","html-keyboard-response","41","792582","0.0-3.0-0.19","217","1","2025-04-14 16:23:51","bb671e3ae32f654b8954ea4c4635f915","","Mozilla/5.0 (X11; CrOS x86_64 14092.77.0) AppleWebKit/537.36 (KHTML, like Gecko) Chrome/93.0.4577.107 Safari/537.36","WebKit","Chrome","93.0.4577.107","ChromeOS","14092.77.0","https://hz8g1ckzuq.cognition.run/","en-US,en;q=0.9","g83omlelhbdhjro","38","[""White""]","No","Female","1741752.599999994","null","","<p></p>","null","rating","dct","attraction_2","2","microwave ovens","null","null","null","null","null","null","2","","","","","","","","","",""
"","","","","","rating_trial","survey-html-form","42","826186","0.0-3.0-1.19","217","1","2025-04-14 16:23:51","bb671e3ae32f654b8954ea4c4635f915","","Mozilla/5.0 (X11; CrOS x86_64 14092.77.0) AppleWebKit/537.36 (KHTML, like Gecko) Chrome/93.0.4577.107 Safari/537.36","WebKit","Chrome","93.0.4577.107","ChromeOS","14092.77.0","https://hz8g1ckzuq.cognition.run/","en-US,en;q=0.9","g83omlelhbdhjro","38","[""White""]","No","Female","1741752.599999994","33595","","","{""price_1"":""125"",""price_2"":""100"",""price_3"":""125""}","rating","dct","attraction_2","2","microwave ovens","null","null","null","null","null","null","2","50","60","40","60","50","60","Warranty","Cooking power","",""
"","","","","","rating_trial_setup","html-keyboard-response","43","826494","0.0-3.0-0.20","217","1","2025-04-14 16:23:51","bb671e3ae32f654b8954ea4c4635f915","","Mozilla/5.0 (X11; CrOS x86_64 14092.77.0) AppleWebKit/537.36 (KHTML, like Gecko) Chrome/93.0.4577.107 Safari/537.36","WebKit","Chrome","93.0.4577.107","ChromeOS","14092.77.0","https://hz8g1ckzuq.cognition.run/","en-US,en;q=0.9","g83omlelhbdhjro","38","[""White""]","No","Female","1741752.599999994","null","","<p></p>","null","rating","dct","repulsion_1","1","laptops","null","null","null","null","null","null","1","","","","","","","","","",""
"","","","","","rating_trial","survey-html-form","44","848938","0.0-3.0-1.20","217","1","2025-04-14 16:23:51","bb671e3ae32f654b8954ea4c4635f915","","Mozilla/5.0 (X11; CrOS x86_64 14092.77.0) AppleWebKit/537.36 (KHTML, like Gecko) Chrome/93.0.4577.107 Safari/537.36","WebKit","Chrome","93.0.4577.107","ChromeOS","14092.77.0","https://hz8g1ckzuq.cognition.run/","en-US,en;q=0.9","g83omlelhbdhjro","38","[""White""]","No","Female","1741752.599999994","22435","","","{""price_1"":""200"",""price_2"":""450"",""price_3"":""250""}","rating","dct","repulsion_1","1","laptops","null","null","null","null","null","null","1","100","90","100","30","40","25","Processing speed","Memory (RAM)","",""
"","","","","","rating_trial_setup","html-keyboard-response","45","849247","0.0-3.0-0.21","217","1","2025-04-14 16:23:51","bb671e3ae32f654b8954ea4c4635f915","","Mozilla/5.0 (X11; CrOS x86_64 14092.77.0) AppleWebKit/537.36 (KHTML, like Gecko) Chrome/93.0.4577.107 Safari/537.36","WebKit","Chrome","93.0.4577.107","ChromeOS","14092.77.0","https://hz8g1ckzuq.cognition.run/","en-US,en;q=0.9","g83omlelhbdhjro","38","[""White""]","No","Female","1741752.599999994","null","","<p></p>","null","rating","tcd","attraction_1","1","laptops","null","null","null","null","null","null","2","","","","","","","","","",""
"","","","","","rating_trial","survey-html-form","46","873113","0.0-3.0-1.21","217","1","2025-04-14 16:23:51","bb671e3ae32f654b8954ea4c4635f915","","Mozilla/5.0 (X11; CrOS x86_64 14092.77.0) AppleWebKit/537.36 (KHTML, like Gecko) Chrome/93.0.4577.107 Safari/537.36","WebKit","Chrome","93.0.4577.107","ChromeOS","14092.77.0","https://hz8g1ckzuq.cognition.run/","en-US,en;q=0.9","g83omlelhbdhjro","38","[""White""]","No","Female","1741752.599999994","23856","","","{""price_1"":""200"",""price_2"":""250"",""price_3"":""175""}","rating","tcd","attraction_1","1","laptops","null","null","null","null","null","null","2","60","50","60","50","60","45","Processing speed","Memory (RAM)","",""
"","","","","","rating_trial_setup","html-keyboard-response","47","873422","0.0-3.0-0.22","217","1","2025-04-14 16:23:51","bb671e3ae32f654b8954ea4c4635f915","","Mozilla/5.0 (X11; CrOS x86_64 14092.77.0) AppleWebKit/537.36 (KHTML, like Gecko) Chrome/93.0.4577.107 Safari/537.36","WebKit","Chrome","93.0.4577.107","ChromeOS","14092.77.0","https://hz8g1ckzuq.cognition.run/","en-US,en;q=0.9","g83omlelhbdhjro","38","[""White""]","No","Female","1741752.599999994","null","","<p></p>","null","rating","tdc","repulsion_2","1","televisions","null","null","null","null","null","null","2","","","","","","","","","",""
"","","","","","rating_trial","survey-html-form","48","898962","0.0-3.0-1.22","217","1","2025-04-14 16:23:51","bb671e3ae32f654b8954ea4c4635f915","","Mozilla/5.0 (X11; CrOS x86_64 14092.77.0) AppleWebKit/537.36 (KHTML, like Gecko) Chrome/93.0.4577.107 Safari/537.36","WebKit","Chrome","93.0.4577.107","ChromeOS","14092.77.0","https://hz8g1ckzuq.cognition.run/","en-US,en;q=0.9","g83omlelhbdhjro","38","[""White""]","No","Female","1741752.599999994","25530","","","{""price_1"":""450"",""price_2"":""400"",""price_3"":""475""}","rating","tdc","repulsion_2","1","televisions","null","null","null","null","null","null","2","100","90","100","30","40","20","Screen size","Average lifespan","",""
"","","","","","rating_trial_setup","html-keyboard-response","49","899273","0.0-3.0-0.23","217","1","2025-04-14 16:23:51","bb671e3ae32f654b8954ea4c4635f915","","Mozilla/5.0 (X11; CrOS x86_64 14092.77.0) AppleWebKit/537.36 (KHTML, like Gecko) Chrome/93.0.4577.107 Safari/537.36","WebKit","Chrome","93.0.4577.107","ChromeOS","14092.77.0","https://hz8g1ckzuq.cognition.run/","en-US,en;q=0.9","g83omlelhbdhjro","38","[""White""]","No","Female","1741752.599999994","null","","<p></p>","null","rating","dct","repulsion_2","1","laptops","null","null","null","null","null","null","2","","","","","","","","","",""
"","","","","","rating_trial","survey-html-form","50","941843","0.0-3.0-1.23","217","1","2025-04-14 16:23:51","bb671e3ae32f654b8954ea4c4635f915","","Mozilla/5.0 (X11; CrOS x86_64 14092.77.0) AppleWebKit/537.36 (KHTML, like Gecko) Chrome/93.0.4577.107 Safari/537.36","WebKit","Chrome","93.0.4577.107","ChromeOS","14092.77.0","https://hz8g1ckzuq.cognition.run/","en-US,en;q=0.9","g83omlelhbdhjro","38","[""White""]","No","Female","1741752.599999994","42560","","","{""price_1"":""400"",""price_2"":""450"",""price_3"":""425""}","rating","dct","repulsion_2","1","laptops","null","null","null","null","null","null","2","100","90","100","30","40","20","Processing speed","Memory (RAM)","",""
"","","","","","rating_trial_setup","html-keyboard-response","51","942153","0.0-3.0-0.24","217","1","2025-04-14 16:23:51","bb671e3ae32f654b8954ea4c4635f915","","Mozilla/5.0 (X11; CrOS x86_64 14092.77.0) AppleWebKit/537.36 (KHTML, like Gecko) Chrome/93.0.4577.107 Safari/537.36","WebKit","Chrome","93.0.4577.107","ChromeOS","14092.77.0","https://hz8g1ckzuq.cognition.run/","en-US,en;q=0.9","g83omlelhbdhjro","38","[""White""]","No","Female","1741752.599999994","null","","<p></p>","null","rating","ctd","repulsion_2","2","laptops","null","null","null","null","null","null","1","","","","","","","","","",""
"","","","","","rating_trial","survey-html-form","52","965429","0.0-3.0-1.24","217","1","2025-04-14 16:23:51","bb671e3ae32f654b8954ea4c4635f915","","Mozilla/5.0 (X11; CrOS x86_64 14092.77.0) AppleWebKit/537.36 (KHTML, like Gecko) Chrome/93.0.4577.107 Safari/537.36","WebKit","Chrome","93.0.4577.107","ChromeOS","14092.77.0","https://hz8g1ckzuq.cognition.run/","en-US,en;q=0.9","g83omlelhbdhjro","38","[""White""]","No","Female","1741752.599999994","23265","","","{""price_1"":""400"",""price_2"":""375"",""price_3"":""350""}","rating","ctd","repulsion_2","2","laptops","null","null","null","null","null","null","1","30","40","20","100","90","100","Processing speed","Memory (RAM)","",""
"","","","","","rating_trial_setup","html-keyboard-response","53","965738","0.0-3.0-0.25","217","1","2025-04-14 16:23:51","bb671e3ae32f654b8954ea4c4635f915","","Mozilla/5.0 (X11; CrOS x86_64 14092.77.0) AppleWebKit/537.36 (KHTML, like Gecko) Chrome/93.0.4577.107 Safari/537.36","WebKit","Chrome","93.0.4577.107","ChromeOS","14092.77.0","https://hz8g1ckzuq.cognition.run/","en-US,en;q=0.9","g83omlelhbdhjro","38","[""White""]","No","Female","1741752.599999994","null","","<p></p>","null","rating","dct","repulsion_1","1","microwave ovens","null","null","null","null","null","null","1","","","","","","","","","",""
"","","","","","rating_trial","survey-html-form","54","993020","0.0-3.0-1.25","217","1","2025-04-14 16:23:51","bb671e3ae32f654b8954ea4c4635f915","","Mozilla/5.0 (X11; CrOS x86_64 14092.77.0) AppleWebKit/537.36 (KHTML, like Gecko) Chrome/93.0.4577.107 Safari/537.36","WebKit","Chrome","93.0.4577.107","ChromeOS","14092.77.0","https://hz8g1ckzuq.cognition.run/","en-US,en;q=0.9","g83omlelhbdhjro","38","[""White""]","No","Female","1741752.599999994","27272","","","{""price_1"":""120"",""price_2"":""100"",""price_3"":""125""}","rating","dct","repulsion_1","1","microwave ovens","null","null","null","null","null","null","1","100","90","100","30","40","25","Warranty","Cooking power","",""
"","","","","","rating_trial_setup","html-keyboard-response","55","993332","0.0-3.0-0.26","217","1","2025-04-14 16:23:51","bb671e3ae32f654b8954ea4c4635f915","","Mozilla/5.0 (X11; CrOS x86_64 14092.77.0) AppleWebKit/537.36 (KHTML, like Gecko) Chrome/93.0.4577.107 Safari/537.36","WebKit","Chrome","93.0.4577.107","ChromeOS","14092.77.0","https://hz8g1ckzuq.cognition.run/","en-US,en;q=0.9","g83omlelhbdhjro","38","[""White""]","No","Female","1741752.599999994","null","","<p></p>","null","rating","dtc","attraction_2","1","laptops","null","null","null","null","null","null","1","","","","","","","","","",""
"","","","","","rating_trial","survey-html-form","56","1019645","0.0-3.0-1.26","217","1","2025-04-14 16:23:51","bb671e3ae32f654b8954ea4c4635f915","","Mozilla/5.0 (X11; CrOS x86_64 14092.77.0) AppleWebKit/537.36 (KHTML, like Gecko) Chrome/93.0.4577.107 Safari/537.36","WebKit","Chrome","93.0.4577.107","ChromeOS","14092.77.0","https://hz8g1ckzuq.cognition.run/","en-US,en;q=0.9","g83omlelhbdhjro","38","[""White""]","No","Female","1741752.599999994","26300","","","{""price_1"":""225"",""price_2"":""250"",""price_3"":""200""}","rating","dtc","attraction_2","1","laptops","null","null","null","null","null","null","1","60","50","60","50","60","40","Processing speed","Memory (RAM)","",""
"","","","","","rating_trial_setup","html-keyboard-response","57","1019955","0.0-3.0-0.27","217","1","2025-04-14 16:23:51","bb671e3ae32f654b8954ea4c4635f915","","Mozilla/5.0 (X11; CrOS x86_64 14092.77.0) AppleWebKit/537.36 (KHTML, like Gecko) Chrome/93.0.4577.107 Safari/537.36","WebKit","Chrome","93.0.4577.107","ChromeOS","14092.77.0","https://hz8g1ckzuq.cognition.run/","en-US,en;q=0.9","g83omlelhbdhjro","38","[""White""]","No","Female","1741752.599999994","null","","<p></p>","null","rating","bww","catch","null","microwave ovens","90","55","35","10","20","25","2","","","","","","","","","",""
"","","","","","rating_trial","survey-html-form","58","1035581","0.0-3.0-1.27","217","1","2025-04-14 16:23:51","bb671e3ae32f654b8954ea4c4635f915","","Mozilla/5.0 (X11; CrOS x86_64 14092.77.0) AppleWebKit/537.36 (KHTML, like Gecko) Chrome/93.0.4577.107 Safari/537.36","WebKit","Chrome","93.0.4577.107","ChromeOS","14092.77.0","https://hz8g1ckzuq.cognition.run/","en-US,en;q=0.9","g83omlelhbdhjro","38","[""White""]","No","Female","1741752.599999994","15612","","","{""price_1"":""100"",""price_2"":""25"",""price_3"":""50""}","rating","bww","catch","null","microwave ovens","90","55","35","10","20","25","2","null","null","null","null","null","null","Warranty","Cooking power","",""
"","","","","","rating_trial_setup","html-keyboard-response","59","1035892","0.0-3.0-0.28","217","1","2025-04-14 16:23:51","bb671e3ae32f654b8954ea4c4635f915","","Mozilla/5.0 (X11; CrOS x86_64 14092.77.0) AppleWebKit/537.36 (KHTML, like Gecko) Chrome/93.0.4577.107 Safari/537.36","WebKit","Chrome","93.0.4577.107","ChromeOS","14092.77.0","https://hz8g1ckzuq.cognition.run/","en-US,en;q=0.9","g83omlelhbdhjro","38","[""White""]","No","Female","1741752.599999994","null","","<p></p>","null","rating","wbw","catch","null","microwave ovens","60","65","25","20","45","50","1","","","","","","","","","",""
"","","","","","rating_trial","survey-html-form","60","1053138","0.0-3.0-1.28","217","1","2025-04-14 16:23:51","bb671e3ae32f654b8954ea4c4635f915","","Mozilla/5.0 (X11; CrOS x86_64 14092.77.0) AppleWebKit/537.36 (KHTML, like Gecko) Chrome/93.0.4577.107 Safari/537.36","WebKit","Chrome","93.0.4577.107","ChromeOS","14092.77.0","https://hz8g1ckzuq.cognition.run/","en-US,en;q=0.9","g83omlelhbdhjro","38","[""White""]","No","Female","1741752.599999994","17233","","","{""price_1"":""30"",""price_2"":""70"",""price_3"":""50""}","rating","wbw","catch","null","microwave ovens","60","65","25","20","45","50","1","null","null","null","null","null","null","Warranty","Cooking power","",""
"","","","","","rating_trial_setup","html-keyboard-response","61","1053447","0.0-3.0-0.29","217","1","2025-04-14 16:23:51","bb671e3ae32f654b8954ea4c4635f915","","Mozilla/5.0 (X11; CrOS x86_64 14092.77.0) AppleWebKit/537.36 (KHTML, like Gecko) Chrome/93.0.4577.107 Safari/537.36","WebKit","Chrome","93.0.4577.107","ChromeOS","14092.77.0","https://hz8g1ckzuq.cognition.run/","en-US,en;q=0.9","g83omlelhbdhjro","38","[""White""]","No","Female","1741752.599999994","null","","<p></p>","null","rating","cdt","attraction_2","2","televisions","null","null","null","null","null","null","2","","","","","","","","","",""
"","","","","","rating_trial","survey-html-form","62","1074900","0.0-3.0-1.29","217","1","2025-04-14 16:23:51","bb671e3ae32f654b8954ea4c4635f915","","Mozilla/5.0 (X11; CrOS x86_64 14092.77.0) AppleWebKit/537.36 (KHTML, like Gecko) Chrome/93.0.4577.107 Safari/537.36","WebKit","Chrome","93.0.4577.107","ChromeOS","14092.77.0","https://hz8g1ckzuq.cognition.run/","en-US,en;q=0.9","g83omlelhbdhjro","38","[""White""]","No","Female","1741752.599999994","21441","","","{""price_1"":""400"",""price_2"":""325"",""price_3"":""400""}","rating","cdt","attraction_2","2","televisions","null","null","null","null","null","null","2","50","60","40","60","50","60","Screen size","Average lifespan","",""
"","","","","","rating_trial_setup","html-keyboard-response","63","1075211","0.0-3.0-0.30","217","1","2025-04-14 16:23:51","bb671e3ae32f654b8954ea4c4635f915","","Mozilla/5.0 (X11; CrOS x86_64 14092.77.0) AppleWebKit/537.36 (KHTML, like Gecko) Chrome/93.0.4577.107 Safari/537.36","WebKit","Chrome","93.0.4577.107","ChromeOS","14092.77.0","https://hz8g1ckzuq.cognition.run/","en-US,en;q=0.9","g83omlelhbdhjro","38","[""White""]","No","Female","1741752.599999994","null","","<p></p>","null","rating","bww","catch","null","washing machines","95","75","25","25","25","35","1","","","","","","","","","",""
"","","","","","rating_trial","survey-html-form","64","1090946","0.0-3.0-1.30","217","1","2025-04-14 16:23:51","bb671e3ae32f654b8954ea4c4635f915","","Mozilla/5.0 (X11; CrOS x86_64 14092.77.0) AppleWebKit/537.36 (KHTML, like Gecko) Chrome/93.0.4577.107 Safari/537.36","WebKit","Chrome","93.0.4577.107","ChromeOS","14092.77.0","https://hz8g1ckzuq.cognition.run/","en-US,en;q=0.9","g83omlelhbdhjro","38","[""White""]","No","Female","1741752.599999994","15723","","","{""price_1"":""500"",""price_2"":""100"",""price_3"":""100""}","rating","bww","catch","null","washing machines","95","75","25","25","25","35","1","null","null","null","null","null","null","Average lifespan","Energy savings","",""
"","","","","","rating_trial_setup","html-keyboard-response","65","1091258","0.0-3.0-0.31","217","1","2025-04-14 16:23:51","bb671e3ae32f654b8954ea4c4635f915","","Mozilla/5.0 (X11; CrOS x86_64 14092.77.0) AppleWebKit/537.36 (KHTML, like Gecko) Chrome/93.0.4577.107 Safari/537.36","WebKit","Chrome","93.0.4577.107","ChromeOS","14092.77.0","https://hz8g1ckzuq.cognition.run/","en-US,en;q=0.9","g83omlelhbdhjro","38","[""White""]","No","Female","1741752.599999994","null","","<p></p>","null","rating","tdc","repulsion_1","2","laptops","null","null","null","null","null","null","1","","","","","","","","","",""
"","","","","","rating_trial","survey-html-form","66","1119453","0.0-3.0-1.31","217","1","2025-04-14 16:23:51","bb671e3ae32f654b8954ea4c4635f915","","Mozilla/5.0 (X11; CrOS x86_64 14092.77.0) AppleWebKit/537.36 (KHTML, like Gecko) Chrome/93.0.4577.107 Safari/537.36","WebKit","Chrome","93.0.4577.107","ChromeOS","14092.77.0","https://hz8g1ckzuq.cognition.run/","en-US,en;q=0.9","g83omlelhbdhjro","38","[""White""]","No","Female","1741752.599999994","28181","","","{""price_1"":""175"",""price_2"":""150"",""price_3"":""200""}","rating","tdc","repulsion_1","2","laptops","null","null","null","null","null","null","1","30","40","25","100","90","100","Processing speed","Memory (RAM)","",""
"","","","","","rating_trial_setup","html-keyboard-response","67","1119763","0.0-3.0-0.32","217","1","2025-04-14 16:23:51","bb671e3ae32f654b8954ea4c4635f915","","Mozilla/5.0 (X11; CrOS x86_64 14092.77.0) AppleWebKit/537.36 (KHTML, like Gecko) Chrome/93.0.4577.107 Safari/537.36","WebKit","Chrome","93.0.4577.107","ChromeOS","14092.77.0","https://hz8g1ckzuq.cognition.run/","en-US,en;q=0.9","g83omlelhbdhjro","38","[""White""]","No","Female","1741752.599999994","null","","<p></p>","null","rating","wwb","catch","null","televisions","55","70","35","30","15","25","1","","","","","","","","","",""
"","","","","","rating_trial","survey-html-form","68","1143611","0.0-3.0-1.32","217","1","2025-04-14 16:23:51","bb671e3ae32f654b8954ea4c4635f915","","Mozilla/5.0 (X11; CrOS x86_64 14092.77.0) AppleWebKit/537.36 (KHTML, like Gecko) Chrome/93.0.4577.107 Safari/537.36","WebKit","Chrome","93.0.4577.107","ChromeOS","14092.77.0","https://hz8g1ckzuq.cognition.run/","en-US,en;q=0.9","g83omlelhbdhjro","38","[""White""]","No","Female","1741752.599999994","23834","","","{""price_1"":""75"",""price_2"":""50"",""price_3"":""550""}","rating","wwb","catch","null","televisions","55","70","35","30","15","25","1","null","null","null","null","null","null","Screen size","Average lifespan","",""
"","","","","","rating_trial_setup","html-keyboard-response","69","1143927","0.0-3.0-0.33","217","1","2025-04-14 16:23:51","bb671e3ae32f654b8954ea4c4635f915","","Mozilla/5.0 (X11; CrOS x86_64 14092.77.0) AppleWebKit/537.36 (KHTML, like Gecko) Chrome/93.0.4577.107 Safari/537.36","WebKit","Chrome","93.0.4577.107","ChromeOS","14092.77.0","https://hz8g1ckzuq.cognition.run/","en-US,en;q=0.9","g83omlelhbdhjro","38","[""White""]","No","Female","1741752.599999994","null","","<p></p>","null","rating","dtc","repulsion_2","2","microwave ovens","null","null","null","null","null","null","2","","","","","","","","","",""
"","","","","","rating_trial","survey-html-form","70","1164722","0.0-3.0-1.33","217","1","2025-04-14 16:23:51","bb671e3ae32f654b8954ea4c4635f915","","Mozilla/5.0 (X11; CrOS x86_64 14092.77.0) AppleWebKit/537.36 (KHTML, like Gecko) Chrome/93.0.4577.107 Safari/537.36","WebKit","Chrome","93.0.4577.107","ChromeOS","14092.77.0","https://hz8g1ckzuq.cognition.run/","en-US,en;q=0.9","g83omlelhbdhjro","38","[""White""]","No","Female","1741752.599999994","20783","","","{""price_1"":""100"",""price_2"":""150"",""price_3"":""125""}","rating","dtc","repulsion_2","2","microwave ovens","null","null","null","null","null","null","2","30","40","20","100","90","100","Warranty","Cooking power","",""
"","","","","","rating_trial_setup","html-keyboard-response","71","1165031","0.0-3.0-0.34","217","1","2025-04-14 16:23:51","bb671e3ae32f654b8954ea4c4635f915","","Mozilla/5.0 (X11; CrOS x86_64 14092.77.0) AppleWebKit/537.36 (KHTML, like Gecko) Chrome/93.0.4577.107 Safari/537.36","WebKit","Chrome","93.0.4577.107","ChromeOS","14092.77.0","https://hz8g1ckzuq.cognition.run/","en-US,en;q=0.9","g83omlelhbdhjro","38","[""White""]","No","Female","1741752.599999994","null","","<p></p>","null","rating","tdc","repulsion_1","2","microwave ovens","null","null","null","null","null","null","1","","","","","","","","","",""
"","","","","","rating_trial","survey-html-form","72","1187989","0.0-3.0-1.34","217","1","2025-04-14 16:23:51","bb671e3ae32f654b8954ea4c4635f915","","Mozilla/5.0 (X11; CrOS x86_64 14092.77.0) AppleWebKit/537.36 (KHTML, like Gecko) Chrome/93.0.4577.107 Safari/537.36","WebKit","Chrome","93.0.4577.107","ChromeOS","14092.77.0","https://hz8g1ckzuq.cognition.run/","en-US,en;q=0.9","g83omlelhbdhjro","38","[""White""]","No","Female","1741752.599999994","22946","","","{""price_1"":""75"",""price_2"":""75"",""price_3"":""100""}","rating","tdc","repulsion_1","2","microwave ovens","null","null","null","null","null","null","1","30","40","25","100","90","100","Warranty","Cooking power","",""
"","","","","","rating_trial_setup","html-keyboard-response","73","1188300","0.0-3.0-0.35","217","1","2025-04-14 16:23:51","bb671e3ae32f654b8954ea4c4635f915","","Mozilla/5.0 (X11; CrOS x86_64 14092.77.0) AppleWebKit/537.36 (KHTML, like Gecko) Chrome/93.0.4577.107 Safari/537.36","WebKit","Chrome","93.0.4577.107","ChromeOS","14092.77.0","https://hz8g1ckzuq.cognition.run/","en-US,en;q=0.9","g83omlelhbdhjro","38","[""White""]","No","Female","1741752.599999994","null","","<p></p>","null","rating","tdc","repulsion_2","2","washing machines","null","null","null","null","null","null","1","","","","","","","","","",""
"","","","","","rating_trial","survey-html-form","74","1204287","0.0-3.0-1.35","217","1","2025-04-14 16:23:51","bb671e3ae32f654b8954ea4c4635f915","","Mozilla/5.0 (X11; CrOS x86_64 14092.77.0) AppleWebKit/537.36 (KHTML, like Gecko) Chrome/93.0.4577.107 Safari/537.36","WebKit","Chrome","93.0.4577.107","ChromeOS","14092.77.0","https://hz8g1ckzuq.cognition.run/","en-US,en;q=0.9","g83omlelhbdhjro","38","[""White""]","No","Female","1741752.599999994","15973","","","{""price_1"":""175"",""price_2"":""150"",""price_3"":""200""}","rating","tdc","repulsion_2","2","washing machines","null","null","null","null","null","null","1","30","40","20","100","90","100","Average lifespan","Energy savings","",""
"","","","","","rating_trial_setup","html-keyboard-response","75","1204599","0.0-3.0-0.36","217","1","2025-04-14 16:23:51","bb671e3ae32f654b8954ea4c4635f915","","Mozilla/5.0 (X11; CrOS x86_64 14092.77.0) AppleWebKit/537.36 (KHTML, like Gecko) Chrome/93.0.4577.107 Safari/537.36","WebKit","Chrome","93.0.4577.107","ChromeOS","14092.77.0","https://hz8g1ckzuq.cognition.run/","en-US,en;q=0.9","g83omlelhbdhjro","38","[""White""]","No","Female","1741752.599999994","null","","<p></p>","null","rating","tdc","repulsion_1","1","televisions","null","null","null","null","null","null","2","","","","","","","","","",""
"","","","","","rating_trial","survey-html-form","76","1256194","0.0-3.0-1.36","217","1","2025-04-14 16:23:51","bb671e3ae32f654b8954ea4c4635f915","","Mozilla/5.0 (X11; CrOS x86_64 14092.77.0) AppleWebKit/537.36 (KHTML, like Gecko) Chrome/93.0.4577.107 Safari/537.36","WebKit","Chrome","93.0.4577.107","ChromeOS","14092.77.0","https://hz8g1ckzuq.cognition.run/","en-US,en;q=0.9","g83omlelhbdhjro","38","[""White""]","No","Female","1741752.599999994","51584","","","{""price_1"":""350"",""price_2"":""300"",""price_3"":""400""}","rating","tdc","repulsion_1","1","televisions","null","null","null","null","null","null","2","100","90","100","30","40","25","Screen size","Average lifespan","",""
"","","","","","rating_trial_setup","html-keyboard-response","77","1256507","0.0-3.0-0.37","217","1","2025-04-14 16:23:51","bb671e3ae32f654b8954ea4c4635f915","","Mozilla/5.0 (X11; CrOS x86_64 14092.77.0) AppleWebKit/537.36 (KHTML, like Gecko) Chrome/93.0.4577.107 Safari/537.36","WebKit","Chrome","93.0.4577.107","ChromeOS","14092.77.0","https://hz8g1ckzuq.cognition.run/","en-US,en;q=0.9","g83omlelhbdhjro","38","[""White""]","No","Female","1741752.599999994","null","","<p></p>","null","rating","tcd","repulsion_2","1","washing machines","null","null","null","null","null","null","1","","","","","","","","","",""
"","","","","","rating_trial","survey-html-form","78","1285362","0.0-3.0-1.37","217","1","2025-04-14 16:23:51","bb671e3ae32f654b8954ea4c4635f915","","Mozilla/5.0 (X11; CrOS x86_64 14092.77.0) AppleWebKit/537.36 (KHTML, like Gecko) Chrome/93.0.4577.107 Safari/537.36","WebKit","Chrome","93.0.4577.107","ChromeOS","14092.77.0","https://hz8g1ckzuq.cognition.run/","en-US,en;q=0.9","g83omlelhbdhjro","38","[""White""]","No","Female","1741752.599999994","28839","","","{""price_1"":""300"",""price_2"":""275"",""price_3"":""275""}","rating","tcd","repulsion_2","1","washing machines","null","null","null","null","null","null","1","100","90","100","30","40","20","Average lifespan","Energy savings","",""
"","","","","","rating_trial_setup","html-keyboard-response","79","1285676","0.0-3.0-0.38","217","1","2025-04-14 16:23:51","bb671e3ae32f654b8954ea4c4635f915","","Mozilla/5.0 (X11; CrOS x86_64 14092.77.0) AppleWebKit/537.36 (KHTML, like Gecko) Chrome/93.0.4577.107 Safari/537.36","WebKit","Chrome","93.0.4577.107","ChromeOS","14092.77.0","https://hz8g1ckzuq.cognition.run/","en-US,en;q=0.9","g83omlelhbdhjro","38","[""White""]","No","Female","1741752.599999994","null","","<p></p>","null","rating","tcd","repulsion_2","1","microwave ovens","null","null","null","null","null","null","1","","","","","","","","","",""
"","","","","","rating_trial","survey-html-form","80","1325515","0.0-3.0-1.38","217","1","2025-04-14 16:23:51","bb671e3ae32f654b8954ea4c4635f915","","Mozilla/5.0 (X11; CrOS x86_64 14092.77.0) AppleWebKit/537.36 (KHTML, like Gecko) Chrome/93.0.4577.107 Safari/537.36","WebKit","Chrome","93.0.4577.107","ChromeOS","14092.77.0","https://hz8g1ckzuq.cognition.run/","en-US,en;q=0.9","g83omlelhbdhjro","38","[""White""]","No","Female","1741752.599999994","39826","","","{""price_1"":""40"",""price_2"":""50"",""price_3"":""30""}","rating","tcd","repulsion_2","1","microwave ovens","null","null","null","null","null","null","1","100","90","100","30","40","20","Warranty","Cooking power","",""
"","","","","","rating_trial_setup","html-keyboard-response","81","1325827","0.0-3.0-0.39","217","1","2025-04-14 16:23:51","bb671e3ae32f654b8954ea4c4635f915","","Mozilla/5.0 (X11; CrOS x86_64 14092.77.0) AppleWebKit/537.36 (KHTML, like Gecko) Chrome/93.0.4577.107 Safari/537.36","WebKit","Chrome","93.0.4577.107","ChromeOS","14092.77.0","https://hz8g1ckzuq.cognition.run/","en-US,en;q=0.9","g83omlelhbdhjro","38","[""White""]","No","Female","1741752.599999994","null","","<p></p>","null","rating","tdc","attraction_2","2","washing machines","null","null","null","null","null","null","2","","","","","","","","","",""
"","","","","","rating_trial","survey-html-form","82","1352565","0.0-3.0-1.39","217","1","2025-04-14 16:23:51","bb671e3ae32f654b8954ea4c4635f915","","Mozilla/5.0 (X11; CrOS x86_64 14092.77.0) AppleWebKit/537.36 (KHTML, like Gecko) Chrome/93.0.4577.107 Safari/537.36","WebKit","Chrome","93.0.4577.107","ChromeOS","14092.77.0","https://hz8g1ckzuq.cognition.run/","en-US,en;q=0.9","g83omlelhbdhjro","38","[""White""]","No","Female","1741752.599999994","26726","","","{""price_1"":""275"",""price_2"":""250"",""price_3"":""300""}","rating","tdc","attraction_2","2","washing machines","null","null","null","null","null","null","2","50","60","40","60","50","60","Average lifespan","Energy savings","",""
"","","","","","","instructions","83","1381945","0.0-4.0","217","1","2025-04-14 16:23:51","bb671e3ae32f654b8954ea4c4635f915","","Mozilla/5.0 (X11; CrOS x86_64 14092.77.0) AppleWebKit/537.36 (KHTML, like Gecko) Chrome/93.0.4577.107 Safari/537.36","WebKit","Chrome","93.0.4577.107","ChromeOS","14092.77.0","https://hz8g1ckzuq.cognition.run/","en-US,en;q=0.9","g83omlelhbdhjro","38","[""White""]","No","Female","1741752.599999994","29369","[{""page_index"":0,""viewing_time"":1358},{""page_index"":1,""viewing_time"":888},{""page_index"":2,""viewing_time"":3080},{""page_index"":3,""viewing_time"":3096},{""page_index"":4,""viewing_time"":5360},{""page_index"":5,""viewing_time"":6208},{""page_index"":6,""viewing_time"":4104},{""page_index"":7,""viewing_time"":5272}]","","","","","","","","","","","","","","","","","","","","","","","",""
"","","","","","choice_trial_setup","html-keyboard-response","84","1382260","0.0-5.0-0.0","217","1","2025-04-14 16:23:51","bb671e3ae32f654b8954ea4c4635f915","","Mozilla/5.0 (X11; CrOS x86_64 14092.77.0) AppleWebKit/537.36 (KHTML, like Gecko) Chrome/93.0.4577.107 Safari/537.36","WebKit","Chrome","93.0.4577.107","ChromeOS","14092.77.0","https://hz8g1ckzuq.cognition.run/","en-US,en;q=0.9","g83omlelhbdhjro","38","[""White""]","No","Female","1741752.599999994","null","","<p></p>","null","choice","wbw","catch","null","washing machines","70","80","50","35","20","50","1","","","","","","","","","",""
"","","","","","choice_trial","survey-html-form","85","1386691","0.0-5.0-1.0","217","1","2025-04-14 16:23:51","bb671e3ae32f654b8954ea4c4635f915","","Mozilla/5.0 (X11; CrOS x86_64 14092.77.0) AppleWebKit/537.36 (KHTML, like Gecko) Chrome/93.0.4577.107 Safari/537.36","WebKit","Chrome","93.0.4577.107","ChromeOS","14092.77.0","https://hz8g1ckzuq.cognition.run/","en-US,en;q=0.9","g83omlelhbdhjro","38","[""White""]","No","Female","1741752.599999994","4412","","","{""product_choice"":""B""}","choice","wbw","catch","null","washing machines","70","80","50","35","20","50","1","null","null","null","null","null","null","Average lifespan","Energy savings","",""
"","","","","","choice_trial_setup","html-keyboard-response","86","1387005","0.0-5.0-0.1","217","1","2025-04-14 16:23:51","bb671e3ae32f654b8954ea4c4635f915","","Mozilla/5.0 (X11; CrOS x86_64 14092.77.0) AppleWebKit/537.36 (KHTML, like Gecko) Chrome/93.0.4577.107 Safari/537.36","WebKit","Chrome","93.0.4577.107","ChromeOS","14092.77.0","https://hz8g1ckzuq.cognition.run/","en-US,en;q=0.9","g83omlelhbdhjro","38","[""White""]","No","Female","1741752.599999994","null","","<p></p>","null","choice","cdt","attraction_1","1","microwave ovens","null","null","null","null","null","null","2","","","","","","","","","",""
"","","","","","choice_trial","survey-html-form","87","1391874","0.0-5.0-1.1","217","1","2025-04-14 16:23:51","bb671e3ae32f654b8954ea4c4635f915","","Mozilla/5.0 (X11; CrOS x86_64 14092.77.0) AppleWebKit/537.36 (KHTML, like Gecko) Chrome/93.0.4577.107 Safari/537.36","WebKit","Chrome","93.0.4577.107","ChromeOS","14092.77.0","https://hz8g1ckzuq.cognition.run/","en-US,en;q=0.9","g83omlelhbdhjro","38","[""White""]","No","Female","1741752.599999994","4856","","","{""product_choice"":""A""}","choice","cdt","attraction_1","1","microwave ovens","null","null","null","null","null","null","2","60","50","60","50","60","45","Warranty","Cooking power","",""
"","","","","","choice_trial_setup","html-keyboard-response","88","1392187","0.0-5.0-0.2","217","1","2025-04-14 16:23:51","bb671e3ae32f654b8954ea4c4635f915","","Mozilla/5.0 (X11; CrOS x86_64 14092.77.0) AppleWebKit/537.36 (KHTML, like Gecko) Chrome/93.0.4577.107 Safari/537.36","WebKit","Chrome","93.0.4577.107","ChromeOS","14092.77.0","https://hz8g1ckzuq.cognition.run/","en-US,en;q=0.9","g83omlelhbdhjro","38","[""White""]","No","Female","1741752.599999994","null","","<p></p>","null","choice","tdc","attraction_1","1","laptops","null","null","null","null","null","null","1","","","","","","","","","",""
"","","","","","choice_trial","survey-html-form","89","1396274","0.0-5.0-1.2","217","1","2025-04-14 16:23:51","bb671e3ae32f654b8954ea4c4635f915","","Mozilla/5.0 (X11; CrOS x86_64 14092.77.0) AppleWebKit/537.36 (KHTML, like Gecko) Chrome/93.0.4577.107 Safari/537.36","WebKit","Chrome","93.0.4577.107","ChromeOS","14092.77.0","https://hz8g1ckzuq.cognition.run/","en-US,en;q=0.9","g83omlelhbdhjro","38","[""White""]","No","Female","1741752.599999994","4072","","","{""product_choice"":""A""}","choice","tdc","attraction_1","1","laptops","null","null","null","null","null","null","1","60","50","60","50","60","45","Processing speed","Memory (RAM)","",""
"","","","","","choice_trial_setup","html-keyboard-response","90","1396589","0.0-5.0-0.3","217","1","2025-04-14 16:23:51","bb671e3ae32f654b8954ea4c4635f915","","Mozilla/5.0 (X11; CrOS x86_64 14092.77.0) AppleWebKit/537.36 (KHTML, like Gecko) Chrome/93.0.4577.107 Safari/537.36","WebKit","Chrome","93.0.4577.107","ChromeOS","14092.77.0","https://hz8g1ckzuq.cognition.run/","en-US,en;q=0.9","g83omlelhbdhjro","38","[""White""]","No","Female","1741752.599999994","null","","<p></p>","null","choice","dct","repulsion_1","2","televisions","null","null","null","null","null","null","1","","","","","","","","","",""
"","","","","","choice_trial","survey-html-form","91","1408954","0.0-5.0-1.3","217","1","2025-04-14 16:23:51","bb671e3ae32f654b8954ea4c4635f915","","Mozilla/5.0 (X11; CrOS x86_64 14092.77.0) AppleWebKit/537.36 (KHTML, like Gecko) Chrome/93.0.4577.107 Safari/537.36","WebKit","Chrome","93.0.4577.107","ChromeOS","14092.77.0","https://hz8g1ckzuq.cognition.run/","en-US,en;q=0.9","g83omlelhbdhjro","38","[""White""]","No","Female","1741752.599999994","12352","","","{""product_choice"":""B""}","choice","dct","repulsion_1","2","televisions","null","null","null","null","null","null","1","30","40","25","100","90","100","Screen size","Average lifespan","",""
"","","","","","choice_trial_setup","html-keyboard-response","92","1409267","0.0-5.0-0.4","217","1","2025-04-14 16:23:51","bb671e3ae32f654b8954ea4c4635f915","","Mozilla/5.0 (X11; CrOS x86_64 14092.77.0) AppleWebKit/537.36 (KHTML, like Gecko) Chrome/93.0.4577.107 Safari/537.36","WebKit","Chrome","93.0.4577.107","ChromeOS","14092.77.0","https://hz8g1ckzuq.cognition.run/","en-US,en;q=0.9","g83omlelhbdhjro","38","[""White""]","No","Female","1741752.599999994","null","","<p></p>","null","choice","cdt","attraction_2","1","televisions","null","null","null","null","null","null","1","","","","","","","","","",""
"","","","","","choice_trial","survey-html-form","93","1418529","0.0-5.0-1.4","217","1","2025-04-14 16:23:51","bb671e3ae32f654b8954ea4c4635f915","","Mozilla/5.0 (X11; CrOS x86_64 14092.77.0) AppleWebKit/537.36 (KHTML, like Gecko) Chrome/93.0.4577.107 Safari/537.36","WebKit","Chrome","93.0.4577.107","ChromeOS","14092.77.0","https://hz8g1ckzuq.cognition.run/","en-US,en;q=0.9","g83omlelhbdhjro","38","[""White""]","No","Female","1741752.599999994","9247","","","{""product_choice"":""A""}","choice","cdt","attraction_2","1","televisions","null","null","null","null","null","null","1","60","50","60","50","60","40","Screen size","Average lifespan","",""
"","","","","","choice_trial_setup","html-keyboard-response","94","1418845","0.0-5.0-0.5","217","1","2025-04-14 16:23:51","bb671e3ae32f654b8954ea4c4635f915","","Mozilla/5.0 (X11; CrOS x86_64 14092.77.0) AppleWebKit/537.36 (KHTML, like Gecko) Chrome/93.0.4577.107 Safari/537.36","WebKit","Chrome","93.0.4577.107","ChromeOS","14092.77.0","https://hz8g1ckzuq.cognition.run/","en-US,en;q=0.9","g83omlelhbdhjro","38","[""White""]","No","Female","1741752.599999994","null","","<p></p>","null","choice","tcd","attraction_2","2","washing machines","null","null","null","null","null","null","2","","","","","","","","","",""
"","","","","","choice_trial","survey-html-form","95","1426489","0.0-5.0-1.5","217","1","2025-04-14 16:23:51","bb671e3ae32f654b8954ea4c4635f915","","Mozilla/5.0 (X11; CrOS x86_64 14092.77.0) AppleWebKit/537.36 (KHTML, like Gecko) Chrome/93.0.4577.107 Safari/537.36","WebKit","Chrome","93.0.4577.107","ChromeOS","14092.77.0","https://hz8g1ckzuq.cognition.run/","en-US,en;q=0.9","g83omlelhbdhjro","38","[""White""]","No","Female","1741752.599999994","7624","","","{""product_choice"":""B""}","choice","tcd","attraction_2","2","washing machines","null","null","null","null","null","null","2","50","60","40","60","50","60","Average lifespan","Energy savings","",""
"","","","","","choice_trial_setup","html-keyboard-response","96","1426800","0.0-5.0-0.6","217","1","2025-04-14 16:23:51","bb671e3ae32f654b8954ea4c4635f915","","Mozilla/5.0 (X11; CrOS x86_64 14092.77.0) AppleWebKit/537.36 (KHTML, like Gecko) Chrome/93.0.4577.107 Safari/537.36","WebKit","Chrome","93.0.4577.107","ChromeOS","14092.77.0","https://hz8g1ckzuq.cognition.run/","en-US,en;q=0.9","g83omlelhbdhjro","38","[""White""]","No","Female","1741752.599999994","null","","<p></p>","null","choice","wbw","catch","null","laptops","75","95","50","25","25","50","1","","","","","","","","","",""
"","","","","","choice_trial","survey-html-form","97","1431962","0.0-5.0-1.6","217","1","2025-04-14 16:23:51","bb671e3ae32f654b8954ea4c4635f915","","Mozilla/5.0 (X11; CrOS x86_64 14092.77.0) AppleWebKit/537.36 (KHTML, like Gecko) Chrome/93.0.4577.107 Safari/537.36","WebKit","Chrome","93.0.4577.107","ChromeOS","14092.77.0","https://hz8g1ckzuq.cognition.run/","en-US,en;q=0.9","g83omlelhbdhjro","38","[""White""]","No","Female","1741752.599999994","5145","","","{""product_choice"":""B""}","choice","wbw","catch","null","laptops","75","95","50","25","25","50","1","null","null","null","null","null","null","Processing speed","Memory (RAM)","",""
"","","","","","choice_trial_setup","html-keyboard-response","98","1432279","0.0-5.0-0.7","217","1","2025-04-14 16:23:51","bb671e3ae32f654b8954ea4c4635f915","","Mozilla/5.0 (X11; CrOS x86_64 14092.77.0) AppleWebKit/537.36 (KHTML, like Gecko) Chrome/93.0.4577.107 Safari/537.36","WebKit","Chrome","93.0.4577.107","ChromeOS","14092.77.0","https://hz8g1ckzuq.cognition.run/","en-US,en;q=0.9","g83omlelhbdhjro","38","[""White""]","No","Female","1741752.599999994","null","","<p></p>","null","choice","bww","catch","null","microwave ovens","55","60","5","45","40","10","2","","","","","","","","","",""
"","","","","","choice_trial","survey-html-form","99","1437235","0.0-5.0-1.7","217","1","2025-04-14 16:23:51","bb671e3ae32f654b8954ea4c4635f915","","Mozilla/5.0 (X11; CrOS x86_64 14092.77.0) AppleWebKit/537.36 (KHTML, like Gecko) Chrome/93.0.4577.107 Safari/537.36","WebKit","Chrome","93.0.4577.107","ChromeOS","14092.77.0","https://hz8g1ckzuq.cognition.run/","en-US,en;q=0.9","g83omlelhbdhjro","38","[""White""]","No","Female","1741752.599999994","4939","","","{""product_choice"":""A""}","choice","bww","catch","null","microwave ovens","55","60","5","45","40","10","2","null","null","null","null","null","null","Warranty","Cooking power","",""
"","","","","","choice_trial_setup","html-keyboard-response","100","1437551","0.0-5.0-0.8","217","1","2025-04-14 16:23:51","bb671e3ae32f654b8954ea4c4635f915","","Mozilla/5.0 (X11; CrOS x86_64 14092.77.0) AppleWebKit/537.36 (KHTML, like Gecko) Chrome/93.0.4577.107 Safari/537.36","WebKit","Chrome","93.0.4577.107","ChromeOS","14092.77.0","https://hz8g1ckzuq.cognition.run/","en-US,en;q=0.9","g83omlelhbdhjro","38","[""White""]","No","Female","1741752.599999994","null","","<p></p>","null","choice","wwb","catch","null","televisions","75","85","20","40","25","40","1","","","","","","","","","",""
"","","","","","choice_trial","survey-html-form","101","1440099","0.0-5.0-1.8","217","1","2025-04-14 16:23:51","bb671e3ae32f654b8954ea4c4635f915","","Mozilla/5.0 (X11; CrOS x86_64 14092.77.0) AppleWebKit/537.36 (KHTML, like Gecko) Chrome/93.0.4577.107 Safari/537.36","WebKit","Chrome","93.0.4577.107","ChromeOS","14092.77.0","https://hz8g1ckzuq.cognition.run/","en-US,en;q=0.9","g83omlelhbdhjro","38","[""White""]","No","Female","1741752.599999994","2532","","","{""product_choice"":""C""}","choice","wwb","catch","null","televisions","75","85","20","40","25","40","1","null","null","null","null","null","null","Screen size","Average lifespan","",""
"","","","","","choice_trial_setup","html-keyboard-response","102","1440415","0.0-5.0-0.9","217","1","2025-04-14 16:23:51","bb671e3ae32f654b8954ea4c4635f915","","Mozilla/5.0 (X11; CrOS x86_64 14092.77.0) AppleWebKit/537.36 (KHTML, like Gecko) Chrome/93.0.4577.107 Safari/537.36","WebKit","Chrome","93.0.4577.107","ChromeOS","14092.77.0","https://hz8g1ckzuq.cognition.run/","en-US,en;q=0.9","g83omlelhbdhjro","38","[""White""]","No","Female","1741752.599999994","null","","<p></p>","null","choice","cdt","attraction_2","1","laptops","null","null","null","null","null","null","2","","","","","","","","","",""
"","","","","","choice_trial","survey-html-form","103","1448819","0.0-5.0-1.9","217","1","2025-04-14 16:23:51","bb671e3ae32f654b8954ea4c4635f915","","Mozilla/5.0 (X11; CrOS x86_64 14092.77.0) AppleWebKit/537.36 (KHTML, like Gecko) Chrome/93.0.4577.107 Safari/537.36","WebKit","Chrome","93.0.4577.107","ChromeOS","14092.77.0","https://hz8g1ckzuq.cognition.run/","en-US,en;q=0.9","g83omlelhbdhjro","38","[""White""]","No","Female","1741752.599999994","8389","","","{""product_choice"":""C""}","choice","cdt","attraction_2","1","laptops","null","null","null","null","null","null","2","60","50","60","50","60","40","Processing speed","Memory (RAM)","",""
"","","","","","choice_trial_setup","html-keyboard-response","104","1449134","0.0-5.0-0.10","217","1","2025-04-14 16:23:51","bb671e3ae32f654b8954ea4c4635f915","","Mozilla/5.0 (X11; CrOS x86_64 14092.77.0) AppleWebKit/537.36 (KHTML, like Gecko) Chrome/93.0.4577.107 Safari/537.36","WebKit","Chrome","93.0.4577.107","ChromeOS","14092.77.0","https://hz8g1ckzuq.cognition.run/","en-US,en;q=0.9","g83omlelhbdhjro","38","[""White""]","No","Female","1741752.599999994","null","","<p></p>","null","choice","tcd","repulsion_2","1","washing machines","null","null","null","null","null","null","1","","","","","","","","","",""
"","","","","","choice_trial","survey-html-form","105","1458434","0.0-5.0-1.10","217","1","2025-04-14 16:23:51","bb671e3ae32f654b8954ea4c4635f915","","Mozilla/5.0 (X11; CrOS x86_64 14092.77.0) AppleWebKit/537.36 (KHTML, like Gecko) Chrome/93.0.4577.107 Safari/537.36","WebKit","Chrome","93.0.4577.107","ChromeOS","14092.77.0","https://hz8g1ckzuq.cognition.run/","en-US,en;q=0.9","g83omlelhbdhjro","38","[""White""]","No","Female","1741752.599999994","9283","","","{""product_choice"":""A""}","choice","tcd","repulsion_2","1","washing machines","null","null","null","null","null","null","1","100","90","100","30","40","20","Average lifespan","Energy savings","",""
"","","","","","choice_trial_setup","html-keyboard-response","106","1458749","0.0-5.0-0.11","217","1","2025-04-14 16:23:51","bb671e3ae32f654b8954ea4c4635f915","","Mozilla/5.0 (X11; CrOS x86_64 14092.77.0) AppleWebKit/537.36 (KHTML, like Gecko) Chrome/93.0.4577.107 Safari/537.36","WebKit","Chrome","93.0.4577.107","ChromeOS","14092.77.0","https://hz8g1ckzuq.cognition.run/","en-US,en;q=0.9","g83omlelhbdhjro","38","[""White""]","No","Female","1741752.599999994","null","","<p></p>","null","choice","tcd","attraction_2","1","microwave ovens","null","null","null","null","null","null","2","","","","","","","","","",""
"","","","","","choice_trial","survey-html-form","107","1465690","0.0-5.0-1.11","217","1","2025-04-14 16:23:51","bb671e3ae32f654b8954ea4c4635f915","","Mozilla/5.0 (X11; CrOS x86_64 14092.77.0) AppleWebKit/537.36 (KHTML, like Gecko) Chrome/93.0.4577.107 Safari/537.36","WebKit","Chrome","93.0.4577.107","ChromeOS","14092.77.0","https://hz8g1ckzuq.cognition.run/","en-US,en;q=0.9","g83omlelhbdhjro","38","[""White""]","No","Female","1741752.599999994","6924","","","{""product_choice"":""B""}","choice","tcd","attraction_2","1","microwave ovens","null","null","null","null","null","null","2","60","50","60","50","60","40","Warranty","Cooking power","",""
"","","","","","choice_trial_setup","html-keyboard-response","108","1466007","0.0-5.0-0.12","217","1","2025-04-14 16:23:51","bb671e3ae32f654b8954ea4c4635f915","","Mozilla/5.0 (X11; CrOS x86_64 14092.77.0) AppleWebKit/537.36 (KHTML, like Gecko) Chrome/93.0.4577.107 Safari/537.36","WebKit","Chrome","93.0.4577.107","ChromeOS","14092.77.0","https://hz8g1ckzuq.cognition.run/","en-US,en;q=0.9","g83omlelhbdhjro","38","[""White""]","No","Female","1741752.599999994","null","","<p></p>","null","choice","dtc","repulsion_1","2","laptops","null","null","null","null","null","null","1","","","","","","","","","",""
"","","","","","choice_trial","survey-html-form","109","1475043","0.0-5.0-1.12","217","1","2025-04-14 16:23:51","bb671e3ae32f654b8954ea4c4635f915","","Mozilla/5.0 (X11; CrOS x86_64 14092.77.0) AppleWebKit/537.36 (KHTML, like Gecko) Chrome/93.0.4577.107 Safari/537.36","WebKit","Chrome","93.0.4577.107","ChromeOS","14092.77.0","https://hz8g1ckzuq.cognition.run/","en-US,en;q=0.9","g83omlelhbdhjro","38","[""White""]","No","Female","1741752.599999994","9019","","","{""product_choice"":""C""}","choice","dtc","repulsion_1","2","laptops","null","null","null","null","null","null","1","30","40","25","100","90","100","Processing speed","Memory (RAM)","",""
"","","","","","choice_trial_setup","html-keyboard-response","110","1475359","0.0-5.0-0.13","217","1","2025-04-14 16:23:51","bb671e3ae32f654b8954ea4c4635f915","","Mozilla/5.0 (X11; CrOS x86_64 14092.77.0) AppleWebKit/537.36 (KHTML, like Gecko) Chrome/93.0.4577.107 Safari/537.36","WebKit","Chrome","93.0.4577.107","ChromeOS","14092.77.0","https://hz8g1ckzuq.cognition.run/","en-US,en;q=0.9","g83omlelhbdhjro","38","[""White""]","No","Female","1741752.599999994","null","","<p></p>","null","choice","dtc","attraction_1","2","televisions","null","null","null","null","null","null","2","","","","","","","","","",""
"","","","","","choice_trial","survey-html-form","111","1485730","0.0-5.0-1.13","217","1","2025-04-14 16:23:51","bb671e3ae32f654b8954ea4c4635f915","","Mozilla/5.0 (X11; CrOS x86_64 14092.77.0) AppleWebKit/537.36 (KHTML, like Gecko) Chrome/93.0.4577.107 Safari/537.36","WebKit","Chrome","93.0.4577.107","ChromeOS","14092.77.0","https://hz8g1ckzuq.cognition.run/","en-US,en;q=0.9","g83omlelhbdhjro","38","[""White""]","No","Female","1741752.599999994","10356","","","{""product_choice"":""B""}","choice","dtc","attraction_1","2","televisions","null","null","null","null","null","null","2","50","60","45","60","50","60","Screen size","Average lifespan","",""
"","","","","","choice_trial_setup","html-keyboard-response","112","1486045","0.0-5.0-0.14","217","1","2025-04-14 16:23:51","bb671e3ae32f654b8954ea4c4635f915","","Mozilla/5.0 (X11; CrOS x86_64 14092.77.0) AppleWebKit/537.36 (KHTML, like Gecko) Chrome/93.0.4577.107 Safari/537.36","WebKit","Chrome","93.0.4577.107","ChromeOS","14092.77.0","https://hz8g1ckzuq.cognition.run/","en-US,en;q=0.9","g83omlelhbdhjro","38","[""White""]","No","Female","1741752.599999994","null","","<p></p>","null","choice","tcd","attraction_2","2","microwave ovens","null","null","null","null","null","null","1","","","","","","","","","",""
"","","","","","choice_trial","survey-html-form","113","1495442","0.0-5.0-1.14","217","1","2025-04-14 16:23:51","bb671e3ae32f654b8954ea4c4635f915","","Mozilla/5.0 (X11; CrOS x86_64 14092.77.0) AppleWebKit/537.36 (KHTML, like Gecko) Chrome/93.0.4577.107 Safari/537.36","WebKit","Chrome","93.0.4577.107","ChromeOS","14092.77.0","https://hz8g1ckzuq.cognition.run/","en-US,en;q=0.9","g83omlelhbdhjro","38","[""White""]","No","Female","1741752.599999994","9381","","","{""product_choice"":""A""}","choice","tcd","attraction_2","2","microwave ovens","null","null","null","null","null","null","1","50","60","40","60","50","60","Warranty","Cooking power","",""
"","","","","","choice_trial_setup","html-keyboard-response","114","1495758","0.0-5.0-0.15","217","1","2025-04-14 16:23:51","bb671e3ae32f654b8954ea4c4635f915","","Mozilla/5.0 (X11; CrOS x86_64 14092.77.0) AppleWebKit/537.36 (KHTML, like Gecko) Chrome/93.0.4577.107 Safari/537.36","WebKit","Chrome","93.0.4577.107","ChromeOS","14092.77.0","https://hz8g1ckzuq.cognition.run/","en-US,en;q=0.9","g83omlelhbdhjro","38","[""White""]","No","Female","1741752.599999994","null","","<p></p>","null","choice","bww","catch","null","microwave ovens","85","70","10","50","25","20","2","","","","","","","","","",""
"","","","","","choice_trial","survey-html-form","115","1499715","0.0-5.0-1.15","217","1","2025-04-14 16:23:51","bb671e3ae32f654b8954ea4c4635f915","","Mozilla/5.0 (X11; CrOS x86_64 14092.77.0) AppleWebKit/537.36 (KHTML, like Gecko) Chrome/93.0.4577.107 Safari/537.36","WebKit","Chrome","93.0.4577.107","ChromeOS","14092.77.0","https://hz8g1ckzuq.cognition.run/","en-US,en;q=0.9","g83omlelhbdhjro","38","[""White""]","No","Female","1741752.599999994","3938","","","{""product_choice"":""A""}","choice","bww","catch","null","microwave ovens","85","70","10","50","25","20","2","null","null","null","null","null","null","Warranty","Cooking power","",""
"","","","","","choice_trial_setup","html-keyboard-response","116","1500032","0.0-5.0-0.16","217","1","2025-04-14 16:23:51","bb671e3ae32f654b8954ea4c4635f915","","Mozilla/5.0 (X11; CrOS x86_64 14092.77.0) AppleWebKit/537.36 (KHTML, like Gecko) Chrome/93.0.4577.107 Safari/537.36","WebKit","Chrome","93.0.4577.107","ChromeOS","14092.77.0","https://hz8g1ckzuq.cognition.run/","en-US,en;q=0.9","g83omlelhbdhjro","38","[""White""]","No","Female","1741752.599999994","null","","<p></p>","null","choice","cdt","repulsion_1","1","televisions","null","null","null","null","null","null","1","","","","","","","","","",""
"","","","","","choice_trial","survey-html-form","117","1504443","0.0-5.0-1.16","217","1","2025-04-14 16:23:51","bb671e3ae32f654b8954ea4c4635f915","","Mozilla/5.0 (X11; CrOS x86_64 14092.77.0) AppleWebKit/537.36 (KHTML, like Gecko) Chrome/93.0.4577.107 Safari/537.36","WebKit","Chrome","93.0.4577.107","ChromeOS","14092.77.0","https://hz8g1ckzuq.cognition.run/","en-US,en;q=0.9","g83omlelhbdhjro","38","[""White""]","No","Female","1741752.599999994","4394","","","{""product_choice"":""A""}","choice","cdt","repulsion_1","1","televisions","null","null","null","null","null","null","1","100","90","100","30","40","25","Screen size","Average lifespan","",""
"","","","","","choice_trial_setup","html-keyboard-response","118","1504764","0.0-5.0-0.17","217","1","2025-04-14 16:23:51","bb671e3ae32f654b8954ea4c4635f915","","Mozilla/5.0 (X11; CrOS x86_64 14092.77.0) AppleWebKit/537.36 (KHTML, like Gecko) Chrome/93.0.4577.107 Safari/537.36","WebKit","Chrome","93.0.4577.107","ChromeOS","14092.77.0","https://hz8g1ckzuq.cognition.run/","en-US,en;q=0.9","g83omlelhbdhjro","38","[""White""]","No","Female","1741752.599999994","null","","<p></p>","null","choice","ctd","repulsion_1","2","washing machines","null","null","null","null","null","null","1","","","","","","","","","",""
"","","","","","choice_trial","survey-html-form","119","1511274","0.0-5.0-1.17","217","1","2025-04-14 16:23:51","bb671e3ae32f654b8954ea4c4635f915","","Mozilla/5.0 (X11; CrOS x86_64 14092.77.0) AppleWebKit/537.36 (KHTML, like Gecko) Chrome/93.0.4577.107 Safari/537.36","WebKit","Chrome","93.0.4577.107","ChromeOS","14092.77.0","https://hz8g1ckzuq.cognition.run/","en-US,en;q=0.9","g83omlelhbdhjro","38","[""White""]","No","Female","1741752.599999994","6491","","","{""product_choice"":""A""}","choice","ctd","repulsion_1","2","washing machines","null","null","null","null","null","null","1","30","40","25","100","90","100","Average lifespan","Energy savings","",""
"","","","","","choice_trial_setup","html-keyboard-response","120","1511592","0.0-5.0-0.18","217","1","2025-04-14 16:23:51","bb671e3ae32f654b8954ea4c4635f915","","Mozilla/5.0 (X11; CrOS x86_64 14092.77.0) AppleWebKit/537.36 (KHTML, like Gecko) Chrome/93.0.4577.107 Safari/537.36","WebKit","Chrome","93.0.4577.107","ChromeOS","14092.77.0","https://hz8g1ckzuq.cognition.run/","en-US,en;q=0.9","g83omlelhbdhjro","38","[""White""]","No","Female","1741752.599999994","null","","<p></p>","null","choice","dtc","attraction_2","2","laptops","null","null","null","null","null","null","1","","","","","","","","","",""
"","","","","","choice_trial","survey-html-form","121","1520336","0.0-5.0-1.18","217","1","2025-04-14 16:23:51","bb671e3ae32f654b8954ea4c4635f915","","Mozilla/5.0 (X11; CrOS x86_64 14092.77.0) AppleWebKit/537.36 (KHTML, like Gecko) Chrome/93.0.4577.107 Safari/537.36","WebKit","Chrome","93.0.4577.107","ChromeOS","14092.77.0","https://hz8g1ckzuq.cognition.run/","en-US,en;q=0.9","g83omlelhbdhjro","38","[""White""]","No","Female","1741752.599999994","8728","","","{""product_choice"":""B""}","choice","dtc","attraction_2","2","laptops","null","null","null","null","null","null","1","50","60","40","60","50","60","Processing speed","Memory (RAM)","",""
"","","","","","choice_trial_setup","html-keyboard-response","122","1520649","0.0-5.0-0.19","217","1","2025-04-14 16:23:51","bb671e3ae32f654b8954ea4c4635f915","","Mozilla/5.0 (X11; CrOS x86_64 14092.77.0) AppleWebKit/537.36 (KHTML, like Gecko) Chrome/93.0.4577.107 Safari/537.36","WebKit","Chrome","93.0.4577.107","ChromeOS","14092.77.0","https://hz8g1ckzuq.cognition.run/","en-US,en;q=0.9","g83omlelhbdhjro","38","[""White""]","No","Female","1741752.599999994","null","","<p></p>","null","choice","dct","attraction_1","1","televisions","null","null","null","null","null","null","2","","","","","","","","","",""
"","","","","","choice_trial","survey-html-form","123","1530770","0.0-5.0-1.19","217","1","2025-04-14 16:23:51","bb671e3ae32f654b8954ea4c4635f915","","Mozilla/5.0 (X11; CrOS x86_64 14092.77.0) AppleWebKit/537.36 (KHTML, like Gecko) Chrome/93.0.4577.107 Safari/537.36","WebKit","Chrome","93.0.4577.107","ChromeOS","14092.77.0","https://hz8g1ckzuq.cognition.run/","en-US,en;q=0.9","g83omlelhbdhjro","38","[""White""]","No","Female","1741752.599999994","10104","","","{""product_choice"":""B""}","choice","dct","attraction_1","1","televisions","null","null","null","null","null","null","2","60","50","60","50","60","45","Screen size","Average lifespan","",""
"","","","","","choice_trial_setup","html-keyboard-response","124","1531087","0.0-5.0-0.20","217","1","2025-04-14 16:23:51","bb671e3ae32f654b8954ea4c4635f915","","Mozilla/5.0 (X11; CrOS x86_64 14092.77.0) AppleWebKit/537.36 (KHTML, like Gecko) Chrome/93.0.4577.107 Safari/537.36","WebKit","Chrome","93.0.4577.107","ChromeOS","14092.77.0","https://hz8g1ckzuq.cognition.run/","en-US,en;q=0.9","g83omlelhbdhjro","38","[""White""]","No","Female","1741752.599999994","null","","<p></p>","null","choice","wbw","catch","null","televisions","60","75","40","10","25","40","1","","","","","","","","","",""
"","","","","","choice_trial","survey-html-form","125","1538545","0.0-5.0-1.20","217","1","2025-04-14 16:23:51","bb671e3ae32f654b8954ea4c4635f915","","Mozilla/5.0 (X11; CrOS x86_64 14092.77.0) AppleWebKit/537.36 (KHTML, like Gecko) Chrome/93.0.4577.107 Safari/537.36","WebKit","Chrome","93.0.4577.107","ChromeOS","14092.77.0","https://hz8g1ckzuq.cognition.run/","en-US,en;q=0.9","g83omlelhbdhjro","38","[""White""]","No","Female","1741752.599999994","7439","","","{""product_choice"":""B""}","choice","wbw","catch","null","televisions","60","75","40","10","25","40","1","null","null","null","null","null","null","Screen size","Average lifespan","",""
"","","","","","choice_trial_setup","html-keyboard-response","126","1538862","0.0-5.0-0.21","217","1","2025-04-14 16:23:51","bb671e3ae32f654b8954ea4c4635f915","","Mozilla/5.0 (X11; CrOS x86_64 14092.77.0) AppleWebKit/537.36 (KHTML, like Gecko) Chrome/93.0.4577.107 Safari/537.36","WebKit","Chrome","93.0.4577.107","ChromeOS","14092.77.0","https://hz8g1ckzuq.cognition.run/","en-US,en;q=0.9","g83omlelhbdhjro","38","[""White""]","No","Female","1741752.599999994","null","","<p></p>","null","choice","dct","attraction_1","1","washing machines","null","null","null","null","null","null","1","","","","","","","","","",""
"","","","","","choice_trial","survey-html-form","127","1546307","0.0-5.0-1.21","217","1","2025-04-14 16:23:51","bb671e3ae32f654b8954ea4c4635f915","","Mozilla/5.0 (X11; CrOS x86_64 14092.77.0) AppleWebKit/537.36 (KHTML, like Gecko) Chrome/93.0.4577.107 Safari/537.36","WebKit","Chrome","93.0.4577.107","ChromeOS","14092.77.0","https://hz8g1ckzuq.cognition.run/","en-US,en;q=0.9","g83omlelhbdhjro","38","[""White""]","No","Female","1741752.599999994","7427","","","{""product_choice"":""C""}","choice","dct","attraction_1","1","washing machines","null","null","null","null","null","null","1","60","50","60","50","60","45","Average lifespan","Energy savings","",""
"","","","","","choice_trial_setup","html-keyboard-response","128","1546623","0.0-5.0-0.22","217","1","2025-04-14 16:23:51","bb671e3ae32f654b8954ea4c4635f915","","Mozilla/5.0 (X11; CrOS x86_64 14092.77.0) AppleWebKit/537.36 (KHTML, like Gecko) Chrome/93.0.4577.107 Safari/537.36","WebKit","Chrome","93.0.4577.107","ChromeOS","14092.77.0","https://hz8g1ckzuq.cognition.run/","en-US,en;q=0.9","g83omlelhbdhjro","38","[""White""]","No","Female","1741752.599999994","null","","<p></p>","null","choice","dct","repulsion_2","2","washing machines","null","null","null","null","null","null","1","","","","","","","","","",""
"","","","","","choice_trial","survey-html-form","129","1552577","0.0-5.0-1.22","217","1","2025-04-14 16:23:51","bb671e3ae32f654b8954ea4c4635f915","","Mozilla/5.0 (X11; CrOS x86_64 14092.77.0) AppleWebKit/537.36 (KHTML, like Gecko) Chrome/93.0.4577.107 Safari/537.36","WebKit","Chrome","93.0.4577.107","ChromeOS","14092.77.0","https://hz8g1ckzuq.cognition.run/","en-US,en;q=0.9","g83omlelhbdhjro","38","[""White""]","No","Female","1741752.599999994","5937","","","{""product_choice"":""B""}","choice","dct","repulsion_2","2","washing machines","null","null","null","null","null","null","1","30","40","20","100","90","100","Average lifespan","Energy savings","",""
"","","","","","choice_trial_setup","html-keyboard-response","130","1552892","0.0-5.0-0.23","217","1","2025-04-14 16:23:51","bb671e3ae32f654b8954ea4c4635f915","","Mozilla/5.0 (X11; CrOS x86_64 14092.77.0) AppleWebKit/537.36 (KHTML, like Gecko) Chrome/93.0.4577.107 Safari/537.36","WebKit","Chrome","93.0.4577.107","ChromeOS","14092.77.0","https://hz8g1ckzuq.cognition.run/","en-US,en;q=0.9","g83omlelhbdhjro","38","[""White""]","No","Female","1741752.599999994","null","","<p></p>","null","choice","tcd","repulsion_2","2","televisions","null","null","null","null","null","null","2","","","","","","","","","",""
"","","","","","choice_trial","survey-html-form","131","1562298","0.0-5.0-1.23","217","1","2025-04-14 16:23:51","bb671e3ae32f654b8954ea4c4635f915","","Mozilla/5.0 (X11; CrOS x86_64 14092.77.0) AppleWebKit/537.36 (KHTML, like Gecko) Chrome/93.0.4577.107 Safari/537.36","WebKit","Chrome","93.0.4577.107","ChromeOS","14092.77.0","https://hz8g1ckzuq.cognition.run/","en-US,en;q=0.9","g83omlelhbdhjro","38","[""White""]","No","Female","1741752.599999994","9388","","","{""product_choice"":""B""}","choice","tcd","repulsion_2","2","televisions","null","null","null","null","null","null","2","30","40","20","100","90","100","Screen size","Average lifespan","",""
"","","","","","choice_trial_setup","html-keyboard-response","132","1562615","0.0-5.0-0.24","217","1","2025-04-14 16:23:51","bb671e3ae32f654b8954ea4c4635f915","","Mozilla/5.0 (X11; CrOS x86_64 14092.77.0) AppleWebKit/537.36 (KHTML, like Gecko) Chrome/93.0.4577.107 Safari/537.36","WebKit","Chrome","93.0.4577.107","ChromeOS","14092.77.0","https://hz8g1ckzuq.cognition.run/","en-US,en;q=0.9","g83omlelhbdhjro","38","[""White""]","No","Female","1741752.599999994","null","","<p></p>","null","choice","bww","catch","null","washing machines","80","70","35","15","25","20","2","","","","","","","","","",""
"","","","","","choice_trial","survey-html-form","133","1569514","0.0-5.0-1.24","217","1","2025-04-14 16:23:51","bb671e3ae32f654b8954ea4c4635f915","","Mozilla/5.0 (X11; CrOS x86_64 14092.77.0) AppleWebKit/537.36 (KHTML, like Gecko) Chrome/93.0.4577.107 Safari/537.36","WebKit","Chrome","93.0.4577.107","ChromeOS","14092.77.0","https://hz8g1ckzuq.cognition.run/","en-US,en;q=0.9","g83omlelhbdhjro","38","[""White""]","No","Female","1741752.599999994","6876","","","{""product_choice"":""A""}","choice","bww","catch","null","washing machines","80","70","35","15","25","20","2","null","null","null","null","null","null","Average lifespan","Energy savings","",""
"","","","","","choice_trial_setup","html-keyboard-response","134","1569833","0.0-5.0-0.25","217","1","2025-04-14 16:23:51","bb671e3ae32f654b8954ea4c4635f915","","Mozilla/5.0 (X11; CrOS x86_64 14092.77.0) AppleWebKit/537.36 (KHTML, like Gecko) Chrome/93.0.4577.107 Safari/537.36","WebKit","Chrome","93.0.4577.107","ChromeOS","14092.77.0","https://hz8g1ckzuq.cognition.run/","en-US,en;q=0.9","g83omlelhbdhjro","38","[""White""]","No","Female","1741752.599999994","null","","<p></p>","null","choice","bww","catch","null","laptops","75","70","45","35","25","45","2","","","","","","","","","",""
"","","","","","choice_trial","survey-html-form","135","1574938","0.0-5.0-1.25","217","1","2025-04-14 16:23:51","bb671e3ae32f654b8954ea4c4635f915","","Mozilla/5.0 (X11; CrOS x86_64 14092.77.0) AppleWebKit/537.36 (KHTML, like Gecko) Chrome/93.0.4577.107 Safari/537.36","WebKit","Chrome","93.0.4577.107","ChromeOS","14092.77.0","https://hz8g1ckzuq.cognition.run/","en-US,en;q=0.9","g83omlelhbdhjro","38","[""White""]","No","Female","1741752.599999994","5085","","","{""product_choice"":""A""}","choice","bww","catch","null","laptops","75","70","45","35","25","45","2","null","null","null","null","null","null","Processing speed","Memory (RAM)","",""
"","","","","","choice_trial_setup","html-keyboard-response","136","1575256","0.0-5.0-0.26","217","1","2025-04-14 16:23:51","bb671e3ae32f654b8954ea4c4635f915","","Mozilla/5.0 (X11; CrOS x86_64 14092.77.0) AppleWebKit/537.36 (KHTML, like Gecko) Chrome/93.0.4577.107 Safari/537.36","WebKit","Chrome","93.0.4577.107","ChromeOS","14092.77.0","https://hz8g1ckzuq.cognition.run/","en-US,en;q=0.9","g83omlelhbdhjro","38","[""White""]","No","Female","1741752.599999994","null","","<p></p>","null","choice","tcd","attraction_1","2","laptops","null","null","null","null","null","null","1","","","","","","","","","",""
"","","","","","choice_trial","survey-html-form","137","1580042","0.0-5.0-1.26","217","1","2025-04-14 16:23:51","bb671e3ae32f654b8954ea4c4635f915","","Mozilla/5.0 (X11; CrOS x86_64 14092.77.0) AppleWebKit/537.36 (KHTML, like Gecko) Chrome/93.0.4577.107 Safari/537.36","WebKit","Chrome","93.0.4577.107","ChromeOS","14092.77.0","https://hz8g1ckzuq.cognition.run/","en-US,en;q=0.9","g83omlelhbdhjro","38","[""White""]","No","Female","1741752.599999994","4768","","","{""product_choice"":""B""}","choice","tcd","attraction_1","2","laptops","null","null","null","null","null","null","1","50","60","45","60","50","60","Processing speed","Memory (RAM)","",""
"","","","","","choice_trial_setup","html-keyboard-response","138","1580361","0.0-5.0-0.27","217","1","2025-04-14 16:23:51","bb671e3ae32f654b8954ea4c4635f915","","Mozilla/5.0 (X11; CrOS x86_64 14092.77.0) AppleWebKit/537.36 (KHTML, like Gecko) Chrome/93.0.4577.107 Safari/537.36","WebKit","Chrome","93.0.4577.107","ChromeOS","14092.77.0","https://hz8g1ckzuq.cognition.run/","en-US,en;q=0.9","g83omlelhbdhjro","38","[""White""]","No","Female","1741752.599999994","null","","<p></p>","null","choice","dct","repulsion_2","1","laptops","null","null","null","null","null","null","2","","","","","","","","","",""
"","","","","","choice_trial","survey-html-form","139","1585522","0.0-5.0-1.27","217","1","2025-04-14 16:23:51","bb671e3ae32f654b8954ea4c4635f915","","Mozilla/5.0 (X11; CrOS x86_64 14092.77.0) AppleWebKit/537.36 (KHTML, like Gecko) Chrome/93.0.4577.107 Safari/537.36","WebKit","Chrome","93.0.4577.107","ChromeOS","14092.77.0","https://hz8g1ckzuq.cognition.run/","en-US,en;q=0.9","g83omlelhbdhjro","38","[""White""]","No","Female","1741752.599999994","5136","","","{""product_choice"":""B""}","choice","dct","repulsion_2","1","laptops","null","null","null","null","null","null","2","100","90","100","30","40","20","Processing speed","Memory (RAM)","",""
"","","","","","choice_trial_setup","html-keyboard-response","140","1585841","0.0-5.0-0.28","217","1","2025-04-14 16:23:51","bb671e3ae32f654b8954ea4c4635f915","","Mozilla/5.0 (X11; CrOS x86_64 14092.77.0) AppleWebKit/537.36 (KHTML, like Gecko) Chrome/93.0.4577.107 Safari/537.36","WebKit","Chrome","93.0.4577.107","ChromeOS","14092.77.0","https://hz8g1ckzuq.cognition.run/","en-US,en;q=0.9","g83omlelhbdhjro","38","[""White""]","No","Female","1741752.599999994","null","","<p></p>","null","choice","cdt","attraction_2","2","televisions","null","null","null","null","null","null","1","","","","","","","","","",""
"","","","","","choice_trial","survey-html-form","141","1596443","0.0-5.0-1.28","217","1","2025-04-14 16:23:51","bb671e3ae32f654b8954ea4c4635f915","","Mozilla/5.0 (X11; CrOS x86_64 14092.77.0) AppleWebKit/537.36 (KHTML, like Gecko) Chrome/93.0.4577.107 Safari/537.36","WebKit","Chrome","93.0.4577.107","ChromeOS","14092.77.0","https://hz8g1ckzuq.cognition.run/","en-US,en;q=0.9","g83omlelhbdhjro","38","[""White""]","No","Female","1741752.599999994","10583","","","{""product_choice"":""C""}","choice","cdt","attraction_2","2","televisions","null","null","null","null","null","null","1","50","60","40","60","50","60","Screen size","Average lifespan","",""
"","","","","","choice_trial_setup","html-keyboard-response","142","1596761","0.0-5.0-0.29","217","1","2025-04-14 16:23:51","bb671e3ae32f654b8954ea4c4635f915","","Mozilla/5.0 (X11; CrOS x86_64 14092.77.0) AppleWebKit/537.36 (KHTML, like Gecko) Chrome/93.0.4577.107 Safari/537.36","WebKit","Chrome","93.0.4577.107","ChromeOS","14092.77.0","https://hz8g1ckzuq.cognition.run/","en-US,en;q=0.9","g83omlelhbdhjro","38","[""White""]","No","Female","1741752.599999994","null","","<p></p>","null","choice","ctd","repulsion_2","2","microwave ovens","null","null","null","null","null","null","2","","","","","","","","","",""
"","","","","","choice_trial","survey-html-form","143","1604955","0.0-5.0-1.29","217","1","2025-04-14 16:23:51","bb671e3ae32f654b8954ea4c4635f915","","Mozilla/5.0 (X11; CrOS x86_64 14092.77.0) AppleWebKit/537.36 (KHTML, like Gecko) Chrome/93.0.4577.107 Safari/537.36","WebKit","Chrome","93.0.4577.107","ChromeOS","14092.77.0","https://hz8g1ckzuq.cognition.run/","en-US,en;q=0.9","g83omlelhbdhjro","38","[""White""]","No","Female","1741752.599999994","8176","","","{""product_choice"":""B""}","choice","ctd","repulsion_2","2","microwave ovens","null","null","null","null","null","null","2","30","40","20","100","90","100","Warranty","Cooking power","",""
"","","","","","choice_trial_setup","html-keyboard-response","144","1605274","0.0-5.0-0.30","217","1","2025-04-14 16:23:51","bb671e3ae32f654b8954ea4c4635f915","","Mozilla/5.0 (X11; CrOS x86_64 14092.77.0) AppleWebKit/537.36 (KHTML, like Gecko) Chrome/93.0.4577.107 Safari/537.36","WebKit","Chrome","93.0.4577.107","ChromeOS","14092.77.0","https://hz8g1ckzuq.cognition.run/","en-US,en;q=0.9","g83omlelhbdhjro","38","[""White""]","No","Female","1741752.599999994","null","","<p></p>","null","choice","ctd","repulsion_1","1","microwave ovens","null","null","null","null","null","null","1","","","","","","","","","",""
"","","","","","choice_trial","survey-html-form","145","1610474","0.0-5.0-1.30","217","1","2025-04-14 16:23:51","bb671e3ae32f654b8954ea4c4635f915","","Mozilla/5.0 (X11; CrOS x86_64 14092.77.0) AppleWebKit/537.36 (KHTML, like Gecko) Chrome/93.0.4577.107 Safari/537.36","WebKit","Chrome","93.0.4577.107","ChromeOS","14092.77.0","https://hz8g1ckzuq.cognition.run/","en-US,en;q=0.9","g83omlelhbdhjro","38","[""White""]","No","Female","1741752.599999994","5181","","","{""product_choice"":""A""}","choice","ctd","repulsion_1","1","microwave ovens","null","null","null","null","null","null","1","100","90","100","30","40","25","Warranty","Cooking power","",""
"","","","","","choice_trial_setup","html-keyboard-response","146","1610798","0.0-5.0-0.31","217","1","2025-04-14 16:23:51","bb671e3ae32f654b8954ea4c4635f915","","Mozilla/5.0 (X11; CrOS x86_64 14092.77.0) AppleWebKit/537.36 (KHTML, like Gecko) Chrome/93.0.4577.107 Safari/537.36","WebKit","Chrome","93.0.4577.107","ChromeOS","14092.77.0","https://hz8g1ckzuq.cognition.run/","en-US,en;q=0.9","g83omlelhbdhjro","38","[""White""]","No","Female","1741752.599999994","null","","<p></p>","null","choice","dtc","attraction_1","2","washing machines","null","null","null","null","null","null","2","","","","","","","","","",""
"","","","","","choice_trial","survey-html-form","147","1615050","0.0-5.0-1.31","217","1","2025-04-14 16:23:51","bb671e3ae32f654b8954ea4c4635f915","","Mozilla/5.0 (X11; CrOS x86_64 14092.77.0) AppleWebKit/537.36 (KHTML, like Gecko) Chrome/93.0.4577.107 Safari/537.36","WebKit","Chrome","93.0.4577.107","ChromeOS","14092.77.0","https://hz8g1ckzuq.cognition.run/","en-US,en;q=0.9","g83omlelhbdhjro","38","[""White""]","No","Female","1741752.599999994","4233","","","{""product_choice"":""B""}","choice","dtc","attraction_1","2","washing machines","null","null","null","null","null","null","2","50","60","45","60","50","60","Average lifespan","Energy savings","",""
"","","","","","choice_trial_setup","html-keyboard-response","148","1615367","0.0-5.0-0.32","217","1","2025-04-14 16:23:51","bb671e3ae32f654b8954ea4c4635f915","","Mozilla/5.0 (X11; CrOS x86_64 14092.77.0) AppleWebKit/537.36 (KHTML, like Gecko) Chrome/93.0.4577.107 Safari/537.36","WebKit","Chrome","93.0.4577.107","ChromeOS","14092.77.0","https://hz8g1ckzuq.cognition.run/","en-US,en;q=0.9","g83omlelhbdhjro","38","[""White""]","No","Female","1741752.599999994","null","","<p></p>","null","choice","dtc","repulsion_2","1","microwave ovens","null","null","null","null","null","null","1","","","","","","","","","",""
"","","","","","choice_trial","survey-html-form","149","1619772","0.0-5.0-1.32","217","1","2025-04-14 16:23:51","bb671e3ae32f654b8954ea4c4635f915","","Mozilla/5.0 (X11; CrOS x86_64 14092.77.0) AppleWebKit/537.36 (KHTML, like Gecko) Chrome/93.0.4577.107 Safari/537.36","WebKit","Chrome","93.0.4577.107","ChromeOS","14092.77.0","https://hz8g1ckzuq.cognition.run/","en-US,en;q=0.9","g83omlelhbdhjro","38","[""White""]","No","Female","1741752.599999994","4384","","","{""product_choice"":""C""}","choice","dtc","repulsion_2","1","microwave ovens","null","null","null","null","null","null","1","100","90","100","30","40","20","Warranty","Cooking power","",""
"","","","","","choice_trial_setup","html-keyboard-response","150","1620094","0.0-5.0-0.33","217","1","2025-04-14 16:23:51","bb671e3ae32f654b8954ea4c4635f915","","Mozilla/5.0 (X11; CrOS x86_64 14092.77.0) AppleWebKit/537.36 (KHTML, like Gecko) Chrome/93.0.4577.107 Safari/537.36","WebKit","Chrome","93.0.4577.107","ChromeOS","14092.77.0","https://hz8g1ckzuq.cognition.run/","en-US,en;q=0.9","g83omlelhbdhjro","38","[""White""]","No","Female","1741752.599999994","null","","<p></p>","null","choice","ctd","repulsion_1","1","laptops","null","null","null","null","null","null","2","","","","","","","","","",""
"","","","","","choice_trial","survey-html-form","151","1625363","0.0-5.0-1.33","217","1","2025-04-14 16:23:51","bb671e3ae32f654b8954ea4c4635f915","","Mozilla/5.0 (X11; CrOS x86_64 14092.77.0) AppleWebKit/537.36 (KHTML, like Gecko) Chrome/93.0.4577.107 Safari/537.36","WebKit","Chrome","93.0.4577.107","ChromeOS","14092.77.0","https://hz8g1ckzuq.cognition.run/","en-US,en;q=0.9","g83omlelhbdhjro","38","[""White""]","No","Female","1741752.599999994","5248","","","{""product_choice"":""A""}","choice","ctd","repulsion_1","1","laptops","null","null","null","null","null","null","2","100","90","100","30","40","25","Processing speed","Memory (RAM)","",""
"","","","","","choice_trial_setup","html-keyboard-response","152","1625682","0.0-5.0-0.34","217","1","2025-04-14 16:23:51","bb671e3ae32f654b8954ea4c4635f915","","Mozilla/5.0 (X11; CrOS x86_64 14092.77.0) AppleWebKit/537.36 (KHTML, like Gecko) Chrome/93.0.4577.107 Safari/537.36","WebKit","Chrome","93.0.4577.107","ChromeOS","14092.77.0","https://hz8g1ckzuq.cognition.run/","en-US,en;q=0.9","g83omlelhbdhjro","38","[""White""]","No","Female","1741752.599999994","null","","<p></p>","null","choice","tdc","repulsion_1","1","washing machines","null","null","null","null","null","null","2","","","","","","","","","",""
"","","","","","choice_trial","survey-html-form","153","1631603","0.0-5.0-1.34","217","1","2025-04-14 16:23:51","bb671e3ae32f654b8954ea4c4635f915","","Mozilla/5.0 (X11; CrOS x86_64 14092.77.0) AppleWebKit/537.36 (KHTML, like Gecko) Chrome/93.0.4577.107 Safari/537.36","WebKit","Chrome","93.0.4577.107","ChromeOS","14092.77.0","https://hz8g1ckzuq.cognition.run/","en-US,en;q=0.9","g83omlelhbdhjro","38","[""White""]","No","Female","1741752.599999994","5901","","","{""product_choice"":""C""}","choice","tdc","repulsion_1","1","washing machines","null","null","null","null","null","null","2","100","90","100","30","40","25","Average lifespan","Energy savings","",""
