"success","timeout","failed_images","failed_audio","failed_video","screen_id","trial_type","trial_index","time_elapsed","internal_node_id","run_id","condition","recorded_at","source_code_version","ip","user_agent","device","browser","browser_version","platform","platform_version","referer","accept_language","ppt_id","age","race","ethnicity","gender","exp_duration","rt","view_history","stimulus","response","phase","order","effect","t_high","category","d1_best","d2_best","d1_worst1","d2_worst1","d1_worst2","d2_worst2","first_dim","d1_t","d1_c","d1_d","d2_t","d2_c","d2_d","d1_name","d2_name","strategy_response","question_order"
"true","false","[]","[]","[]","img preload","preload","0","1110","0.0-0.0","26","1","2025-04-11 13:55:26","bb671e3ae32f654b8954ea4c4635f915","","Mozilla/5.0 (X11; CrOS x86_64 14541.0.0) AppleWebKit/537.36 (KHTML, like Gecko) Chrome/134.0.0.0 Safari/537.36","WebKit","Chrome","134.0.0.0","ChromeOS","14541.0.0","https://hz8g1ckzuq.cognition.run/","en-US,en;q=0.9","4n2vgwk325jl80y","45","[""White""]","No","Female","1192886.3000000007","","","","","","","","","","","","","","","","","","","","","","","","","",""
"true","","","","","","fullscreen","1","4644","0.0-1.0","26","1","2025-04-11 13:55:26","bb671e3ae32f654b8954ea4c4635f915","","Mozilla/5.0 (X11; CrOS x86_64 14541.0.0) AppleWebKit/537.36 (KHTML, like Gecko) Chrome/134.0.0.0 Safari/537.36","WebKit","Chrome","134.0.0.0","ChromeOS","14541.0.0","https://hz8g1ckzuq.cognition.run/","en-US,en;q=0.9","4n2vgwk325jl80y","45","[""White""]","No","Female","1192886.3000000007","2530","","","","","","","","","","","","","","","","","","","","","","","","",""
"","","","","","","instructions","2","42628","0.0-2.0","26","1","2025-04-11 13:55:26","bb671e3ae32f654b8954ea4c4635f915","","Mozilla/5.0 (X11; CrOS x86_64 14541.0.0) AppleWebKit/537.36 (KHTML, like Gecko) Chrome/134.0.0.0 Safari/537.36","WebKit","Chrome","134.0.0.0","ChromeOS","14541.0.0","https://hz8g1ckzuq.cognition.run/","en-US,en;q=0.9","4n2vgwk325jl80y","45","[""White""]","No","Female","1192886.3000000007","37983","[{""page_index"":0,""viewing_time"":2158},{""page_index"":1,""viewing_time"":2625},{""page_index"":2,""viewing_time"":2333},{""page_index"":3,""viewing_time"":3161},{""page_index"":4,""viewing_time"":3929},{""page_index"":5,""viewing_time"":2857},{""page_index"":6,""viewing_time"":4421},{""page_index"":7,""viewing_time"":7693},{""page_index"":8,""viewing_time"":4866},{""page_index"":9,""viewing_time"":3938}]","","","","","","","","","","","","","","","","","","","","","","","",""
"","","","","","rating_trial_setup","html-keyboard-response","3","42933","0.0-3.0-0.0","26","1","2025-04-11 13:55:26","bb671e3ae32f654b8954ea4c4635f915","","Mozilla/5.0 (X11; CrOS x86_64 14541.0.0) AppleWebKit/537.36 (KHTML, like Gecko) Chrome/134.0.0.0 Safari/537.36","WebKit","Chrome","134.0.0.0","ChromeOS","14541.0.0","https://hz8g1ckzuq.cognition.run/","en-US,en;q=0.9","4n2vgwk325jl80y","45","[""White""]","No","Female","1192886.3000000007","null","","<p></p>","null","rating","bww","catch","null","laptops","55","60","35","50","30","30","1","","","","","","","","","",""
"","","","","","rating_trial","survey-html-form","4","60125","0.0-3.0-1.0","26","1","2025-04-11 13:55:26","bb671e3ae32f654b8954ea4c4635f915","","Mozilla/5.0 (X11; CrOS x86_64 14541.0.0) AppleWebKit/537.36 (KHTML, like Gecko) Chrome/134.0.0.0 Safari/537.36","WebKit","Chrome","134.0.0.0","ChromeOS","14541.0.0","https://hz8g1ckzuq.cognition.run/","en-US,en;q=0.9","4n2vgwk325jl80y","45","[""White""]","No","Female","1192886.3000000007","17184","","","{""price_1"":""120"",""price_2"":""110"",""price_3"":""100""}","rating","bww","catch","null","laptops","55","60","35","50","30","30","1","null","null","null","null","null","null","Processing speed","Memory (RAM)","",""
"","","","","","rating_trial_setup","html-keyboard-response","5","60428","0.0-3.0-0.1","26","1","2025-04-11 13:55:26","bb671e3ae32f654b8954ea4c4635f915","","Mozilla/5.0 (X11; CrOS x86_64 14541.0.0) AppleWebKit/537.36 (KHTML, like Gecko) Chrome/134.0.0.0 Safari/537.36","WebKit","Chrome","134.0.0.0","ChromeOS","14541.0.0","https://hz8g1ckzuq.cognition.run/","en-US,en;q=0.9","4n2vgwk325jl80y","45","[""White""]","No","Female","1192886.3000000007","null","","<p></p>","null","rating","dct","repulsion_1","1","washing machines","null","null","null","null","null","null","2","","","","","","","","","",""
"","","","","","rating_trial","survey-html-form","6","91506","0.0-3.0-1.1","26","1","2025-04-11 13:55:26","bb671e3ae32f654b8954ea4c4635f915","","Mozilla/5.0 (X11; CrOS x86_64 14541.0.0) AppleWebKit/537.36 (KHTML, like Gecko) Chrome/134.0.0.0 Safari/537.36","WebKit","Chrome","134.0.0.0","ChromeOS","14541.0.0","https://hz8g1ckzuq.cognition.run/","en-US,en;q=0.9","4n2vgwk325jl80y","45","[""White""]","No","Female","1192886.3000000007","31076","","","{""price_1"":""750"",""price_2"":""800"",""price_3"":""750""}","rating","dct","repulsion_1","1","washing machines","null","null","null","null","null","null","2","100","90","100","30","40","25","Average lifespan","Energy savings","",""
"","","","","","rating_trial_setup","html-keyboard-response","7","91809","0.0-3.0-0.2","26","1","2025-04-11 13:55:26","bb671e3ae32f654b8954ea4c4635f915","","Mozilla/5.0 (X11; CrOS x86_64 14541.0.0) AppleWebKit/537.36 (KHTML, like Gecko) Chrome/134.0.0.0 Safari/537.36","WebKit","Chrome","134.0.0.0","ChromeOS","14541.0.0","https://hz8g1ckzuq.cognition.run/","en-US,en;q=0.9","4n2vgwk325jl80y","45","[""White""]","No","Female","1192886.3000000007","null","","<p></p>","null","rating","wbw","catch","null","washing machines","85","70","20","15","30","15","2","","","","","","","","","",""
"","","","","","rating_trial","survey-html-form","8","114861","0.0-3.0-1.2","26","1","2025-04-11 13:55:26","bb671e3ae32f654b8954ea4c4635f915","","Mozilla/5.0 (X11; CrOS x86_64 14541.0.0) AppleWebKit/537.36 (KHTML, like Gecko) Chrome/134.0.0.0 Safari/537.36","WebKit","Chrome","134.0.0.0","ChromeOS","14541.0.0","https://hz8g1ckzuq.cognition.run/","en-US,en;q=0.9","4n2vgwk325jl80y","45","[""White""]","No","Female","1192886.3000000007","23050","","","{""price_1"":""400"",""price_2"":""800"",""price_3"":""450""}","rating","wbw","catch","null","washing machines","85","70","20","15","30","15","2","null","null","null","null","null","null","Average lifespan","Energy savings","",""
"","","","","","rating_trial_setup","html-keyboard-response","9","115169","0.0-3.0-0.3","26","1","2025-04-11 13:55:26","bb671e3ae32f654b8954ea4c4635f915","","Mozilla/5.0 (X11; CrOS x86_64 14541.0.0) AppleWebKit/537.36 (KHTML, like Gecko) Chrome/134.0.0.0 Safari/537.36","WebKit","Chrome","134.0.0.0","ChromeOS","14541.0.0","https://hz8g1ckzuq.cognition.run/","en-US,en;q=0.9","4n2vgwk325jl80y","45","[""White""]","No","Female","1192886.3000000007","null","","<p></p>","null","rating","cdt","attraction_2","1","microwave ovens","null","null","null","null","null","null","2","","","","","","","","","",""
"","","","","","rating_trial","survey-html-form","10","130887","0.0-3.0-1.3","26","1","2025-04-11 13:55:26","bb671e3ae32f654b8954ea4c4635f915","","Mozilla/5.0 (X11; CrOS x86_64 14541.0.0) AppleWebKit/537.36 (KHTML, like Gecko) Chrome/134.0.0.0 Safari/537.36","WebKit","Chrome","134.0.0.0","ChromeOS","14541.0.0","https://hz8g1ckzuq.cognition.run/","en-US,en;q=0.9","4n2vgwk325jl80y","45","[""White""]","No","Female","1192886.3000000007","15715","","","{""price_1"":""100"",""price_2"":""120"",""price_3"":""110""}","rating","cdt","attraction_2","1","microwave ovens","null","null","null","null","null","null","2","60","50","60","50","60","40","Warranty","Cooking power","",""
"","","","","","rating_trial_setup","html-keyboard-response","11","131189","0.0-3.0-0.4","26","1","2025-04-11 13:55:26","bb671e3ae32f654b8954ea4c4635f915","","Mozilla/5.0 (X11; CrOS x86_64 14541.0.0) AppleWebKit/537.36 (KHTML, like Gecko) Chrome/134.0.0.0 Safari/537.36","WebKit","Chrome","134.0.0.0","ChromeOS","14541.0.0","https://hz8g1ckzuq.cognition.run/","en-US,en;q=0.9","4n2vgwk325jl80y","45","[""White""]","No","Female","1192886.3000000007","null","","<p></p>","null","rating","dtc","repulsion_2","1","laptops","null","null","null","null","null","null","2","","","","","","","","","",""
"","","","","","rating_trial","survey-html-form","12","146114","0.0-3.0-1.4","26","1","2025-04-11 13:55:26","bb671e3ae32f654b8954ea4c4635f915","","Mozilla/5.0 (X11; CrOS x86_64 14541.0.0) AppleWebKit/537.36 (KHTML, like Gecko) Chrome/134.0.0.0 Safari/537.36","WebKit","Chrome","134.0.0.0","ChromeOS","14541.0.0","https://hz8g1ckzuq.cognition.run/","en-US,en;q=0.9","4n2vgwk325jl80y","45","[""White""]","No","Female","1192886.3000000007","14923","","","{""price_1"":""110"",""price_2"":""120"",""price_3"":""100""}","rating","dtc","repulsion_2","1","laptops","null","null","null","null","null","null","2","100","90","100","30","40","20","Processing speed","Memory (RAM)","",""
"","","","","","rating_trial_setup","html-keyboard-response","13","146417","0.0-3.0-0.5","26","1","2025-04-11 13:55:26","bb671e3ae32f654b8954ea4c4635f915","","Mozilla/5.0 (X11; CrOS x86_64 14541.0.0) AppleWebKit/537.36 (KHTML, like Gecko) Chrome/134.0.0.0 Safari/537.36","WebKit","Chrome","134.0.0.0","ChromeOS","14541.0.0","https://hz8g1ckzuq.cognition.run/","en-US,en;q=0.9","4n2vgwk325jl80y","45","[""White""]","No","Female","1192886.3000000007","null","","<p></p>","null","rating","dct","repulsion_2","2","televisions","null","null","null","null","null","null","2","","","","","","","","","",""
"","","","","","rating_trial","survey-html-form","14","167590","0.0-3.0-1.5","26","1","2025-04-11 13:55:26","bb671e3ae32f654b8954ea4c4635f915","","Mozilla/5.0 (X11; CrOS x86_64 14541.0.0) AppleWebKit/537.36 (KHTML, like Gecko) Chrome/134.0.0.0 Safari/537.36","WebKit","Chrome","134.0.0.0","ChromeOS","14541.0.0","https://hz8g1ckzuq.cognition.run/","en-US,en;q=0.9","4n2vgwk325jl80y","45","[""White""]","No","Female","1192886.3000000007","21171","","","{""price_1"":""290"",""price_2"":""290"",""price_3"":""300""}","rating","dct","repulsion_2","2","televisions","null","null","null","null","null","null","2","30","40","20","100","90","100","Screen size","Average lifespan","",""
"","","","","","rating_trial_setup","html-keyboard-response","15","167893","0.0-3.0-0.6","26","1","2025-04-11 13:55:26","bb671e3ae32f654b8954ea4c4635f915","","Mozilla/5.0 (X11; CrOS x86_64 14541.0.0) AppleWebKit/537.36 (KHTML, like Gecko) Chrome/134.0.0.0 Safari/537.36","WebKit","Chrome","134.0.0.0","ChromeOS","14541.0.0","https://hz8g1ckzuq.cognition.run/","en-US,en;q=0.9","4n2vgwk325jl80y","45","[""White""]","No","Female","1192886.3000000007","null","","<p></p>","null","rating","wwb","catch","null","washing machines","50","90","50","30","40","45","2","","","","","","","","","",""
"","","","","","rating_trial","survey-html-form","16","187301","0.0-3.0-1.6","26","1","2025-04-11 13:55:26","bb671e3ae32f654b8954ea4c4635f915","","Mozilla/5.0 (X11; CrOS x86_64 14541.0.0) AppleWebKit/537.36 (KHTML, like Gecko) Chrome/134.0.0.0 Safari/537.36","WebKit","Chrome","134.0.0.0","ChromeOS","14541.0.0","https://hz8g1ckzuq.cognition.run/","en-US,en;q=0.9","4n2vgwk325jl80y","45","[""White""]","No","Female","1192886.3000000007","19406","","","{""price_1"":""720"",""price_2"":""745"",""price_3"":""750""}","rating","wwb","catch","null","washing machines","50","90","50","30","40","45","2","null","null","null","null","null","null","Average lifespan","Energy savings","",""
"","","","","","rating_trial_setup","html-keyboard-response","17","187604","0.0-3.0-0.7","26","1","2025-04-11 13:55:26","bb671e3ae32f654b8954ea4c4635f915","","Mozilla/5.0 (X11; CrOS x86_64 14541.0.0) AppleWebKit/537.36 (KHTML, like Gecko) Chrome/134.0.0.0 Safari/537.36","WebKit","Chrome","134.0.0.0","ChromeOS","14541.0.0","https://hz8g1ckzuq.cognition.run/","en-US,en;q=0.9","4n2vgwk325jl80y","45","[""White""]","No","Female","1192886.3000000007","null","","<p></p>","null","rating","dct","attraction_1","1","laptops","null","null","null","null","null","null","1","","","","","","","","","",""
"","","","","","rating_trial","survey-html-form","18","201974","0.0-3.0-1.7","26","1","2025-04-11 13:55:26","bb671e3ae32f654b8954ea4c4635f915","","Mozilla/5.0 (X11; CrOS x86_64 14541.0.0) AppleWebKit/537.36 (KHTML, like Gecko) Chrome/134.0.0.0 Safari/537.36","WebKit","Chrome","134.0.0.0","ChromeOS","14541.0.0","https://hz8g1ckzuq.cognition.run/","en-US,en;q=0.9","4n2vgwk325jl80y","45","[""White""]","No","Female","1192886.3000000007","14368","","","{""price_1"":""90"",""price_2"":""90"",""price_3"":""90""}","rating","dct","attraction_1","1","laptops","null","null","null","null","null","null","1","60","50","60","50","60","45","Processing speed","Memory (RAM)","",""
"","","","","","rating_trial_setup","html-keyboard-response","19","202277","0.0-3.0-0.8","26","1","2025-04-11 13:55:26","bb671e3ae32f654b8954ea4c4635f915","","Mozilla/5.0 (X11; CrOS x86_64 14541.0.0) AppleWebKit/537.36 (KHTML, like Gecko) Chrome/134.0.0.0 Safari/537.36","WebKit","Chrome","134.0.0.0","ChromeOS","14541.0.0","https://hz8g1ckzuq.cognition.run/","en-US,en;q=0.9","4n2vgwk325jl80y","45","[""White""]","No","Female","1192886.3000000007","null","","<p></p>","null","rating","wbw","catch","null","televisions","95","60","45","20","15","5","1","","","","","","","","","",""
"","","","","","rating_trial","survey-html-form","20","216809","0.0-3.0-1.8","26","1","2025-04-11 13:55:26","bb671e3ae32f654b8954ea4c4635f915","","Mozilla/5.0 (X11; CrOS x86_64 14541.0.0) AppleWebKit/537.36 (KHTML, like Gecko) Chrome/134.0.0.0 Safari/537.36","WebKit","Chrome","134.0.0.0","ChromeOS","14541.0.0","https://hz8g1ckzuq.cognition.run/","en-US,en;q=0.9","4n2vgwk325jl80y","45","[""White""]","No","Female","1192886.3000000007","14529","","","{""price_1"":""300"",""price_2"":""500"",""price_3"":""250""}","rating","wbw","catch","null","televisions","95","60","45","20","15","5","1","null","null","null","null","null","null","Screen size","Average lifespan","",""
"","","","","","rating_trial_setup","html-keyboard-response","21","217112","0.0-3.0-0.9","26","1","2025-04-11 13:55:26","bb671e3ae32f654b8954ea4c4635f915","","Mozilla/5.0 (X11; CrOS x86_64 14541.0.0) AppleWebKit/537.36 (KHTML, like Gecko) Chrome/134.0.0.0 Safari/537.36","WebKit","Chrome","134.0.0.0","ChromeOS","14541.0.0","https://hz8g1ckzuq.cognition.run/","en-US,en;q=0.9","4n2vgwk325jl80y","45","[""White""]","No","Female","1192886.3000000007","null","","<p></p>","null","rating","ctd","attraction_2","2","microwave ovens","null","null","null","null","null","null","1","","","","","","","","","",""
"","","","","","rating_trial","survey-html-form","22","233967","0.0-3.0-1.9","26","1","2025-04-11 13:55:26","bb671e3ae32f654b8954ea4c4635f915","","Mozilla/5.0 (X11; CrOS x86_64 14541.0.0) AppleWebKit/537.36 (KHTML, like Gecko) Chrome/134.0.0.0 Safari/537.36","WebKit","Chrome","134.0.0.0","ChromeOS","14541.0.0","https://hz8g1ckzuq.cognition.run/","en-US,en;q=0.9","4n2vgwk325jl80y","45","[""White""]","No","Female","1192886.3000000007","16852","","","{""price_1"":""120"",""price_2"":""100"",""price_3"":""100""}","rating","ctd","attraction_2","2","microwave ovens","null","null","null","null","null","null","1","50","60","40","60","50","60","Warranty","Cooking power","",""
"","","","","","rating_trial_setup","html-keyboard-response","23","234276","0.0-3.0-0.10","26","1","2025-04-11 13:55:26","bb671e3ae32f654b8954ea4c4635f915","","Mozilla/5.0 (X11; CrOS x86_64 14541.0.0) AppleWebKit/537.36 (KHTML, like Gecko) Chrome/134.0.0.0 Safari/537.36","WebKit","Chrome","134.0.0.0","ChromeOS","14541.0.0","https://hz8g1ckzuq.cognition.run/","en-US,en;q=0.9","4n2vgwk325jl80y","45","[""White""]","No","Female","1192886.3000000007","null","","<p></p>","null","rating","ctd","attraction_2","1","televisions","null","null","null","null","null","null","2","","","","","","","","","",""
"","","","","","rating_trial","survey-html-form","24","246025","0.0-3.0-1.10","26","1","2025-04-11 13:55:26","bb671e3ae32f654b8954ea4c4635f915","","Mozilla/5.0 (X11; CrOS x86_64 14541.0.0) AppleWebKit/537.36 (KHTML, like Gecko) Chrome/134.0.0.0 Safari/537.36","WebKit","Chrome","134.0.0.0","ChromeOS","14541.0.0","https://hz8g1ckzuq.cognition.run/","en-US,en;q=0.9","4n2vgwk325jl80y","45","[""White""]","No","Female","1192886.3000000007","11744","","","{""price_1"":""500"",""price_2"":""500"",""price_3"":""500""}","rating","ctd","attraction_2","1","televisions","null","null","null","null","null","null","2","60","50","60","50","60","40","Screen size","Average lifespan","",""
"","","","","","rating_trial_setup","html-keyboard-response","25","246328","0.0-3.0-0.11","26","1","2025-04-11 13:55:26","bb671e3ae32f654b8954ea4c4635f915","","Mozilla/5.0 (X11; CrOS x86_64 14541.0.0) AppleWebKit/537.36 (KHTML, like Gecko) Chrome/134.0.0.0 Safari/537.36","WebKit","Chrome","134.0.0.0","ChromeOS","14541.0.0","https://hz8g1ckzuq.cognition.run/","en-US,en;q=0.9","4n2vgwk325jl80y","45","[""White""]","No","Female","1192886.3000000007","null","","<p></p>","null","rating","tcd","attraction_2","2","washing machines","null","null","null","null","null","null","2","","","","","","","","","",""
"","","","","","rating_trial","survey-html-form","26","265119","0.0-3.0-1.11","26","1","2025-04-11 13:55:26","bb671e3ae32f654b8954ea4c4635f915","","Mozilla/5.0 (X11; CrOS x86_64 14541.0.0) AppleWebKit/537.36 (KHTML, like Gecko) Chrome/134.0.0.0 Safari/537.36","WebKit","Chrome","134.0.0.0","ChromeOS","14541.0.0","https://hz8g1ckzuq.cognition.run/","en-US,en;q=0.9","4n2vgwk325jl80y","45","[""White""]","No","Female","1192886.3000000007","18789","","","{""price_1"":""700"",""price_2"":""700"",""price_3"":""675""}","rating","tcd","attraction_2","2","washing machines","null","null","null","null","null","null","2","50","60","40","60","50","60","Average lifespan","Energy savings","",""
"","","","","","rating_trial_setup","html-keyboard-response","27","265423","0.0-3.0-0.12","26","1","2025-04-11 13:55:26","bb671e3ae32f654b8954ea4c4635f915","","Mozilla/5.0 (X11; CrOS x86_64 14541.0.0) AppleWebKit/537.36 (KHTML, like Gecko) Chrome/134.0.0.0 Safari/537.36","WebKit","Chrome","134.0.0.0","ChromeOS","14541.0.0","https://hz8g1ckzuq.cognition.run/","en-US,en;q=0.9","4n2vgwk325jl80y","45","[""White""]","No","Female","1192886.3000000007","null","","<p></p>","null","rating","ctd","attraction_2","2","laptops","null","null","null","null","null","null","1","","","","","","","","","",""
"","","","","","rating_trial","survey-html-form","28","284742","0.0-3.0-1.12","26","1","2025-04-11 13:55:26","bb671e3ae32f654b8954ea4c4635f915","","Mozilla/5.0 (X11; CrOS x86_64 14541.0.0) AppleWebKit/537.36 (KHTML, like Gecko) Chrome/134.0.0.0 Safari/537.36","WebKit","Chrome","134.0.0.0","ChromeOS","14541.0.0","https://hz8g1ckzuq.cognition.run/","en-US,en;q=0.9","4n2vgwk325jl80y","45","[""White""]","No","Female","1192886.3000000007","19317","","","{""price_1"":""90"",""price_2"":""90"",""price_3"":""90""}","rating","ctd","attraction_2","2","laptops","null","null","null","null","null","null","1","50","60","40","60","50","60","Processing speed","Memory (RAM)","",""
"","","","","","rating_trial_setup","html-keyboard-response","29","285045","0.0-3.0-0.13","26","1","2025-04-11 13:55:26","bb671e3ae32f654b8954ea4c4635f915","","Mozilla/5.0 (X11; CrOS x86_64 14541.0.0) AppleWebKit/537.36 (KHTML, like Gecko) Chrome/134.0.0.0 Safari/537.36","WebKit","Chrome","134.0.0.0","ChromeOS","14541.0.0","https://hz8g1ckzuq.cognition.run/","en-US,en;q=0.9","4n2vgwk325jl80y","45","[""White""]","No","Female","1192886.3000000007","null","","<p></p>","null","rating","tdc","repulsion_1","1","televisions","null","null","null","null","null","null","1","","","","","","","","","",""
"","","","","","rating_trial","survey-html-form","30","302969","0.0-3.0-1.13","26","1","2025-04-11 13:55:26","bb671e3ae32f654b8954ea4c4635f915","","Mozilla/5.0 (X11; CrOS x86_64 14541.0.0) AppleWebKit/537.36 (KHTML, like Gecko) Chrome/134.0.0.0 Safari/537.36","WebKit","Chrome","134.0.0.0","ChromeOS","14541.0.0","https://hz8g1ckzuq.cognition.run/","en-US,en;q=0.9","4n2vgwk325jl80y","45","[""White""]","No","Female","1192886.3000000007","17921","","","{""price_1"":""400"",""price_2"":""375"",""price_3"":""400""}","rating","tdc","repulsion_1","1","televisions","null","null","null","null","null","null","1","100","90","100","30","40","25","Screen size","Average lifespan","",""
"","","","","","rating_trial_setup","html-keyboard-response","31","303273","0.0-3.0-0.14","26","1","2025-04-11 13:55:26","bb671e3ae32f654b8954ea4c4635f915","","Mozilla/5.0 (X11; CrOS x86_64 14541.0.0) AppleWebKit/537.36 (KHTML, like Gecko) Chrome/134.0.0.0 Safari/537.36","WebKit","Chrome","134.0.0.0","ChromeOS","14541.0.0","https://hz8g1ckzuq.cognition.run/","en-US,en;q=0.9","4n2vgwk325jl80y","45","[""White""]","No","Female","1192886.3000000007","null","","<p></p>","null","rating","ctd","repulsion_1","2","microwave ovens","null","null","null","null","null","null","2","","","","","","","","","",""
"","","","","","rating_trial","survey-html-form","32","320619","0.0-3.0-1.14","26","1","2025-04-11 13:55:26","bb671e3ae32f654b8954ea4c4635f915","","Mozilla/5.0 (X11; CrOS x86_64 14541.0.0) AppleWebKit/537.36 (KHTML, like Gecko) Chrome/134.0.0.0 Safari/537.36","WebKit","Chrome","134.0.0.0","ChromeOS","14541.0.0","https://hz8g1ckzuq.cognition.run/","en-US,en;q=0.9","4n2vgwk325jl80y","45","[""White""]","No","Female","1192886.3000000007","17344","","","{""price_1"":""120"",""price_2"":""120"",""price_3"":""100""}","rating","ctd","repulsion_1","2","microwave ovens","null","null","null","null","null","null","2","30","40","25","100","90","100","Warranty","Cooking power","",""
"","","","","","rating_trial_setup","html-keyboard-response","33","320923","0.0-3.0-0.15","26","1","2025-04-11 13:55:26","bb671e3ae32f654b8954ea4c4635f915","","Mozilla/5.0 (X11; CrOS x86_64 14541.0.0) AppleWebKit/537.36 (KHTML, like Gecko) Chrome/134.0.0.0 Safari/537.36","WebKit","Chrome","134.0.0.0","ChromeOS","14541.0.0","https://hz8g1ckzuq.cognition.run/","en-US,en;q=0.9","4n2vgwk325jl80y","45","[""White""]","No","Female","1192886.3000000007","null","","<p></p>","null","rating","dct","repulsion_1","2","laptops","null","null","null","null","null","null","2","","","","","","","","","",""
"","","","","","rating_trial","survey-html-form","34","344706","0.0-3.0-1.15","26","1","2025-04-11 13:55:26","bb671e3ae32f654b8954ea4c4635f915","","Mozilla/5.0 (X11; CrOS x86_64 14541.0.0) AppleWebKit/537.36 (KHTML, like Gecko) Chrome/134.0.0.0 Safari/537.36","WebKit","Chrome","134.0.0.0","ChromeOS","14541.0.0","https://hz8g1ckzuq.cognition.run/","en-US,en;q=0.9","4n2vgwk325jl80y","45","[""White""]","No","Female","1192886.3000000007","23779","","","{""price_1"":""100"",""price_2"":""90"",""price_3"":""110""}","rating","dct","repulsion_1","2","laptops","null","null","null","null","null","null","2","30","40","25","100","90","100","Processing speed","Memory (RAM)","",""
"","","","","","rating_trial_setup","html-keyboard-response","35","345009","0.0-3.0-0.16","26","1","2025-04-11 13:55:26","bb671e3ae32f654b8954ea4c4635f915","","Mozilla/5.0 (X11; CrOS x86_64 14541.0.0) AppleWebKit/537.36 (KHTML, like Gecko) Chrome/134.0.0.0 Safari/537.36","WebKit","Chrome","134.0.0.0","ChromeOS","14541.0.0","https://hz8g1ckzuq.cognition.run/","en-US,en;q=0.9","4n2vgwk325jl80y","45","[""White""]","No","Female","1192886.3000000007","null","","<p></p>","null","rating","tcd","attraction_1","2","microwave ovens","null","null","null","null","null","null","1","","","","","","","","","",""
"","","","","","rating_trial","survey-html-form","36","361662","0.0-3.0-1.16","26","1","2025-04-11 13:55:26","bb671e3ae32f654b8954ea4c4635f915","","Mozilla/5.0 (X11; CrOS x86_64 14541.0.0) AppleWebKit/537.36 (KHTML, like Gecko) Chrome/134.0.0.0 Safari/537.36","WebKit","Chrome","134.0.0.0","ChromeOS","14541.0.0","https://hz8g1ckzuq.cognition.run/","en-US,en;q=0.9","4n2vgwk325jl80y","45","[""White""]","No","Female","1192886.3000000007","16650","","","{""price_1"":""100"",""price_2"":""100"",""price_3"":""95""}","rating","tcd","attraction_1","2","microwave ovens","null","null","null","null","null","null","1","50","60","45","60","50","60","Warranty","Cooking power","",""
"","","","","","rating_trial_setup","html-keyboard-response","37","361969","0.0-3.0-0.17","26","1","2025-04-11 13:55:26","bb671e3ae32f654b8954ea4c4635f915","","Mozilla/5.0 (X11; CrOS x86_64 14541.0.0) AppleWebKit/537.36 (KHTML, like Gecko) Chrome/134.0.0.0 Safari/537.36","WebKit","Chrome","134.0.0.0","ChromeOS","14541.0.0","https://hz8g1ckzuq.cognition.run/","en-US,en;q=0.9","4n2vgwk325jl80y","45","[""White""]","No","Female","1192886.3000000007","null","","<p></p>","null","rating","tcd","attraction_1","1","washing machines","null","null","null","null","null","null","2","","","","","","","","","",""
"","","","","","rating_trial","survey-html-form","38","375690","0.0-3.0-1.17","26","1","2025-04-11 13:55:26","bb671e3ae32f654b8954ea4c4635f915","","Mozilla/5.0 (X11; CrOS x86_64 14541.0.0) AppleWebKit/537.36 (KHTML, like Gecko) Chrome/134.0.0.0 Safari/537.36","WebKit","Chrome","134.0.0.0","ChromeOS","14541.0.0","https://hz8g1ckzuq.cognition.run/","en-US,en;q=0.9","4n2vgwk325jl80y","45","[""White""]","No","Female","1192886.3000000007","13717","","","{""price_1"":""400"",""price_2"":""400"",""price_3"":""400""}","rating","tcd","attraction_1","1","washing machines","null","null","null","null","null","null","2","60","50","60","50","60","45","Average lifespan","Energy savings","",""
"","","","","","rating_trial_setup","html-keyboard-response","39","375993","0.0-3.0-0.18","26","1","2025-04-11 13:55:26","bb671e3ae32f654b8954ea4c4635f915","","Mozilla/5.0 (X11; CrOS x86_64 14541.0.0) AppleWebKit/537.36 (KHTML, like Gecko) Chrome/134.0.0.0 Safari/537.36","WebKit","Chrome","134.0.0.0","ChromeOS","14541.0.0","https://hz8g1ckzuq.cognition.run/","en-US,en;q=0.9","4n2vgwk325jl80y","45","[""White""]","No","Female","1192886.3000000007","null","","<p></p>","null","rating","tdc","repulsion_2","2","laptops","null","null","null","null","null","null","1","","","","","","","","","",""
"","","","","","rating_trial","survey-html-form","40","389922","0.0-3.0-1.18","26","1","2025-04-11 13:55:26","bb671e3ae32f654b8954ea4c4635f915","","Mozilla/5.0 (X11; CrOS x86_64 14541.0.0) AppleWebKit/537.36 (KHTML, like Gecko) Chrome/134.0.0.0 Safari/537.36","WebKit","Chrome","134.0.0.0","ChromeOS","14541.0.0","https://hz8g1ckzuq.cognition.run/","en-US,en;q=0.9","4n2vgwk325jl80y","45","[""White""]","No","Female","1192886.3000000007","13926","","","{""price_1"":""120"",""price_2"":""110"",""price_3"":""110""}","rating","tdc","repulsion_2","2","laptops","null","null","null","null","null","null","1","30","40","20","100","90","100","Processing speed","Memory (RAM)","",""
"","","","","","rating_trial_setup","html-keyboard-response","41","390225","0.0-3.0-0.19","26","1","2025-04-11 13:55:26","bb671e3ae32f654b8954ea4c4635f915","","Mozilla/5.0 (X11; CrOS x86_64 14541.0.0) AppleWebKit/537.36 (KHTML, like Gecko) Chrome/134.0.0.0 Safari/537.36","WebKit","Chrome","134.0.0.0","ChromeOS","14541.0.0","https://hz8g1ckzuq.cognition.run/","en-US,en;q=0.9","4n2vgwk325jl80y","45","[""White""]","No","Female","1192886.3000000007","null","","<p></p>","null","rating","tdc","attraction_1","1","microwave ovens","null","null","null","null","null","null","2","","","","","","","","","",""
"","","","","","rating_trial","survey-html-form","42","403050","0.0-3.0-1.19","26","1","2025-04-11 13:55:26","bb671e3ae32f654b8954ea4c4635f915","","Mozilla/5.0 (X11; CrOS x86_64 14541.0.0) AppleWebKit/537.36 (KHTML, like Gecko) Chrome/134.0.0.0 Safari/537.36","WebKit","Chrome","134.0.0.0","ChromeOS","14541.0.0","https://hz8g1ckzuq.cognition.run/","en-US,en;q=0.9","4n2vgwk325jl80y","45","[""White""]","No","Female","1192886.3000000007","12822","","","{""price_1"":""120"",""price_2"":""120"",""price_3"":""120""}","rating","tdc","attraction_1","1","microwave ovens","null","null","null","null","null","null","2","60","50","60","50","60","45","Warranty","Cooking power","",""
"","","","","","rating_trial_setup","html-keyboard-response","43","403359","0.0-3.0-0.20","26","1","2025-04-11 13:55:26","bb671e3ae32f654b8954ea4c4635f915","","Mozilla/5.0 (X11; CrOS x86_64 14541.0.0) AppleWebKit/537.36 (KHTML, like Gecko) Chrome/134.0.0.0 Safari/537.36","WebKit","Chrome","134.0.0.0","ChromeOS","14541.0.0","https://hz8g1ckzuq.cognition.run/","en-US,en;q=0.9","4n2vgwk325jl80y","45","[""White""]","No","Female","1192886.3000000007","null","","<p></p>","null","rating","cdt","repulsion_2","2","microwave ovens","null","null","null","null","null","null","1","","","","","","","","","",""
"","","","","","rating_trial","survey-html-form","44","418471","0.0-3.0-1.20","26","1","2025-04-11 13:55:26","bb671e3ae32f654b8954ea4c4635f915","","Mozilla/5.0 (X11; CrOS x86_64 14541.0.0) AppleWebKit/537.36 (KHTML, like Gecko) Chrome/134.0.0.0 Safari/537.36","WebKit","Chrome","134.0.0.0","ChromeOS","14541.0.0","https://hz8g1ckzuq.cognition.run/","en-US,en;q=0.9","4n2vgwk325jl80y","45","[""White""]","No","Female","1192886.3000000007","15108","","","{""price_1"":""110"",""price_2"":""100"",""price_3"":""110""}","rating","cdt","repulsion_2","2","microwave ovens","null","null","null","null","null","null","1","30","40","20","100","90","100","Warranty","Cooking power","",""
"","","","","","rating_trial_setup","html-keyboard-response","45","418775","0.0-3.0-0.21","26","1","2025-04-11 13:55:26","bb671e3ae32f654b8954ea4c4635f915","","Mozilla/5.0 (X11; CrOS x86_64 14541.0.0) AppleWebKit/537.36 (KHTML, like Gecko) Chrome/134.0.0.0 Safari/537.36","WebKit","Chrome","134.0.0.0","ChromeOS","14541.0.0","https://hz8g1ckzuq.cognition.run/","en-US,en;q=0.9","4n2vgwk325jl80y","45","[""White""]","No","Female","1192886.3000000007","null","","<p></p>","null","rating","bww","catch","null","microwave ovens","65","90","25","10","10","10","2","","","","","","","","","",""
"","","","","","rating_trial","survey-html-form","46","434316","0.0-3.0-1.21","26","1","2025-04-11 13:55:26","bb671e3ae32f654b8954ea4c4635f915","","Mozilla/5.0 (X11; CrOS x86_64 14541.0.0) AppleWebKit/537.36 (KHTML, like Gecko) Chrome/134.0.0.0 Safari/537.36","WebKit","Chrome","134.0.0.0","ChromeOS","14541.0.0","https://hz8g1ckzuq.cognition.run/","en-US,en;q=0.9","4n2vgwk325jl80y","45","[""White""]","No","Female","1192886.3000000007","15538","","","{""price_1"":""100"",""price_2"":""75"",""price_3"":""75""}","rating","bww","catch","null","microwave ovens","65","90","25","10","10","10","2","null","null","null","null","null","null","Warranty","Cooking power","",""
"","","","","","rating_trial_setup","html-keyboard-response","47","434620","0.0-3.0-0.22","26","1","2025-04-11 13:55:26","bb671e3ae32f654b8954ea4c4635f915","","Mozilla/5.0 (X11; CrOS x86_64 14541.0.0) AppleWebKit/537.36 (KHTML, like Gecko) Chrome/134.0.0.0 Safari/537.36","WebKit","Chrome","134.0.0.0","ChromeOS","14541.0.0","https://hz8g1ckzuq.cognition.run/","en-US,en;q=0.9","4n2vgwk325jl80y","45","[""White""]","No","Female","1192886.3000000007","null","","<p></p>","null","rating","cdt","repulsion_2","1","televisions","null","null","null","null","null","null","1","","","","","","","","","",""
"","","","","","rating_trial","survey-html-form","48","454819","0.0-3.0-1.22","26","1","2025-04-11 13:55:26","bb671e3ae32f654b8954ea4c4635f915","","Mozilla/5.0 (X11; CrOS x86_64 14541.0.0) AppleWebKit/537.36 (KHTML, like Gecko) Chrome/134.0.0.0 Safari/537.36","WebKit","Chrome","134.0.0.0","ChromeOS","14541.0.0","https://hz8g1ckzuq.cognition.run/","en-US,en;q=0.9","4n2vgwk325jl80y","45","[""White""]","No","Female","1192886.3000000007","20195","","","{""price_1"":""250"",""price_2"":""250"",""price_3"":""300""}","rating","cdt","repulsion_2","1","televisions","null","null","null","null","null","null","1","100","90","100","30","40","20","Screen size","Average lifespan","",""
"","","","","","rating_trial_setup","html-keyboard-response","49","455123","0.0-3.0-0.23","26","1","2025-04-11 13:55:26","bb671e3ae32f654b8954ea4c4635f915","","Mozilla/5.0 (X11; CrOS x86_64 14541.0.0) AppleWebKit/537.36 (KHTML, like Gecko) Chrome/134.0.0.0 Safari/537.36","WebKit","Chrome","134.0.0.0","ChromeOS","14541.0.0","https://hz8g1ckzuq.cognition.run/","en-US,en;q=0.9","4n2vgwk325jl80y","45","[""White""]","No","Female","1192886.3000000007","null","","<p></p>","null","rating","wbw","catch","null","televisions","65","90","35","5","25","20","1","","","","","","","","","",""
"","","","","","rating_trial","survey-html-form","50","492912","0.0-3.0-1.23","26","1","2025-04-11 13:55:26","bb671e3ae32f654b8954ea4c4635f915","","Mozilla/5.0 (X11; CrOS x86_64 14541.0.0) AppleWebKit/537.36 (KHTML, like Gecko) Chrome/134.0.0.0 Safari/537.36","WebKit","Chrome","134.0.0.0","ChromeOS","14541.0.0","https://hz8g1ckzuq.cognition.run/","en-US,en;q=0.9","4n2vgwk325jl80y","45","[""White""]","No","Female","1192886.3000000007","37785","","","{""price_1"":""250"",""price_2"":""400"",""price_3"":""325""}","rating","wbw","catch","null","televisions","65","90","35","5","25","20","1","null","null","null","null","null","null","Screen size","Average lifespan","",""
"","","","","","rating_trial_setup","html-keyboard-response","51","493216","0.0-3.0-0.24","26","1","2025-04-11 13:55:26","bb671e3ae32f654b8954ea4c4635f915","","Mozilla/5.0 (X11; CrOS x86_64 14541.0.0) AppleWebKit/537.36 (KHTML, like Gecko) Chrome/134.0.0.0 Safari/537.36","WebKit","Chrome","134.0.0.0","ChromeOS","14541.0.0","https://hz8g1ckzuq.cognition.run/","en-US,en;q=0.9","4n2vgwk325jl80y","45","[""White""]","No","Female","1192886.3000000007","null","","<p></p>","null","rating","dtc","repulsion_2","2","washing machines","null","null","null","null","null","null","1","","","","","","","","","",""
"","","","","","rating_trial","survey-html-form","52","517631","0.0-3.0-1.24","26","1","2025-04-11 13:55:26","bb671e3ae32f654b8954ea4c4635f915","","Mozilla/5.0 (X11; CrOS x86_64 14541.0.0) AppleWebKit/537.36 (KHTML, like Gecko) Chrome/134.0.0.0 Safari/537.36","WebKit","Chrome","134.0.0.0","ChromeOS","14541.0.0","https://hz8g1ckzuq.cognition.run/","en-US,en;q=0.9","4n2vgwk325jl80y","45","[""White""]","No","Female","1192886.3000000007","24411","","","{""price_1"":""500"",""price_2"":""510"",""price_3"":""500""}","rating","dtc","repulsion_2","2","washing machines","null","null","null","null","null","null","1","30","40","20","100","90","100","Average lifespan","Energy savings","",""
"","","","","","rating_trial_setup","html-keyboard-response","53","517935","0.0-3.0-0.25","26","1","2025-04-11 13:55:26","bb671e3ae32f654b8954ea4c4635f915","","Mozilla/5.0 (X11; CrOS x86_64 14541.0.0) AppleWebKit/537.36 (KHTML, like Gecko) Chrome/134.0.0.0 Safari/537.36","WebKit","Chrome","134.0.0.0","ChromeOS","14541.0.0","https://hz8g1ckzuq.cognition.run/","en-US,en;q=0.9","4n2vgwk325jl80y","45","[""White""]","No","Female","1192886.3000000007","null","","<p></p>","null","rating","cdt","attraction_2","1","laptops","null","null","null","null","null","null","1","","","","","","","","","",""
"","","","","","rating_trial","survey-html-form","54","527489","0.0-3.0-1.25","26","1","2025-04-11 13:55:26","bb671e3ae32f654b8954ea4c4635f915","","Mozilla/5.0 (X11; CrOS x86_64 14541.0.0) AppleWebKit/537.36 (KHTML, like Gecko) Chrome/134.0.0.0 Safari/537.36","WebKit","Chrome","134.0.0.0","ChromeOS","14541.0.0","https://hz8g1ckzuq.cognition.run/","en-US,en;q=0.9","4n2vgwk325jl80y","45","[""White""]","No","Female","1192886.3000000007","9551","","","{""price_1"":""100"",""price_2"":""100"",""price_3"":""100""}","rating","cdt","attraction_2","1","laptops","null","null","null","null","null","null","1","60","50","60","50","60","40","Processing speed","Memory (RAM)","",""
"","","","","","rating_trial_setup","html-keyboard-response","55","527794","0.0-3.0-0.26","26","1","2025-04-11 13:55:26","bb671e3ae32f654b8954ea4c4635f915","","Mozilla/5.0 (X11; CrOS x86_64 14541.0.0) AppleWebKit/537.36 (KHTML, like Gecko) Chrome/134.0.0.0 Safari/537.36","WebKit","Chrome","134.0.0.0","ChromeOS","14541.0.0","https://hz8g1ckzuq.cognition.run/","en-US,en;q=0.9","4n2vgwk325jl80y","45","[""White""]","No","Female","1192886.3000000007","null","","<p></p>","null","rating","tcd","attraction_1","1","televisions","null","null","null","null","null","null","1","","","","","","","","","",""
"","","","","","rating_trial","survey-html-form","56","538344","0.0-3.0-1.26","26","1","2025-04-11 13:55:26","bb671e3ae32f654b8954ea4c4635f915","","Mozilla/5.0 (X11; CrOS x86_64 14541.0.0) AppleWebKit/537.36 (KHTML, like Gecko) Chrome/134.0.0.0 Safari/537.36","WebKit","Chrome","134.0.0.0","ChromeOS","14541.0.0","https://hz8g1ckzuq.cognition.run/","en-US,en;q=0.9","4n2vgwk325jl80y","45","[""White""]","No","Female","1192886.3000000007","10547","","","{""price_1"":""300"",""price_2"":""300"",""price_3"":""300""}","rating","tcd","attraction_1","1","televisions","null","null","null","null","null","null","1","60","50","60","50","60","45","Screen size","Average lifespan","",""
"","","","","","rating_trial_setup","html-keyboard-response","57","538652","0.0-3.0-0.27","26","1","2025-04-11 13:55:26","bb671e3ae32f654b8954ea4c4635f915","","Mozilla/5.0 (X11; CrOS x86_64 14541.0.0) AppleWebKit/537.36 (KHTML, like Gecko) Chrome/134.0.0.0 Safari/537.36","WebKit","Chrome","134.0.0.0","ChromeOS","14541.0.0","https://hz8g1ckzuq.cognition.run/","en-US,en;q=0.9","4n2vgwk325jl80y","45","[""White""]","No","Female","1192886.3000000007","null","","<p></p>","null","rating","tdc","attraction_2","1","washing machines","null","null","null","null","null","null","1","","","","","","","","","",""
"","","","","","rating_trial","survey-html-form","58","556693","0.0-3.0-1.27","26","1","2025-04-11 13:55:26","bb671e3ae32f654b8954ea4c4635f915","","Mozilla/5.0 (X11; CrOS x86_64 14541.0.0) AppleWebKit/537.36 (KHTML, like Gecko) Chrome/134.0.0.0 Safari/537.36","WebKit","Chrome","134.0.0.0","ChromeOS","14541.0.0","https://hz8g1ckzuq.cognition.run/","en-US,en;q=0.9","4n2vgwk325jl80y","45","[""White""]","No","Female","1192886.3000000007","18037","","","{""price_1"":""500"",""price_2"":""475"",""price_3"":""500""}","rating","tdc","attraction_2","1","washing machines","null","null","null","null","null","null","1","60","50","60","50","60","40","Average lifespan","Energy savings","",""
"","","","","","rating_trial_setup","html-keyboard-response","59","557003","0.0-3.0-0.28","26","1","2025-04-11 13:55:26","bb671e3ae32f654b8954ea4c4635f915","","Mozilla/5.0 (X11; CrOS x86_64 14541.0.0) AppleWebKit/537.36 (KHTML, like Gecko) Chrome/134.0.0.0 Safari/537.36","WebKit","Chrome","134.0.0.0","ChromeOS","14541.0.0","https://hz8g1ckzuq.cognition.run/","en-US,en;q=0.9","4n2vgwk325jl80y","45","[""White""]","No","Female","1192886.3000000007","null","","<p></p>","null","rating","tcd","attraction_1","2","washing machines","null","null","null","null","null","null","1","","","","","","","","","",""
"","","","","","rating_trial","survey-html-form","60","599676","0.0-3.0-1.28","26","1","2025-04-11 13:55:26","bb671e3ae32f654b8954ea4c4635f915","","Mozilla/5.0 (X11; CrOS x86_64 14541.0.0) AppleWebKit/537.36 (KHTML, like Gecko) Chrome/134.0.0.0 Safari/537.36","WebKit","Chrome","134.0.0.0","ChromeOS","14541.0.0","https://hz8g1ckzuq.cognition.run/","en-US,en;q=0.9","4n2vgwk325jl80y","45","[""White""]","No","Female","1192886.3000000007","42669","","","{""price_1"":""500"",""price_2"":""500"",""price_3"":""500""}","rating","tcd","attraction_1","2","washing machines","null","null","null","null","null","null","1","50","60","45","60","50","60","Average lifespan","Energy savings","",""
"","","","","","rating_trial_setup","html-keyboard-response","61","599981","0.0-3.0-0.29","26","1","2025-04-11 13:55:26","bb671e3ae32f654b8954ea4c4635f915","","Mozilla/5.0 (X11; CrOS x86_64 14541.0.0) AppleWebKit/537.36 (KHTML, like Gecko) Chrome/134.0.0.0 Safari/537.36","WebKit","Chrome","134.0.0.0","ChromeOS","14541.0.0","https://hz8g1ckzuq.cognition.run/","en-US,en;q=0.9","4n2vgwk325jl80y","45","[""White""]","No","Female","1192886.3000000007","null","","<p></p>","null","rating","tdc","repulsion_2","1","microwave ovens","null","null","null","null","null","null","2","","","","","","","","","",""
"","","","","","rating_trial","survey-html-form","62","612099","0.0-3.0-1.29","26","1","2025-04-11 13:55:26","bb671e3ae32f654b8954ea4c4635f915","","Mozilla/5.0 (X11; CrOS x86_64 14541.0.0) AppleWebKit/537.36 (KHTML, like Gecko) Chrome/134.0.0.0 Safari/537.36","WebKit","Chrome","134.0.0.0","ChromeOS","14541.0.0","https://hz8g1ckzuq.cognition.run/","en-US,en;q=0.9","4n2vgwk325jl80y","45","[""White""]","No","Female","1192886.3000000007","12113","","","{""price_1"":""120"",""price_2"":""110"",""price_3"":""100""}","rating","tdc","repulsion_2","1","microwave ovens","null","null","null","null","null","null","2","100","90","100","30","40","20","Warranty","Cooking power","",""
"","","","","","rating_trial_setup","html-keyboard-response","63","612407","0.0-3.0-0.30","26","1","2025-04-11 13:55:26","bb671e3ae32f654b8954ea4c4635f915","","Mozilla/5.0 (X11; CrOS x86_64 14541.0.0) AppleWebKit/537.36 (KHTML, like Gecko) Chrome/134.0.0.0 Safari/537.36","WebKit","Chrome","134.0.0.0","ChromeOS","14541.0.0","https://hz8g1ckzuq.cognition.run/","en-US,en;q=0.9","4n2vgwk325jl80y","45","[""White""]","No","Female","1192886.3000000007","null","","<p></p>","null","rating","tcd","repulsion_1","2","washing machines","null","null","null","null","null","null","2","","","","","","","","","",""
"","","","","","rating_trial","survey-html-form","64","638307","0.0-3.0-1.30","26","1","2025-04-11 13:55:26","bb671e3ae32f654b8954ea4c4635f915","","Mozilla/5.0 (X11; CrOS x86_64 14541.0.0) AppleWebKit/537.36 (KHTML, like Gecko) Chrome/134.0.0.0 Safari/537.36","WebKit","Chrome","134.0.0.0","ChromeOS","14541.0.0","https://hz8g1ckzuq.cognition.run/","en-US,en;q=0.9","4n2vgwk325jl80y","45","[""White""]","No","Female","1192886.3000000007","25895","","","{""price_1"":""600"",""price_2"":""600"",""price_3"":""550""}","rating","tcd","repulsion_1","2","washing machines","null","null","null","null","null","null","2","30","40","25","100","90","100","Average lifespan","Energy savings","",""
"","","","","","rating_trial_setup","html-keyboard-response","65","638611","0.0-3.0-0.31","26","1","2025-04-11 13:55:26","bb671e3ae32f654b8954ea4c4635f915","","Mozilla/5.0 (X11; CrOS x86_64 14541.0.0) AppleWebKit/537.36 (KHTML, like Gecko) Chrome/134.0.0.0 Safari/537.36","WebKit","Chrome","134.0.0.0","ChromeOS","14541.0.0","https://hz8g1ckzuq.cognition.run/","en-US,en;q=0.9","4n2vgwk325jl80y","45","[""White""]","No","Female","1192886.3000000007","null","","<p></p>","null","rating","dct","repulsion_2","1","washing machines","null","null","null","null","null","null","2","","","","","","","","","",""
"","","","","","rating_trial","survey-html-form","66","654810","0.0-3.0-1.31","26","1","2025-04-11 13:55:26","bb671e3ae32f654b8954ea4c4635f915","","Mozilla/5.0 (X11; CrOS x86_64 14541.0.0) AppleWebKit/537.36 (KHTML, like Gecko) Chrome/134.0.0.0 Safari/537.36","WebKit","Chrome","134.0.0.0","ChromeOS","14541.0.0","https://hz8g1ckzuq.cognition.run/","en-US,en;q=0.9","4n2vgwk325jl80y","45","[""White""]","No","Female","1192886.3000000007","16194","","","{""price_1"":""575"",""price_2"":""600"",""price_3"":""600""}","rating","dct","repulsion_2","1","washing machines","null","null","null","null","null","null","2","100","90","100","30","40","20","Average lifespan","Energy savings","",""
"","","","","","rating_trial_setup","html-keyboard-response","67","655114","0.0-3.0-0.32","26","1","2025-04-11 13:55:26","bb671e3ae32f654b8954ea4c4635f915","","Mozilla/5.0 (X11; CrOS x86_64 14541.0.0) AppleWebKit/537.36 (KHTML, like Gecko) Chrome/134.0.0.0 Safari/537.36","WebKit","Chrome","134.0.0.0","ChromeOS","14541.0.0","https://hz8g1ckzuq.cognition.run/","en-US,en;q=0.9","4n2vgwk325jl80y","45","[""White""]","No","Female","1192886.3000000007","null","","<p></p>","null","rating","tcd","attraction_1","2","televisions","null","null","null","null","null","null","1","","","","","","","","","",""
"","","","","","rating_trial","survey-html-form","68","675474","0.0-3.0-1.32","26","1","2025-04-11 13:55:26","bb671e3ae32f654b8954ea4c4635f915","","Mozilla/5.0 (X11; CrOS x86_64 14541.0.0) AppleWebKit/537.36 (KHTML, like Gecko) Chrome/134.0.0.0 Safari/537.36","WebKit","Chrome","134.0.0.0","ChromeOS","14541.0.0","https://hz8g1ckzuq.cognition.run/","en-US,en;q=0.9","4n2vgwk325jl80y","45","[""White""]","No","Female","1192886.3000000007","20355","","","{""price_1"":""300"",""price_2"":""300"",""price_3"":""300""}","rating","tcd","attraction_1","2","televisions","null","null","null","null","null","null","1","50","60","45","60","50","60","Screen size","Average lifespan","",""
"","","","","","rating_trial_setup","html-keyboard-response","69","675779","0.0-3.0-0.33","26","1","2025-04-11 13:55:26","bb671e3ae32f654b8954ea4c4635f915","","Mozilla/5.0 (X11; CrOS x86_64 14541.0.0) AppleWebKit/537.36 (KHTML, like Gecko) Chrome/134.0.0.0 Safari/537.36","WebKit","Chrome","134.0.0.0","ChromeOS","14541.0.0","https://hz8g1ckzuq.cognition.run/","en-US,en;q=0.9","4n2vgwk325jl80y","45","[""White""]","No","Female","1192886.3000000007","null","","<p></p>","null","rating","cdt","repulsion_1","2","televisions","null","null","null","null","null","null","1","","","","","","","","","",""
"","","","","","rating_trial","survey-html-form","70","710719","0.0-3.0-1.33","26","1","2025-04-11 13:55:26","bb671e3ae32f654b8954ea4c4635f915","","Mozilla/5.0 (X11; CrOS x86_64 14541.0.0) AppleWebKit/537.36 (KHTML, like Gecko) Chrome/134.0.0.0 Safari/537.36","WebKit","Chrome","134.0.0.0","ChromeOS","14541.0.0","https://hz8g1ckzuq.cognition.run/","en-US,en;q=0.9","4n2vgwk325jl80y","45","[""White""]","No","Female","1192886.3000000007","34935","","","{""price_1"":""300"",""price_2"":""300"",""price_3"":""300""}","rating","cdt","repulsion_1","2","televisions","null","null","null","null","null","null","1","30","40","25","100","90","100","Screen size","Average lifespan","",""
"","","","","","rating_trial_setup","html-keyboard-response","71","711023","0.0-3.0-0.34","26","1","2025-04-11 13:55:26","bb671e3ae32f654b8954ea4c4635f915","","Mozilla/5.0 (X11; CrOS x86_64 14541.0.0) AppleWebKit/537.36 (KHTML, like Gecko) Chrome/134.0.0.0 Safari/537.36","WebKit","Chrome","134.0.0.0","ChromeOS","14541.0.0","https://hz8g1ckzuq.cognition.run/","en-US,en;q=0.9","4n2vgwk325jl80y","45","[""White""]","No","Female","1192886.3000000007","null","","<p></p>","null","rating","tdc","attraction_1","2","laptops","null","null","null","null","null","null","2","","","","","","","","","",""
"","","","","","rating_trial","survey-html-form","72","737004","0.0-3.0-1.34","26","1","2025-04-11 13:55:26","bb671e3ae32f654b8954ea4c4635f915","","Mozilla/5.0 (X11; CrOS x86_64 14541.0.0) AppleWebKit/537.36 (KHTML, like Gecko) Chrome/134.0.0.0 Safari/537.36","WebKit","Chrome","134.0.0.0","ChromeOS","14541.0.0","https://hz8g1ckzuq.cognition.run/","en-US,en;q=0.9","4n2vgwk325jl80y","45","[""White""]","No","Female","1192886.3000000007","25976","","","{""price_1"":""110"",""price_2"":""110"",""price_3"":""110""}","rating","tdc","attraction_1","2","laptops","null","null","null","null","null","null","2","50","60","45","60","50","60","Processing speed","Memory (RAM)","",""
"","","","","","rating_trial_setup","html-keyboard-response","73","737315","0.0-3.0-0.35","26","1","2025-04-11 13:55:26","bb671e3ae32f654b8954ea4c4635f915","","Mozilla/5.0 (X11; CrOS x86_64 14541.0.0) AppleWebKit/537.36 (KHTML, like Gecko) Chrome/134.0.0.0 Safari/537.36","WebKit","Chrome","134.0.0.0","ChromeOS","14541.0.0","https://hz8g1ckzuq.cognition.run/","en-US,en;q=0.9","4n2vgwk325jl80y","45","[""White""]","No","Female","1192886.3000000007","null","","<p></p>","null","rating","dct","repulsion_1","1","microwave ovens","null","null","null","null","null","null","2","","","","","","","","","",""
"","","","","","rating_trial","survey-html-form","74","784025","0.0-3.0-1.35","26","1","2025-04-11 13:55:26","bb671e3ae32f654b8954ea4c4635f915","","Mozilla/5.0 (X11; CrOS x86_64 14541.0.0) AppleWebKit/537.36 (KHTML, like Gecko) Chrome/134.0.0.0 Safari/537.36","WebKit","Chrome","134.0.0.0","ChromeOS","14541.0.0","https://hz8g1ckzuq.cognition.run/","en-US,en;q=0.9","4n2vgwk325jl80y","45","[""White""]","No","Female","1192886.3000000007","46706","","","{""price_1"":""90"",""price_2"":""100"",""price_3"":""100""}","rating","dct","repulsion_1","1","microwave ovens","null","null","null","null","null","null","2","100","90","100","30","40","25","Warranty","Cooking power","",""
"","","","","","rating_trial_setup","html-keyboard-response","75","784335","0.0-3.0-0.36","26","1","2025-04-11 13:55:26","bb671e3ae32f654b8954ea4c4635f915","","Mozilla/5.0 (X11; CrOS x86_64 14541.0.0) AppleWebKit/537.36 (KHTML, like Gecko) Chrome/134.0.0.0 Safari/537.36","WebKit","Chrome","134.0.0.0","ChromeOS","14541.0.0","https://hz8g1ckzuq.cognition.run/","en-US,en;q=0.9","4n2vgwk325jl80y","45","[""White""]","No","Female","1192886.3000000007","null","","<p></p>","null","rating","bww","catch","null","microwave ovens","75","65","30","40","20","25","2","","","","","","","","","",""
"","","","","","rating_trial","survey-html-form","76","797177","0.0-3.0-1.36","26","1","2025-04-11 13:55:26","bb671e3ae32f654b8954ea4c4635f915","","Mozilla/5.0 (X11; CrOS x86_64 14541.0.0) AppleWebKit/537.36 (KHTML, like Gecko) Chrome/134.0.0.0 Safari/537.36","WebKit","Chrome","134.0.0.0","ChromeOS","14541.0.0","https://hz8g1ckzuq.cognition.run/","en-US,en;q=0.9","4n2vgwk325jl80y","45","[""White""]","No","Female","1192886.3000000007","12839","","","{""price_1"":""120"",""price_2"":""110"",""price_3"":""100""}","rating","bww","catch","null","microwave ovens","75","65","30","40","20","25","2","null","null","null","null","null","null","Warranty","Cooking power","",""
"","","","","","rating_trial_setup","html-keyboard-response","77","797482","0.0-3.0-0.37","26","1","2025-04-11 13:55:26","bb671e3ae32f654b8954ea4c4635f915","","Mozilla/5.0 (X11; CrOS x86_64 14541.0.0) AppleWebKit/537.36 (KHTML, like Gecko) Chrome/134.0.0.0 Safari/537.36","WebKit","Chrome","134.0.0.0","ChromeOS","14541.0.0","https://hz8g1ckzuq.cognition.run/","en-US,en;q=0.9","4n2vgwk325jl80y","45","[""White""]","No","Female","1192886.3000000007","null","","<p></p>","null","rating","wwb","catch","null","laptops","75","95","35","30","35","25","2","","","","","","","","","",""
"","","","","","rating_trial","survey-html-form","78","816832","0.0-3.0-1.37","26","1","2025-04-11 13:55:26","bb671e3ae32f654b8954ea4c4635f915","","Mozilla/5.0 (X11; CrOS x86_64 14541.0.0) AppleWebKit/537.36 (KHTML, like Gecko) Chrome/134.0.0.0 Safari/537.36","WebKit","Chrome","134.0.0.0","ChromeOS","14541.0.0","https://hz8g1ckzuq.cognition.run/","en-US,en;q=0.9","4n2vgwk325jl80y","45","[""White""]","No","Female","1192886.3000000007","19345","","","{""price_1"":""90"",""price_2"":""90"",""price_3"":""120""}","rating","wwb","catch","null","laptops","75","95","35","30","35","25","2","null","null","null","null","null","null","Processing speed","Memory (RAM)","",""
"","","","","","rating_trial_setup","html-keyboard-response","79","817143","0.0-3.0-0.38","26","1","2025-04-11 13:55:26","bb671e3ae32f654b8954ea4c4635f915","","Mozilla/5.0 (X11; CrOS x86_64 14541.0.0) AppleWebKit/537.36 (KHTML, like Gecko) Chrome/134.0.0.0 Safari/537.36","WebKit","Chrome","134.0.0.0","ChromeOS","14541.0.0","https://hz8g1ckzuq.cognition.run/","en-US,en;q=0.9","4n2vgwk325jl80y","45","[""White""]","No","Female","1192886.3000000007","null","","<p></p>","null","rating","tcd","attraction_2","2","televisions","null","null","null","null","null","null","1","","","","","","","","","",""
"","","","","","rating_trial","survey-html-form","80","841419","0.0-3.0-1.38","26","1","2025-04-11 13:55:26","bb671e3ae32f654b8954ea4c4635f915","","Mozilla/5.0 (X11; CrOS x86_64 14541.0.0) AppleWebKit/537.36 (KHTML, like Gecko) Chrome/134.0.0.0 Safari/537.36","WebKit","Chrome","134.0.0.0","ChromeOS","14541.0.0","https://hz8g1ckzuq.cognition.run/","en-US,en;q=0.9","4n2vgwk325jl80y","45","[""White""]","No","Female","1192886.3000000007","24272","","","{""price_1"":""200"",""price_2"":""200"",""price_3"":""200""}","rating","tcd","attraction_2","2","televisions","null","null","null","null","null","null","1","50","60","40","60","50","60","Screen size","Average lifespan","",""
"","","","","","rating_trial_setup","html-keyboard-response","81","841724","0.0-3.0-0.39","26","1","2025-04-11 13:55:26","bb671e3ae32f654b8954ea4c4635f915","","Mozilla/5.0 (X11; CrOS x86_64 14541.0.0) AppleWebKit/537.36 (KHTML, like Gecko) Chrome/134.0.0.0 Safari/537.36","WebKit","Chrome","134.0.0.0","ChromeOS","14541.0.0","https://hz8g1ckzuq.cognition.run/","en-US,en;q=0.9","4n2vgwk325jl80y","45","[""White""]","No","Female","1192886.3000000007","null","","<p></p>","null","rating","cdt","repulsion_1","1","laptops","null","null","null","null","null","null","2","","","","","","","","","",""
"","","","","","rating_trial","survey-html-form","82","867410","0.0-3.0-1.39","26","1","2025-04-11 13:55:26","bb671e3ae32f654b8954ea4c4635f915","","Mozilla/5.0 (X11; CrOS x86_64 14541.0.0) AppleWebKit/537.36 (KHTML, like Gecko) Chrome/134.0.0.0 Safari/537.36","WebKit","Chrome","134.0.0.0","ChromeOS","14541.0.0","https://hz8g1ckzuq.cognition.run/","en-US,en;q=0.9","4n2vgwk325jl80y","45","[""White""]","No","Female","1192886.3000000007","25681","","","{""price_1"":""100"",""price_2"":""90"",""price_3"":""100""}","rating","cdt","repulsion_1","1","laptops","null","null","null","null","null","null","2","100","90","100","30","40","25","Processing speed","Memory (RAM)","",""
"","","","","","","instructions","83","912596","0.0-4.0","26","1","2025-04-11 13:55:26","bb671e3ae32f654b8954ea4c4635f915","","Mozilla/5.0 (X11; CrOS x86_64 14541.0.0) AppleWebKit/537.36 (KHTML, like Gecko) Chrome/134.0.0.0 Safari/537.36","WebKit","Chrome","134.0.0.0","ChromeOS","14541.0.0","https://hz8g1ckzuq.cognition.run/","en-US,en;q=0.9","4n2vgwk325jl80y","45","[""White""]","No","Female","1192886.3000000007","45178","[{""page_index"":0,""viewing_time"":2558},{""page_index"":1,""viewing_time"":1273},{""page_index"":2,""viewing_time"":1374},{""page_index"":3,""viewing_time"":19274},{""page_index"":4,""viewing_time"":10799},{""page_index"":5,""viewing_time"":1818},{""page_index"":6,""viewing_time"":4849},{""page_index"":7,""viewing_time"":3232}]","","","","","","","","","","","","","","","","","","","","","","","",""
"","","","","","choice_trial_setup","html-keyboard-response","84","912901","0.0-5.0-0.0","26","1","2025-04-11 13:55:26","bb671e3ae32f654b8954ea4c4635f915","","Mozilla/5.0 (X11; CrOS x86_64 14541.0.0) AppleWebKit/537.36 (KHTML, like Gecko) Chrome/134.0.0.0 Safari/537.36","WebKit","Chrome","134.0.0.0","ChromeOS","14541.0.0","https://hz8g1ckzuq.cognition.run/","en-US,en;q=0.9","4n2vgwk325jl80y","45","[""White""]","No","Female","1192886.3000000007","null","","<p></p>","null","choice","bww","catch","null","microwave ovens","95","80","25","15","15","5","1","","","","","","","","","",""
"","","","","","choice_trial","survey-html-form","85","919637","0.0-5.0-1.0","26","1","2025-04-11 13:55:26","bb671e3ae32f654b8954ea4c4635f915","","Mozilla/5.0 (X11; CrOS x86_64 14541.0.0) AppleWebKit/537.36 (KHTML, like Gecko) Chrome/134.0.0.0 Safari/537.36","WebKit","Chrome","134.0.0.0","ChromeOS","14541.0.0","https://hz8g1ckzuq.cognition.run/","en-US,en;q=0.9","4n2vgwk325jl80y","45","[""White""]","No","Female","1192886.3000000007","6718","","","{""product_choice"":""A""}","choice","bww","catch","null","microwave ovens","95","80","25","15","15","5","1","null","null","null","null","null","null","Warranty","Cooking power","",""
"","","","","","choice_trial_setup","html-keyboard-response","86","919942","0.0-5.0-0.1","26","1","2025-04-11 13:55:26","bb671e3ae32f654b8954ea4c4635f915","","Mozilla/5.0 (X11; CrOS x86_64 14541.0.0) AppleWebKit/537.36 (KHTML, like Gecko) Chrome/134.0.0.0 Safari/537.36","WebKit","Chrome","134.0.0.0","ChromeOS","14541.0.0","https://hz8g1ckzuq.cognition.run/","en-US,en;q=0.9","4n2vgwk325jl80y","45","[""White""]","No","Female","1192886.3000000007","null","","<p></p>","null","choice","ctd","repulsion_2","2","televisions","null","null","null","null","null","null","1","","","","","","","","","",""
"","","","","","choice_trial","survey-html-form","87","925012","0.0-5.0-1.1","26","1","2025-04-11 13:55:26","bb671e3ae32f654b8954ea4c4635f915","","Mozilla/5.0 (X11; CrOS x86_64 14541.0.0) AppleWebKit/537.36 (KHTML, like Gecko) Chrome/134.0.0.0 Safari/537.36","WebKit","Chrome","134.0.0.0","ChromeOS","14541.0.0","https://hz8g1ckzuq.cognition.run/","en-US,en;q=0.9","4n2vgwk325jl80y","45","[""White""]","No","Female","1192886.3000000007","5064","","","{""product_choice"":""B""}","choice","ctd","repulsion_2","2","televisions","null","null","null","null","null","null","1","30","40","20","100","90","100","Screen size","Average lifespan","",""
"","","","","","choice_trial_setup","html-keyboard-response","88","925317","0.0-5.0-0.2","26","1","2025-04-11 13:55:26","bb671e3ae32f654b8954ea4c4635f915","","Mozilla/5.0 (X11; CrOS x86_64 14541.0.0) AppleWebKit/537.36 (KHTML, like Gecko) Chrome/134.0.0.0 Safari/537.36","WebKit","Chrome","134.0.0.0","ChromeOS","14541.0.0","https://hz8g1ckzuq.cognition.run/","en-US,en;q=0.9","4n2vgwk325jl80y","45","[""White""]","No","Female","1192886.3000000007","null","","<p></p>","null","choice","ctd","attraction_2","1","televisions","null","null","null","null","null","null","1","","","","","","","","","",""
"","","","","","choice_trial","survey-html-form","89","932355","0.0-5.0-1.2","26","1","2025-04-11 13:55:26","bb671e3ae32f654b8954ea4c4635f915","","Mozilla/5.0 (X11; CrOS x86_64 14541.0.0) AppleWebKit/537.36 (KHTML, like Gecko) Chrome/134.0.0.0 Safari/537.36","WebKit","Chrome","134.0.0.0","ChromeOS","14541.0.0","https://hz8g1ckzuq.cognition.run/","en-US,en;q=0.9","4n2vgwk325jl80y","45","[""White""]","No","Female","1192886.3000000007","7033","","","{""product_choice"":""A""}","choice","ctd","attraction_2","1","televisions","null","null","null","null","null","null","1","60","50","60","50","60","40","Screen size","Average lifespan","",""
"","","","","","choice_trial_setup","html-keyboard-response","90","932660","0.0-5.0-0.3","26","1","2025-04-11 13:55:26","bb671e3ae32f654b8954ea4c4635f915","","Mozilla/5.0 (X11; CrOS x86_64 14541.0.0) AppleWebKit/537.36 (KHTML, like Gecko) Chrome/134.0.0.0 Safari/537.36","WebKit","Chrome","134.0.0.0","ChromeOS","14541.0.0","https://hz8g1ckzuq.cognition.run/","en-US,en;q=0.9","4n2vgwk325jl80y","45","[""White""]","No","Female","1192886.3000000007","null","","<p></p>","null","choice","tdc","attraction_1","2","microwave ovens","null","null","null","null","null","null","2","","","","","","","","","",""
"","","","","","choice_trial","survey-html-form","91","939761","0.0-5.0-1.3","26","1","2025-04-11 13:55:26","bb671e3ae32f654b8954ea4c4635f915","","Mozilla/5.0 (X11; CrOS x86_64 14541.0.0) AppleWebKit/537.36 (KHTML, like Gecko) Chrome/134.0.0.0 Safari/537.36","WebKit","Chrome","134.0.0.0","ChromeOS","14541.0.0","https://hz8g1ckzuq.cognition.run/","en-US,en;q=0.9","4n2vgwk325jl80y","45","[""White""]","No","Female","1192886.3000000007","7092","","","{""product_choice"":""C""}","choice","tdc","attraction_1","2","microwave ovens","null","null","null","null","null","null","2","50","60","45","60","50","60","Warranty","Cooking power","",""
"","","","","","choice_trial_setup","html-keyboard-response","92","940065","0.0-5.0-0.4","26","1","2025-04-11 13:55:26","bb671e3ae32f654b8954ea4c4635f915","","Mozilla/5.0 (X11; CrOS x86_64 14541.0.0) AppleWebKit/537.36 (KHTML, like Gecko) Chrome/134.0.0.0 Safari/537.36","WebKit","Chrome","134.0.0.0","ChromeOS","14541.0.0","https://hz8g1ckzuq.cognition.run/","en-US,en;q=0.9","4n2vgwk325jl80y","45","[""White""]","No","Female","1192886.3000000007","null","","<p></p>","null","choice","dtc","repulsion_2","2","washing machines","null","null","null","null","null","null","2","","","","","","","","","",""
"","","","","","choice_trial","survey-html-form","93","945155","0.0-5.0-1.4","26","1","2025-04-11 13:55:26","bb671e3ae32f654b8954ea4c4635f915","","Mozilla/5.0 (X11; CrOS x86_64 14541.0.0) AppleWebKit/537.36 (KHTML, like Gecko) Chrome/134.0.0.0 Safari/537.36","WebKit","Chrome","134.0.0.0","ChromeOS","14541.0.0","https://hz8g1ckzuq.cognition.run/","en-US,en;q=0.9","4n2vgwk325jl80y","45","[""White""]","No","Female","1192886.3000000007","5085","","","{""product_choice"":""B""}","choice","dtc","repulsion_2","2","washing machines","null","null","null","null","null","null","2","30","40","20","100","90","100","Average lifespan","Energy savings","",""
"","","","","","choice_trial_setup","html-keyboard-response","94","945460","0.0-5.0-0.5","26","1","2025-04-11 13:55:26","bb671e3ae32f654b8954ea4c4635f915","","Mozilla/5.0 (X11; CrOS x86_64 14541.0.0) AppleWebKit/537.36 (KHTML, like Gecko) Chrome/134.0.0.0 Safari/537.36","WebKit","Chrome","134.0.0.0","ChromeOS","14541.0.0","https://hz8g1ckzuq.cognition.run/","en-US,en;q=0.9","4n2vgwk325jl80y","45","[""White""]","No","Female","1192886.3000000007","null","","<p></p>","null","choice","dct","repulsion_1","2","televisions","null","null","null","null","null","null","2","","","","","","","","","",""
"","","","","","choice_trial","survey-html-form","95","949317","0.0-5.0-1.5","26","1","2025-04-11 13:55:26","bb671e3ae32f654b8954ea4c4635f915","","Mozilla/5.0 (X11; CrOS x86_64 14541.0.0) AppleWebKit/537.36 (KHTML, like Gecko) Chrome/134.0.0.0 Safari/537.36","WebKit","Chrome","134.0.0.0","ChromeOS","14541.0.0","https://hz8g1ckzuq.cognition.run/","en-US,en;q=0.9","4n2vgwk325jl80y","45","[""White""]","No","Female","1192886.3000000007","3852","","","{""product_choice"":""C""}","choice","dct","repulsion_1","2","televisions","null","null","null","null","null","null","2","30","40","25","100","90","100","Screen size","Average lifespan","",""
"","","","","","choice_trial_setup","html-keyboard-response","96","949622","0.0-5.0-0.6","26","1","2025-04-11 13:55:26","bb671e3ae32f654b8954ea4c4635f915","","Mozilla/5.0 (X11; CrOS x86_64 14541.0.0) AppleWebKit/537.36 (KHTML, like Gecko) Chrome/134.0.0.0 Safari/537.36","WebKit","Chrome","134.0.0.0","ChromeOS","14541.0.0","https://hz8g1ckzuq.cognition.run/","en-US,en;q=0.9","4n2vgwk325jl80y","45","[""White""]","No","Female","1192886.3000000007","null","","<p></p>","null","choice","dct","attraction_2","2","televisions","null","null","null","null","null","null","2","","","","","","","","","",""
"","","","","","choice_trial","survey-html-form","97","955740","0.0-5.0-1.6","26","1","2025-04-11 13:55:26","bb671e3ae32f654b8954ea4c4635f915","","Mozilla/5.0 (X11; CrOS x86_64 14541.0.0) AppleWebKit/537.36 (KHTML, like Gecko) Chrome/134.0.0.0 Safari/537.36","WebKit","Chrome","134.0.0.0","ChromeOS","14541.0.0","https://hz8g1ckzuq.cognition.run/","en-US,en;q=0.9","4n2vgwk325jl80y","45","[""White""]","No","Female","1192886.3000000007","6112","","","{""product_choice"":""C""}","choice","dct","attraction_2","2","televisions","null","null","null","null","null","null","2","50","60","40","60","50","60","Screen size","Average lifespan","",""
"","","","","","choice_trial_setup","html-keyboard-response","98","956045","0.0-5.0-0.7","26","1","2025-04-11 13:55:26","bb671e3ae32f654b8954ea4c4635f915","","Mozilla/5.0 (X11; CrOS x86_64 14541.0.0) AppleWebKit/537.36 (KHTML, like Gecko) Chrome/134.0.0.0 Safari/537.36","WebKit","Chrome","134.0.0.0","ChromeOS","14541.0.0","https://hz8g1ckzuq.cognition.run/","en-US,en;q=0.9","4n2vgwk325jl80y","45","[""White""]","No","Female","1192886.3000000007","null","","<p></p>","null","choice","cdt","repulsion_1","1","microwave ovens","null","null","null","null","null","null","1","","","","","","","","","",""
"","","","","","choice_trial","survey-html-form","99","964318","0.0-5.0-1.7","26","1","2025-04-11 13:55:26","bb671e3ae32f654b8954ea4c4635f915","","Mozilla/5.0 (X11; CrOS x86_64 14541.0.0) AppleWebKit/537.36 (KHTML, like Gecko) Chrome/134.0.0.0 Safari/537.36","WebKit","Chrome","134.0.0.0","ChromeOS","14541.0.0","https://hz8g1ckzuq.cognition.run/","en-US,en;q=0.9","4n2vgwk325jl80y","45","[""White""]","No","Female","1192886.3000000007","8269","","","{""product_choice"":""A""}","choice","cdt","repulsion_1","1","microwave ovens","null","null","null","null","null","null","1","100","90","100","30","40","25","Warranty","Cooking power","",""
"","","","","","choice_trial_setup","html-keyboard-response","100","964624","0.0-5.0-0.8","26","1","2025-04-11 13:55:26","bb671e3ae32f654b8954ea4c4635f915","","Mozilla/5.0 (X11; CrOS x86_64 14541.0.0) AppleWebKit/537.36 (KHTML, like Gecko) Chrome/134.0.0.0 Safari/537.36","WebKit","Chrome","134.0.0.0","ChromeOS","14541.0.0","https://hz8g1ckzuq.cognition.run/","en-US,en;q=0.9","4n2vgwk325jl80y","45","[""White""]","No","Female","1192886.3000000007","null","","<p></p>","null","choice","dct","attraction_2","1","microwave ovens","null","null","null","null","null","null","1","","","","","","","","","",""
"","","","","","choice_trial","survey-html-form","101","971277","0.0-5.0-1.8","26","1","2025-04-11 13:55:26","bb671e3ae32f654b8954ea4c4635f915","","Mozilla/5.0 (X11; CrOS x86_64 14541.0.0) AppleWebKit/537.36 (KHTML, like Gecko) Chrome/134.0.0.0 Safari/537.36","WebKit","Chrome","134.0.0.0","ChromeOS","14541.0.0","https://hz8g1ckzuq.cognition.run/","en-US,en;q=0.9","4n2vgwk325jl80y","45","[""White""]","No","Female","1192886.3000000007","6640","","","{""product_choice"":""C""}","choice","dct","attraction_2","1","microwave ovens","null","null","null","null","null","null","1","60","50","60","50","60","40","Warranty","Cooking power","",""
"","","","","","choice_trial_setup","html-keyboard-response","102","971581","0.0-5.0-0.9","26","1","2025-04-11 13:55:26","bb671e3ae32f654b8954ea4c4635f915","","Mozilla/5.0 (X11; CrOS x86_64 14541.0.0) AppleWebKit/537.36 (KHTML, like Gecko) Chrome/134.0.0.0 Safari/537.36","WebKit","Chrome","134.0.0.0","ChromeOS","14541.0.0","https://hz8g1ckzuq.cognition.run/","en-US,en;q=0.9","4n2vgwk325jl80y","45","[""White""]","No","Female","1192886.3000000007","null","","<p></p>","null","choice","wwb","catch","null","laptops","50","75","45","10","30","20","1","","","","","","","","","",""
"","","","","","choice_trial","survey-html-form","103","977520","0.0-5.0-1.9","26","1","2025-04-11 13:55:26","bb671e3ae32f654b8954ea4c4635f915","","Mozilla/5.0 (X11; CrOS x86_64 14541.0.0) AppleWebKit/537.36 (KHTML, like Gecko) Chrome/134.0.0.0 Safari/537.36","WebKit","Chrome","134.0.0.0","ChromeOS","14541.0.0","https://hz8g1ckzuq.cognition.run/","en-US,en;q=0.9","4n2vgwk325jl80y","45","[""White""]","No","Female","1192886.3000000007","5934","","","{""product_choice"":""C""}","choice","wwb","catch","null","laptops","50","75","45","10","30","20","1","null","null","null","null","null","null","Processing speed","Memory (RAM)","",""
"","","","","","choice_trial_setup","html-keyboard-response","104","977826","0.0-5.0-0.10","26","1","2025-04-11 13:55:26","bb671e3ae32f654b8954ea4c4635f915","","Mozilla/5.0 (X11; CrOS x86_64 14541.0.0) AppleWebKit/537.36 (KHTML, like Gecko) Chrome/134.0.0.0 Safari/537.36","WebKit","Chrome","134.0.0.0","ChromeOS","14541.0.0","https://hz8g1ckzuq.cognition.run/","en-US,en;q=0.9","4n2vgwk325jl80y","45","[""White""]","No","Female","1192886.3000000007","null","","<p></p>","null","choice","ctd","repulsion_1","2","laptops","null","null","null","null","null","null","2","","","","","","","","","",""
"","","","","","choice_trial","survey-html-form","105","985166","0.0-5.0-1.10","26","1","2025-04-11 13:55:26","bb671e3ae32f654b8954ea4c4635f915","","Mozilla/5.0 (X11; CrOS x86_64 14541.0.0) AppleWebKit/537.36 (KHTML, like Gecko) Chrome/134.0.0.0 Safari/537.36","WebKit","Chrome","134.0.0.0","ChromeOS","14541.0.0","https://hz8g1ckzuq.cognition.run/","en-US,en;q=0.9","4n2vgwk325jl80y","45","[""White""]","No","Female","1192886.3000000007","7325","","","{""product_choice"":""B""}","choice","ctd","repulsion_1","2","laptops","null","null","null","null","null","null","2","30","40","25","100","90","100","Processing speed","Memory (RAM)","",""
"","","","","","choice_trial_setup","html-keyboard-response","106","985472","0.0-5.0-0.11","26","1","2025-04-11 13:55:26","bb671e3ae32f654b8954ea4c4635f915","","Mozilla/5.0 (X11; CrOS x86_64 14541.0.0) AppleWebKit/537.36 (KHTML, like Gecko) Chrome/134.0.0.0 Safari/537.36","WebKit","Chrome","134.0.0.0","ChromeOS","14541.0.0","https://hz8g1ckzuq.cognition.run/","en-US,en;q=0.9","4n2vgwk325jl80y","45","[""White""]","No","Female","1192886.3000000007","null","","<p></p>","null","choice","wbw","catch","null","washing machines","75","85","25","20","15","25","2","","","","","","","","","",""
"","","","","","choice_trial","survey-html-form","107","990582","0.0-5.0-1.11","26","1","2025-04-11 13:55:26","bb671e3ae32f654b8954ea4c4635f915","","Mozilla/5.0 (X11; CrOS x86_64 14541.0.0) AppleWebKit/537.36 (KHTML, like Gecko) Chrome/134.0.0.0 Safari/537.36","WebKit","Chrome","134.0.0.0","ChromeOS","14541.0.0","https://hz8g1ckzuq.cognition.run/","en-US,en;q=0.9","4n2vgwk325jl80y","45","[""White""]","No","Female","1192886.3000000007","5093","","","{""product_choice"":""B""}","choice","wbw","catch","null","washing machines","75","85","25","20","15","25","2","null","null","null","null","null","null","Average lifespan","Energy savings","",""
"","","","","","choice_trial_setup","html-keyboard-response","108","990887","0.0-5.0-0.12","26","1","2025-04-11 13:55:26","bb671e3ae32f654b8954ea4c4635f915","","Mozilla/5.0 (X11; CrOS x86_64 14541.0.0) AppleWebKit/537.36 (KHTML, like Gecko) Chrome/134.0.0.0 Safari/537.36","WebKit","Chrome","134.0.0.0","ChromeOS","14541.0.0","https://hz8g1ckzuq.cognition.run/","en-US,en;q=0.9","4n2vgwk325jl80y","45","[""White""]","No","Female","1192886.3000000007","null","","<p></p>","null","choice","cdt","repulsion_2","1","microwave ovens","null","null","null","null","null","null","1","","","","","","","","","",""
"","","","","","choice_trial","survey-html-form","109","994672","0.0-5.0-1.12","26","1","2025-04-11 13:55:26","bb671e3ae32f654b8954ea4c4635f915","","Mozilla/5.0 (X11; CrOS x86_64 14541.0.0) AppleWebKit/537.36 (KHTML, like Gecko) Chrome/134.0.0.0 Safari/537.36","WebKit","Chrome","134.0.0.0","ChromeOS","14541.0.0","https://hz8g1ckzuq.cognition.run/","en-US,en;q=0.9","4n2vgwk325jl80y","45","[""White""]","No","Female","1192886.3000000007","3780","","","{""product_choice"":""C""}","choice","cdt","repulsion_2","1","microwave ovens","null","null","null","null","null","null","1","100","90","100","30","40","20","Warranty","Cooking power","",""
"","","","","","choice_trial_setup","html-keyboard-response","110","994978","0.0-5.0-0.13","26","1","2025-04-11 13:55:26","bb671e3ae32f654b8954ea4c4635f915","","Mozilla/5.0 (X11; CrOS x86_64 14541.0.0) AppleWebKit/537.36 (KHTML, like Gecko) Chrome/134.0.0.0 Safari/537.36","WebKit","Chrome","134.0.0.0","ChromeOS","14541.0.0","https://hz8g1ckzuq.cognition.run/","en-US,en;q=0.9","4n2vgwk325jl80y","45","[""White""]","No","Female","1192886.3000000007","null","","<p></p>","null","choice","dtc","repulsion_2","1","washing machines","null","null","null","null","null","null","2","","","","","","","","","",""
"","","","","","choice_trial","survey-html-form","111","1001289","0.0-5.0-1.13","26","1","2025-04-11 13:55:26","bb671e3ae32f654b8954ea4c4635f915","","Mozilla/5.0 (X11; CrOS x86_64 14541.0.0) AppleWebKit/537.36 (KHTML, like Gecko) Chrome/134.0.0.0 Safari/537.36","WebKit","Chrome","134.0.0.0","ChromeOS","14541.0.0","https://hz8g1ckzuq.cognition.run/","en-US,en;q=0.9","4n2vgwk325jl80y","45","[""White""]","No","Female","1192886.3000000007","6305","","","{""product_choice"":""B""}","choice","dtc","repulsion_2","1","washing machines","null","null","null","null","null","null","2","100","90","100","30","40","20","Average lifespan","Energy savings","",""
"","","","","","choice_trial_setup","html-keyboard-response","112","1001595","0.0-5.0-0.14","26","1","2025-04-11 13:55:26","bb671e3ae32f654b8954ea4c4635f915","","Mozilla/5.0 (X11; CrOS x86_64 14541.0.0) AppleWebKit/537.36 (KHTML, like Gecko) Chrome/134.0.0.0 Safari/537.36","WebKit","Chrome","134.0.0.0","ChromeOS","14541.0.0","https://hz8g1ckzuq.cognition.run/","en-US,en;q=0.9","4n2vgwk325jl80y","45","[""White""]","No","Female","1192886.3000000007","null","","<p></p>","null","choice","tcd","attraction_1","1","washing machines","null","null","null","null","null","null","2","","","","","","","","","",""
"","","","","","choice_trial","survey-html-form","113","1011918","0.0-5.0-1.14","26","1","2025-04-11 13:55:26","bb671e3ae32f654b8954ea4c4635f915","","Mozilla/5.0 (X11; CrOS x86_64 14541.0.0) AppleWebKit/537.36 (KHTML, like Gecko) Chrome/134.0.0.0 Safari/537.36","WebKit","Chrome","134.0.0.0","ChromeOS","14541.0.0","https://hz8g1ckzuq.cognition.run/","en-US,en;q=0.9","4n2vgwk325jl80y","45","[""White""]","No","Female","1192886.3000000007","10317","","","{""product_choice"":""B""}","choice","tcd","attraction_1","1","washing machines","null","null","null","null","null","null","2","60","50","60","50","60","45","Average lifespan","Energy savings","",""
"","","","","","choice_trial_setup","html-keyboard-response","114","1012223","0.0-5.0-0.15","26","1","2025-04-11 13:55:26","bb671e3ae32f654b8954ea4c4635f915","","Mozilla/5.0 (X11; CrOS x86_64 14541.0.0) AppleWebKit/537.36 (KHTML, like Gecko) Chrome/134.0.0.0 Safari/537.36","WebKit","Chrome","134.0.0.0","ChromeOS","14541.0.0","https://hz8g1ckzuq.cognition.run/","en-US,en;q=0.9","4n2vgwk325jl80y","45","[""White""]","No","Female","1192886.3000000007","null","","<p></p>","null","choice","tcd","repulsion_1","2","washing machines","null","null","null","null","null","null","1","","","","","","","","","",""
"","","","","","choice_trial","survey-html-form","115","1021486","0.0-5.0-1.15","26","1","2025-04-11 13:55:26","bb671e3ae32f654b8954ea4c4635f915","","Mozilla/5.0 (X11; CrOS x86_64 14541.0.0) AppleWebKit/537.36 (KHTML, like Gecko) Chrome/134.0.0.0 Safari/537.36","WebKit","Chrome","134.0.0.0","ChromeOS","14541.0.0","https://hz8g1ckzuq.cognition.run/","en-US,en;q=0.9","4n2vgwk325jl80y","45","[""White""]","No","Female","1192886.3000000007","9257","","","{""product_choice"":""B""}","choice","tcd","repulsion_1","2","washing machines","null","null","null","null","null","null","1","30","40","25","100","90","100","Average lifespan","Energy savings","",""
"","","","","","choice_trial_setup","html-keyboard-response","116","1021792","0.0-5.0-0.16","26","1","2025-04-11 13:55:26","bb671e3ae32f654b8954ea4c4635f915","","Mozilla/5.0 (X11; CrOS x86_64 14541.0.0) AppleWebKit/537.36 (KHTML, like Gecko) Chrome/134.0.0.0 Safari/537.36","WebKit","Chrome","134.0.0.0","ChromeOS","14541.0.0","https://hz8g1ckzuq.cognition.run/","en-US,en;q=0.9","4n2vgwk325jl80y","45","[""White""]","No","Female","1192886.3000000007","null","","<p></p>","null","choice","ctd","attraction_2","1","laptops","null","null","null","null","null","null","2","","","","","","","","","",""
"","","","","","choice_trial","survey-html-form","117","1027275","0.0-5.0-1.16","26","1","2025-04-11 13:55:26","bb671e3ae32f654b8954ea4c4635f915","","Mozilla/5.0 (X11; CrOS x86_64 14541.0.0) AppleWebKit/537.36 (KHTML, like Gecko) Chrome/134.0.0.0 Safari/537.36","WebKit","Chrome","134.0.0.0","ChromeOS","14541.0.0","https://hz8g1ckzuq.cognition.run/","en-US,en;q=0.9","4n2vgwk325jl80y","45","[""White""]","No","Female","1192886.3000000007","5477","","","{""product_choice"":""B""}","choice","ctd","attraction_2","1","laptops","null","null","null","null","null","null","2","60","50","60","50","60","40","Processing speed","Memory (RAM)","",""
"","","","","","choice_trial_setup","html-keyboard-response","118","1027581","0.0-5.0-0.17","26","1","2025-04-11 13:55:26","bb671e3ae32f654b8954ea4c4635f915","","Mozilla/5.0 (X11; CrOS x86_64 14541.0.0) AppleWebKit/537.36 (KHTML, like Gecko) Chrome/134.0.0.0 Safari/537.36","WebKit","Chrome","134.0.0.0","ChromeOS","14541.0.0","https://hz8g1ckzuq.cognition.run/","en-US,en;q=0.9","4n2vgwk325jl80y","45","[""White""]","No","Female","1192886.3000000007","null","","<p></p>","null","choice","dtc","attraction_1","2","laptops","null","null","null","null","null","null","1","","","","","","","","","",""
"","","","","","choice_trial","survey-html-form","119","1031024","0.0-5.0-1.17","26","1","2025-04-11 13:55:26","bb671e3ae32f654b8954ea4c4635f915","","Mozilla/5.0 (X11; CrOS x86_64 14541.0.0) AppleWebKit/537.36 (KHTML, like Gecko) Chrome/134.0.0.0 Safari/537.36","WebKit","Chrome","134.0.0.0","ChromeOS","14541.0.0","https://hz8g1ckzuq.cognition.run/","en-US,en;q=0.9","4n2vgwk325jl80y","45","[""White""]","No","Female","1192886.3000000007","3427","","","{""product_choice"":""C""}","choice","dtc","attraction_1","2","laptops","null","null","null","null","null","null","1","50","60","45","60","50","60","Processing speed","Memory (RAM)","",""
"","","","","","choice_trial_setup","html-keyboard-response","120","1031331","0.0-5.0-0.18","26","1","2025-04-11 13:55:26","bb671e3ae32f654b8954ea4c4635f915","","Mozilla/5.0 (X11; CrOS x86_64 14541.0.0) AppleWebKit/537.36 (KHTML, like Gecko) Chrome/134.0.0.0 Safari/537.36","WebKit","Chrome","134.0.0.0","ChromeOS","14541.0.0","https://hz8g1ckzuq.cognition.run/","en-US,en;q=0.9","4n2vgwk325jl80y","45","[""White""]","No","Female","1192886.3000000007","null","","<p></p>","null","choice","ctd","attraction_1","1","microwave ovens","null","null","null","null","null","null","1","","","","","","","","","",""
"","","","","","choice_trial","survey-html-form","121","1037257","0.0-5.0-1.18","26","1","2025-04-11 13:55:26","bb671e3ae32f654b8954ea4c4635f915","","Mozilla/5.0 (X11; CrOS x86_64 14541.0.0) AppleWebKit/537.36 (KHTML, like Gecko) Chrome/134.0.0.0 Safari/537.36","WebKit","Chrome","134.0.0.0","ChromeOS","14541.0.0","https://hz8g1ckzuq.cognition.run/","en-US,en;q=0.9","4n2vgwk325jl80y","45","[""White""]","No","Female","1192886.3000000007","5914","","","{""product_choice"":""B""}","choice","ctd","attraction_1","1","microwave ovens","null","null","null","null","null","null","1","60","50","60","50","60","45","Warranty","Cooking power","",""
"","","","","","choice_trial_setup","html-keyboard-response","122","1037568","0.0-5.0-0.19","26","1","2025-04-11 13:55:26","bb671e3ae32f654b8954ea4c4635f915","","Mozilla/5.0 (X11; CrOS x86_64 14541.0.0) AppleWebKit/537.36 (KHTML, like Gecko) Chrome/134.0.0.0 Safari/537.36","WebKit","Chrome","134.0.0.0","ChromeOS","14541.0.0","https://hz8g1ckzuq.cognition.run/","en-US,en;q=0.9","4n2vgwk325jl80y","45","[""White""]","No","Female","1192886.3000000007","null","","<p></p>","null","choice","tdc","repulsion_1","2","microwave ovens","null","null","null","null","null","null","1","","","","","","","","","",""
"","","","","","choice_trial","survey-html-form","123","1043571","0.0-5.0-1.19","26","1","2025-04-11 13:55:26","bb671e3ae32f654b8954ea4c4635f915","","Mozilla/5.0 (X11; CrOS x86_64 14541.0.0) AppleWebKit/537.36 (KHTML, like Gecko) Chrome/134.0.0.0 Safari/537.36","WebKit","Chrome","134.0.0.0","ChromeOS","14541.0.0","https://hz8g1ckzuq.cognition.run/","en-US,en;q=0.9","4n2vgwk325jl80y","45","[""White""]","No","Female","1192886.3000000007","5997","","","{""product_choice"":""C""}","choice","tdc","repulsion_1","2","microwave ovens","null","null","null","null","null","null","1","30","40","25","100","90","100","Warranty","Cooking power","",""
"","","","","","choice_trial_setup","html-keyboard-response","124","1043877","0.0-5.0-0.20","26","1","2025-04-11 13:55:26","bb671e3ae32f654b8954ea4c4635f915","","Mozilla/5.0 (X11; CrOS x86_64 14541.0.0) AppleWebKit/537.36 (KHTML, like Gecko) Chrome/134.0.0.0 Safari/537.36","WebKit","Chrome","134.0.0.0","ChromeOS","14541.0.0","https://hz8g1ckzuq.cognition.run/","en-US,en;q=0.9","4n2vgwk325jl80y","45","[""White""]","No","Female","1192886.3000000007","null","","<p></p>","null","choice","tcd","attraction_1","1","televisions","null","null","null","null","null","null","1","","","","","","","","","",""
"","","","","","choice_trial","survey-html-form","125","1050734","0.0-5.0-1.20","26","1","2025-04-11 13:55:26","bb671e3ae32f654b8954ea4c4635f915","","Mozilla/5.0 (X11; CrOS x86_64 14541.0.0) AppleWebKit/537.36 (KHTML, like Gecko) Chrome/134.0.0.0 Safari/537.36","WebKit","Chrome","134.0.0.0","ChromeOS","14541.0.0","https://hz8g1ckzuq.cognition.run/","en-US,en;q=0.9","4n2vgwk325jl80y","45","[""White""]","No","Female","1192886.3000000007","6852","","","{""product_choice"":""B""}","choice","tcd","attraction_1","1","televisions","null","null","null","null","null","null","1","60","50","60","50","60","45","Screen size","Average lifespan","",""
"","","","","","choice_trial_setup","html-keyboard-response","126","1051041","0.0-5.0-0.21","26","1","2025-04-11 13:55:26","bb671e3ae32f654b8954ea4c4635f915","","Mozilla/5.0 (X11; CrOS x86_64 14541.0.0) AppleWebKit/537.36 (KHTML, like Gecko) Chrome/134.0.0.0 Safari/537.36","WebKit","Chrome","134.0.0.0","ChromeOS","14541.0.0","https://hz8g1ckzuq.cognition.run/","en-US,en;q=0.9","4n2vgwk325jl80y","45","[""White""]","No","Female","1192886.3000000007","null","","<p></p>","null","choice","dct","repulsion_2","2","microwave ovens","null","null","null","null","null","null","2","","","","","","","","","",""
"","","","","","choice_trial","survey-html-form","127","1054896","0.0-5.0-1.21","26","1","2025-04-11 13:55:26","bb671e3ae32f654b8954ea4c4635f915","","Mozilla/5.0 (X11; CrOS x86_64 14541.0.0) AppleWebKit/537.36 (KHTML, like Gecko) Chrome/134.0.0.0 Safari/537.36","WebKit","Chrome","134.0.0.0","ChromeOS","14541.0.0","https://hz8g1ckzuq.cognition.run/","en-US,en;q=0.9","4n2vgwk325jl80y","45","[""White""]","No","Female","1192886.3000000007","3849","","","{""product_choice"":""C""}","choice","dct","repulsion_2","2","microwave ovens","null","null","null","null","null","null","2","30","40","20","100","90","100","Warranty","Cooking power","",""
"","","","","","choice_trial_setup","html-keyboard-response","128","1055203","0.0-5.0-0.22","26","1","2025-04-11 13:55:26","bb671e3ae32f654b8954ea4c4635f915","","Mozilla/5.0 (X11; CrOS x86_64 14541.0.0) AppleWebKit/537.36 (KHTML, like Gecko) Chrome/134.0.0.0 Safari/537.36","WebKit","Chrome","134.0.0.0","ChromeOS","14541.0.0","https://hz8g1ckzuq.cognition.run/","en-US,en;q=0.9","4n2vgwk325jl80y","45","[""White""]","No","Female","1192886.3000000007","null","","<p></p>","null","choice","cdt","repulsion_2","2","laptops","null","null","null","null","null","null","2","","","","","","","","","",""
"","","","","","choice_trial","survey-html-form","129","1064202","0.0-5.0-1.22","26","1","2025-04-11 13:55:26","bb671e3ae32f654b8954ea4c4635f915","","Mozilla/5.0 (X11; CrOS x86_64 14541.0.0) AppleWebKit/537.36 (KHTML, like Gecko) Chrome/134.0.0.0 Safari/537.36","WebKit","Chrome","134.0.0.0","ChromeOS","14541.0.0","https://hz8g1ckzuq.cognition.run/","en-US,en;q=0.9","4n2vgwk325jl80y","45","[""White""]","No","Female","1192886.3000000007","8992","","","{""product_choice"":""A""}","choice","cdt","repulsion_2","2","laptops","null","null","null","null","null","null","2","30","40","20","100","90","100","Processing speed","Memory (RAM)","",""
"","","","","","choice_trial_setup","html-keyboard-response","130","1064508","0.0-5.0-0.23","26","1","2025-04-11 13:55:26","bb671e3ae32f654b8954ea4c4635f915","","Mozilla/5.0 (X11; CrOS x86_64 14541.0.0) AppleWebKit/537.36 (KHTML, like Gecko) Chrome/134.0.0.0 Safari/537.36","WebKit","Chrome","134.0.0.0","ChromeOS","14541.0.0","https://hz8g1ckzuq.cognition.run/","en-US,en;q=0.9","4n2vgwk325jl80y","45","[""White""]","No","Female","1192886.3000000007","null","","<p></p>","null","choice","tcd","repulsion_2","1","laptops","null","null","null","null","null","null","1","","","","","","","","","",""
"","","","","","choice_trial","survey-html-form","131","1070253","0.0-5.0-1.23","26","1","2025-04-11 13:55:26","bb671e3ae32f654b8954ea4c4635f915","","Mozilla/5.0 (X11; CrOS x86_64 14541.0.0) AppleWebKit/537.36 (KHTML, like Gecko) Chrome/134.0.0.0 Safari/537.36","WebKit","Chrome","134.0.0.0","ChromeOS","14541.0.0","https://hz8g1ckzuq.cognition.run/","en-US,en;q=0.9","4n2vgwk325jl80y","45","[""White""]","No","Female","1192886.3000000007","5729","","","{""product_choice"":""A""}","choice","tcd","repulsion_2","1","laptops","null","null","null","null","null","null","1","100","90","100","30","40","20","Processing speed","Memory (RAM)","",""
"","","","","","choice_trial_setup","html-keyboard-response","132","1070563","0.0-5.0-0.24","26","1","2025-04-11 13:55:26","bb671e3ae32f654b8954ea4c4635f915","","Mozilla/5.0 (X11; CrOS x86_64 14541.0.0) AppleWebKit/537.36 (KHTML, like Gecko) Chrome/134.0.0.0 Safari/537.36","WebKit","Chrome","134.0.0.0","ChromeOS","14541.0.0","https://hz8g1ckzuq.cognition.run/","en-US,en;q=0.9","4n2vgwk325jl80y","45","[""White""]","No","Female","1192886.3000000007","null","","<p></p>","null","choice","bww","catch","null","televisions","65","80","15","35","15","25","2","","","","","","","","","",""
"","","","","","choice_trial","survey-html-form","133","1074972","0.0-5.0-1.24","26","1","2025-04-11 13:55:26","bb671e3ae32f654b8954ea4c4635f915","","Mozilla/5.0 (X11; CrOS x86_64 14541.0.0) AppleWebKit/537.36 (KHTML, like Gecko) Chrome/134.0.0.0 Safari/537.36","WebKit","Chrome","134.0.0.0","ChromeOS","14541.0.0","https://hz8g1ckzuq.cognition.run/","en-US,en;q=0.9","4n2vgwk325jl80y","45","[""White""]","No","Female","1192886.3000000007","4390","","","{""product_choice"":""A""}","choice","bww","catch","null","televisions","65","80","15","35","15","25","2","null","null","null","null","null","null","Screen size","Average lifespan","",""
"","","","","","choice_trial_setup","html-keyboard-response","134","1075282","0.0-5.0-0.25","26","1","2025-04-11 13:55:26","bb671e3ae32f654b8954ea4c4635f915","","Mozilla/5.0 (X11; CrOS x86_64 14541.0.0) AppleWebKit/537.36 (KHTML, like Gecko) Chrome/134.0.0.0 Safari/537.36","WebKit","Chrome","134.0.0.0","ChromeOS","14541.0.0","https://hz8g1ckzuq.cognition.run/","en-US,en;q=0.9","4n2vgwk325jl80y","45","[""White""]","No","Female","1192886.3000000007","null","","<p></p>","null","choice","wbw","catch","null","microwave ovens","55","50","35","5","5","50","2","","","","","","","","","",""
"","","","","","choice_trial","survey-html-form","135","1079006","0.0-5.0-1.25","26","1","2025-04-11 13:55:26","bb671e3ae32f654b8954ea4c4635f915","","Mozilla/5.0 (X11; CrOS x86_64 14541.0.0) AppleWebKit/537.36 (KHTML, like Gecko) Chrome/134.0.0.0 Safari/537.36","WebKit","Chrome","134.0.0.0","ChromeOS","14541.0.0","https://hz8g1ckzuq.cognition.run/","en-US,en;q=0.9","4n2vgwk325jl80y","45","[""White""]","No","Female","1192886.3000000007","3716","","","{""product_choice"":""B""}","choice","wbw","catch","null","microwave ovens","55","50","35","5","5","50","2","null","null","null","null","null","null","Warranty","Cooking power","",""
"","","","","","choice_trial_setup","html-keyboard-response","136","1079316","0.0-5.0-0.26","26","1","2025-04-11 13:55:26","bb671e3ae32f654b8954ea4c4635f915","","Mozilla/5.0 (X11; CrOS x86_64 14541.0.0) AppleWebKit/537.36 (KHTML, like Gecko) Chrome/134.0.0.0 Safari/537.36","WebKit","Chrome","134.0.0.0","ChromeOS","14541.0.0","https://hz8g1ckzuq.cognition.run/","en-US,en;q=0.9","4n2vgwk325jl80y","45","[""White""]","No","Female","1192886.3000000007","null","","<p></p>","null","choice","cdt","attraction_1","2","washing machines","null","null","null","null","null","null","1","","","","","","","","","",""
"","","","","","choice_trial","survey-html-form","137","1085621","0.0-5.0-1.26","26","1","2025-04-11 13:55:26","bb671e3ae32f654b8954ea4c4635f915","","Mozilla/5.0 (X11; CrOS x86_64 14541.0.0) AppleWebKit/537.36 (KHTML, like Gecko) Chrome/134.0.0.0 Safari/537.36","WebKit","Chrome","134.0.0.0","ChromeOS","14541.0.0","https://hz8g1ckzuq.cognition.run/","en-US,en;q=0.9","4n2vgwk325jl80y","45","[""White""]","No","Female","1192886.3000000007","6293","","","{""product_choice"":""C""}","choice","cdt","attraction_1","2","washing machines","null","null","null","null","null","null","1","50","60","45","60","50","60","Average lifespan","Energy savings","",""
"","","","","","choice_trial_setup","html-keyboard-response","138","1085928","0.0-5.0-0.27","26","1","2025-04-11 13:55:26","bb671e3ae32f654b8954ea4c4635f915","","Mozilla/5.0 (X11; CrOS x86_64 14541.0.0) AppleWebKit/537.36 (KHTML, like Gecko) Chrome/134.0.0.0 Safari/537.36","WebKit","Chrome","134.0.0.0","ChromeOS","14541.0.0","https://hz8g1ckzuq.cognition.run/","en-US,en;q=0.9","4n2vgwk325jl80y","45","[""White""]","No","Female","1192886.3000000007","null","","<p></p>","null","choice","tcd","repulsion_1","1","washing machines","null","null","null","null","null","null","2","","","","","","","","","",""
"","","","","","choice_trial","survey-html-form","139","1092118","0.0-5.0-1.27","26","1","2025-04-11 13:55:26","bb671e3ae32f654b8954ea4c4635f915","","Mozilla/5.0 (X11; CrOS x86_64 14541.0.0) AppleWebKit/537.36 (KHTML, like Gecko) Chrome/134.0.0.0 Safari/537.36","WebKit","Chrome","134.0.0.0","ChromeOS","14541.0.0","https://hz8g1ckzuq.cognition.run/","en-US,en;q=0.9","4n2vgwk325jl80y","45","[""White""]","No","Female","1192886.3000000007","6171","","","{""product_choice"":""B""}","choice","tcd","repulsion_1","1","washing machines","null","null","null","null","null","null","2","100","90","100","30","40","25","Average lifespan","Energy savings","",""
"","","","","","choice_trial_setup","html-keyboard-response","140","1092425","0.0-5.0-0.28","26","1","2025-04-11 13:55:26","bb671e3ae32f654b8954ea4c4635f915","","Mozilla/5.0 (X11; CrOS x86_64 14541.0.0) AppleWebKit/537.36 (KHTML, like Gecko) Chrome/134.0.0.0 Safari/537.36","WebKit","Chrome","134.0.0.0","ChromeOS","14541.0.0","https://hz8g1ckzuq.cognition.run/","en-US,en;q=0.9","4n2vgwk325jl80y","45","[""White""]","No","Female","1192886.3000000007","null","","<p></p>","null","choice","tcd","attraction_2","2","microwave ovens","null","null","null","null","null","null","2","","","","","","","","","",""
"","","","","","choice_trial","survey-html-form","141","1098191","0.0-5.0-1.28","26","1","2025-04-11 13:55:26","bb671e3ae32f654b8954ea4c4635f915","","Mozilla/5.0 (X11; CrOS x86_64 14541.0.0) AppleWebKit/537.36 (KHTML, like Gecko) Chrome/134.0.0.0 Safari/537.36","WebKit","Chrome","134.0.0.0","ChromeOS","14541.0.0","https://hz8g1ckzuq.cognition.run/","en-US,en;q=0.9","4n2vgwk325jl80y","45","[""White""]","No","Female","1192886.3000000007","5754","","","{""product_choice"":""B""}","choice","tcd","attraction_2","2","microwave ovens","null","null","null","null","null","null","2","50","60","40","60","50","60","Warranty","Cooking power","",""
"","","","","","choice_trial_setup","html-keyboard-response","142","1098499","0.0-5.0-0.29","26","1","2025-04-11 13:55:26","bb671e3ae32f654b8954ea4c4635f915","","Mozilla/5.0 (X11; CrOS x86_64 14541.0.0) AppleWebKit/537.36 (KHTML, like Gecko) Chrome/134.0.0.0 Safari/537.36","WebKit","Chrome","134.0.0.0","ChromeOS","14541.0.0","https://hz8g1ckzuq.cognition.run/","en-US,en;q=0.9","4n2vgwk325jl80y","45","[""White""]","No","Female","1192886.3000000007","null","","<p></p>","null","choice","dtc","repulsion_2","1","televisions","null","null","null","null","null","null","2","","","","","","","","","",""
"","","","","","choice_trial","survey-html-form","143","1105182","0.0-5.0-1.29","26","1","2025-04-11 13:55:26","bb671e3ae32f654b8954ea4c4635f915","","Mozilla/5.0 (X11; CrOS x86_64 14541.0.0) AppleWebKit/537.36 (KHTML, like Gecko) Chrome/134.0.0.0 Safari/537.36","WebKit","Chrome","134.0.0.0","ChromeOS","14541.0.0","https://hz8g1ckzuq.cognition.run/","en-US,en;q=0.9","4n2vgwk325jl80y","45","[""White""]","No","Female","1192886.3000000007","6675","","","{""product_choice"":""C""}","choice","dtc","repulsion_2","1","televisions","null","null","null","null","null","null","2","100","90","100","30","40","20","Screen size","Average lifespan","",""
"","","","","","choice_trial_setup","html-keyboard-response","144","1105496","0.0-5.0-0.30","26","1","2025-04-11 13:55:26","bb671e3ae32f654b8954ea4c4635f915","","Mozilla/5.0 (X11; CrOS x86_64 14541.0.0) AppleWebKit/537.36 (KHTML, like Gecko) Chrome/134.0.0.0 Safari/537.36","WebKit","Chrome","134.0.0.0","ChromeOS","14541.0.0","https://hz8g1ckzuq.cognition.run/","en-US,en;q=0.9","4n2vgwk325jl80y","45","[""White""]","No","Female","1192886.3000000007","null","","<p></p>","null","choice","dtc","repulsion_1","1","televisions","null","null","null","null","null","null","2","","","","","","","","","",""
"","","","","","choice_trial","survey-html-form","145","1111296","0.0-5.0-1.30","26","1","2025-04-11 13:55:26","bb671e3ae32f654b8954ea4c4635f915","","Mozilla/5.0 (X11; CrOS x86_64 14541.0.0) AppleWebKit/537.36 (KHTML, like Gecko) Chrome/134.0.0.0 Safari/537.36","WebKit","Chrome","134.0.0.0","ChromeOS","14541.0.0","https://hz8g1ckzuq.cognition.run/","en-US,en;q=0.9","4n2vgwk325jl80y","45","[""White""]","No","Female","1192886.3000000007","5792","","","{""product_choice"":""C""}","choice","dtc","repulsion_1","1","televisions","null","null","null","null","null","null","2","100","90","100","30","40","25","Screen size","Average lifespan","",""
"","","","","","choice_trial_setup","html-keyboard-response","146","1111603","0.0-5.0-0.31","26","1","2025-04-11 13:55:26","bb671e3ae32f654b8954ea4c4635f915","","Mozilla/5.0 (X11; CrOS x86_64 14541.0.0) AppleWebKit/537.36 (KHTML, like Gecko) Chrome/134.0.0.0 Safari/537.36","WebKit","Chrome","134.0.0.0","ChromeOS","14541.0.0","https://hz8g1ckzuq.cognition.run/","en-US,en;q=0.9","4n2vgwk325jl80y","45","[""White""]","No","Female","1192886.3000000007","null","","<p></p>","null","choice","wbw","catch","null","laptops","90","85","35","20","50","40","2","","","","","","","","","",""
"","","","","","choice_trial","survey-html-form","147","1115661","0.0-5.0-1.31","26","1","2025-04-11 13:55:26","bb671e3ae32f654b8954ea4c4635f915","","Mozilla/5.0 (X11; CrOS x86_64 14541.0.0) AppleWebKit/537.36 (KHTML, like Gecko) Chrome/134.0.0.0 Safari/537.36","WebKit","Chrome","134.0.0.0","ChromeOS","14541.0.0","https://hz8g1ckzuq.cognition.run/","en-US,en;q=0.9","4n2vgwk325jl80y","45","[""White""]","No","Female","1192886.3000000007","4052","","","{""product_choice"":""B""}","choice","wbw","catch","null","laptops","90","85","35","20","50","40","2","null","null","null","null","null","null","Processing speed","Memory (RAM)","",""
"","","","","","choice_trial_setup","html-keyboard-response","148","1115969","0.0-5.0-0.32","26","1","2025-04-11 13:55:26","bb671e3ae32f654b8954ea4c4635f915","","Mozilla/5.0 (X11; CrOS x86_64 14541.0.0) AppleWebKit/537.36 (KHTML, like Gecko) Chrome/134.0.0.0 Safari/537.36","WebKit","Chrome","134.0.0.0","ChromeOS","14541.0.0","https://hz8g1ckzuq.cognition.run/","en-US,en;q=0.9","4n2vgwk325jl80y","45","[""White""]","No","Female","1192886.3000000007","null","","<p></p>","null","choice","dtc","attraction_1","1","laptops","null","null","null","null","null","null","2","","","","","","","","","",""
"","","","","","choice_trial","survey-html-form","149","1121511","0.0-5.0-1.32","26","1","2025-04-11 13:55:26","bb671e3ae32f654b8954ea4c4635f915","","Mozilla/5.0 (X11; CrOS x86_64 14541.0.0) AppleWebKit/537.36 (KHTML, like Gecko) Chrome/134.0.0.0 Safari/537.36","WebKit","Chrome","134.0.0.0","ChromeOS","14541.0.0","https://hz8g1ckzuq.cognition.run/","en-US,en;q=0.9","4n2vgwk325jl80y","45","[""White""]","No","Female","1192886.3000000007","5534","","","{""product_choice"":""B""}","choice","dtc","attraction_1","1","laptops","null","null","null","null","null","null","2","60","50","60","50","60","45","Processing speed","Memory (RAM)","",""
"","","","","","choice_trial_setup","html-keyboard-response","150","1121819","0.0-5.0-0.33","26","1","2025-04-11 13:55:26","bb671e3ae32f654b8954ea4c4635f915","","Mozilla/5.0 (X11; CrOS x86_64 14541.0.0) AppleWebKit/537.36 (KHTML, like Gecko) Chrome/134.0.0.0 Safari/537.36","WebKit","Chrome","134.0.0.0","ChromeOS","14541.0.0","https://hz8g1ckzuq.cognition.run/","en-US,en;q=0.9","4n2vgwk325jl80y","45","[""White""]","No","Female","1192886.3000000007","null","","<p></p>","null","choice","ctd","attraction_2","2","laptops","null","null","null","null","null","null","1","","","","","","","","","",""
"","","","","","choice_trial","survey-html-form","151","1126645","0.0-5.0-1.33","26","1","2025-04-11 13:55:26","bb671e3ae32f654b8954ea4c4635f915","","Mozilla/5.0 (X11; CrOS x86_64 14541.0.0) AppleWebKit/537.36 (KHTML, like Gecko) Chrome/134.0.0.0 Safari/537.36","WebKit","Chrome","134.0.0.0","ChromeOS","14541.0.0","https://hz8g1ckzuq.cognition.run/","en-US,en;q=0.9","4n2vgwk325jl80y","45","[""White""]","No","Female","1192886.3000000007","4817","","","{""product_choice"":""B""}","choice","ctd","attraction_2","2","laptops","null","null","null","null","null","null","1","50","60","40","60","50","60","Processing speed","Memory (RAM)","",""
"","","","","","choice_trial_setup","html-keyboard-response","152","1126952","0.0-5.0-0.34","26","1","2025-04-11 13:55:26","bb671e3ae32f654b8954ea4c4635f915","","Mozilla/5.0 (X11; CrOS x86_64 14541.0.0) AppleWebKit/537.36 (KHTML, like Gecko) Chrome/134.0.0.0 Safari/537.36","WebKit","Chrome","134.0.0.0","ChromeOS","14541.0.0","https://hz8g1ckzuq.cognition.run/","en-US,en;q=0.9","4n2vgwk325jl80y","45","[""White""]","No","Female","1192886.3000000007","null","","<p></p>","null","choice","dtc","attraction_1","2","televisions","null","null","null","null","null","null","1","","","","","","","","","",""
"","","","","","choice_trial","survey-html-form","153","1133798","0.0-5.0-1.34","26","1","2025-04-11 13:55:26","bb671e3ae32f654b8954ea4c4635f915","","Mozilla/5.0 (X11; CrOS x86_64 14541.0.0) AppleWebKit/537.36 (KHTML, like Gecko) Chrome/134.0.0.0 Safari/537.36","WebKit","Chrome","134.0.0.0","ChromeOS","14541.0.0","https://hz8g1ckzuq.cognition.run/","en-US,en;q=0.9","4n2vgwk325jl80y","45","[""White""]","No","Female","1192886.3000000007","6839","","","{""product_choice"":""B""}","choice","dtc","attraction_1","2","televisions","null","null","null","null","null","null","1","50","60","45","60","50","60","Screen size","Average lifespan","",""
"","","","","","choice_trial_setup","html-keyboard-response","154","1134105","0.0-5.0-0.35","26","1","2025-04-11 13:55:26","bb671e3ae32f654b8954ea4c4635f915","","Mozilla/5.0 (X11; CrOS x86_64 14541.0.0) AppleWebKit/537.36 (KHTML, like Gecko) Chrome/134.0.0.0 Safari/537.36","WebKit","Chrome","134.0.0.0","ChromeOS","14541.0.0","https://hz8g1ckzuq.cognition.run/","en-US,en;q=0.9","4n2vgwk325jl80y","45","[""White""]","No","Female","1192886.3000000007","null","","<p></p>","null","choice","ctd","attraction_2","1","washing machines","null","null","null","null","null","null","2","","","","","","","","","",""
"","","","","","choice_trial","survey-html-form","155","1139062","0.0-5.0-1.35","26","1","2025-04-11 13:55:26","bb671e3ae32f654b8954ea4c4635f915","","Mozilla/5.0 (X11; CrOS x86_64 14541.0.0) AppleWebKit/537.36 (KHTML, like Gecko) Chrome/134.0.0.0 Safari/537.36","WebKit","Chrome","134.0.0.0","ChromeOS","14541.0.0","https://hz8g1ckzuq.cognition.run/","en-US,en;q=0.9","4n2vgwk325jl80y","45","[""White""]","No","Female","1192886.3000000007","4950","","","{""product_choice"":""B""}","choice","ctd","attraction_2","1","washing machines","null","null","null","null","null","null","2","60","50","60","50","60","40","Average lifespan","Energy savings","",""
