"success","timeout","failed_images","failed_audio","failed_video","screen_id","trial_type","trial_index","time_elapsed","internal_node_id","run_id","condition","recorded_at","source_code_version","ip","user_agent","device","browser","browser_version","platform","platform_version","referer","accept_language","ppt_id","age","race","ethnicity","gender","exp_duration","rt","view_history","stimulus","response","phase","order","effect","t_high","category","d1_best","d2_best","d1_worst1","d2_worst1","d1_worst2","d2_worst2","first_dim","d1_t","d1_c","d1_d","d2_t","d2_c","d2_d","d1_name","d2_name","strategy_response","question_order"
"true","false","[]","[]","[]","img preload","preload","0","5316","0.0-0.0","28","1","2025-04-11 13:58:08","bb671e3ae32f654b8954ea4c4635f915","","Mozilla/5.0 (Windows NT 10.0; Win64; x64) AppleWebKit/537.36 (KHTML, like Gecko) Chrome/134.0.0.0 Safari/537.36","WebKit","Chrome","134.0.0.0","Windows","10.0","https://hz8g1ckzuq.cognition.run/","en-US,en;q=0.9","cqgnqpw5kyy5hvc","31","[""Black or African-American""]","No","Male","1454884.5999999642","","","","","","","","","","","","","","","","","","","","","","","","","",""
"true","","","","","","fullscreen","1","8750","0.0-1.0","28","1","2025-04-11 13:58:08","bb671e3ae32f654b8954ea4c4635f915","","Mozilla/5.0 (Windows NT 10.0; Win64; x64) AppleWebKit/537.36 (KHTML, like Gecko) Chrome/134.0.0.0 Safari/537.36","WebKit","Chrome","134.0.0.0","Windows","10.0","https://hz8g1ckzuq.cognition.run/","en-US,en;q=0.9","cqgnqpw5kyy5hvc","31","[""Black or African-American""]","No","Male","1454884.5999999642","2420","","","","","","","","","","","","","","","","","","","","","","","","",""
"","","","","","","instructions","2","104967","0.0-2.0","28","1","2025-04-11 13:58:08","bb671e3ae32f654b8954ea4c4635f915","","Mozilla/5.0 (Windows NT 10.0; Win64; x64) AppleWebKit/537.36 (KHTML, like Gecko) Chrome/134.0.0.0 Safari/537.36","WebKit","Chrome","134.0.0.0","Windows","10.0","https://hz8g1ckzuq.cognition.run/","en-US,en;q=0.9","cqgnqpw5kyy5hvc","31","[""Black or African-American""]","No","Male","1454884.5999999642","96215","[{""page_index"":0,""viewing_time"":9108},{""page_index"":1,""viewing_time"":6808},{""page_index"":2,""viewing_time"":5276},{""page_index"":3,""viewing_time"":21306},{""page_index"":4,""viewing_time"":8927},{""page_index"":5,""viewing_time"":4969},{""page_index"":6,""viewing_time"":4753},{""page_index"":7,""viewing_time"":21305},{""page_index"":8,""viewing_time"":8001},{""page_index"":9,""viewing_time"":5763}]","","","","","","","","","","","","","","","","","","","","","","","",""
"","","","","","rating_trial_setup","html-keyboard-response","3","105275","0.0-3.0-0.0","28","1","2025-04-11 13:58:08","bb671e3ae32f654b8954ea4c4635f915","","Mozilla/5.0 (Windows NT 10.0; Win64; x64) AppleWebKit/537.36 (KHTML, like Gecko) Chrome/134.0.0.0 Safari/537.36","WebKit","Chrome","134.0.0.0","Windows","10.0","https://hz8g1ckzuq.cognition.run/","en-US,en;q=0.9","cqgnqpw5kyy5hvc","31","[""Black or African-American""]","No","Male","1454884.5999999642","null","","<p></p>","null","rating","wwb","catch","null","microwave ovens","90","80","10","25","45","30","2","","","","","","","","","",""
"","","","","","rating_trial","survey-html-form","4","202484","0.0-3.0-1.0","28","1","2025-04-11 13:58:08","bb671e3ae32f654b8954ea4c4635f915","","Mozilla/5.0 (Windows NT 10.0; Win64; x64) AppleWebKit/537.36 (KHTML, like Gecko) Chrome/134.0.0.0 Safari/537.36","WebKit","Chrome","134.0.0.0","Windows","10.0","https://hz8g1ckzuq.cognition.run/","en-US,en;q=0.9","cqgnqpw5kyy5hvc","31","[""Black or African-American""]","No","Male","1454884.5999999642","97194","","","{""price_1"":""60"",""price_2"":""75"",""price_3"":""100""}","rating","wwb","catch","null","microwave ovens","90","80","10","25","45","30","2","null","null","null","null","null","null","Warranty","Cooking power","",""
"","","","","","rating_trial_setup","html-keyboard-response","5","202788","0.0-3.0-0.1","28","1","2025-04-11 13:58:08","bb671e3ae32f654b8954ea4c4635f915","","Mozilla/5.0 (Windows NT 10.0; Win64; x64) AppleWebKit/537.36 (KHTML, like Gecko) Chrome/134.0.0.0 Safari/537.36","WebKit","Chrome","134.0.0.0","Windows","10.0","https://hz8g1ckzuq.cognition.run/","en-US,en;q=0.9","cqgnqpw5kyy5hvc","31","[""Black or African-American""]","No","Male","1454884.5999999642","null","","<p></p>","null","rating","ctd","attraction_2","1","microwave ovens","null","null","null","null","null","null","1","","","","","","","","","",""
"","","","","","rating_trial","survey-html-form","6","237961","0.0-3.0-1.1","28","1","2025-04-11 13:58:08","bb671e3ae32f654b8954ea4c4635f915","","Mozilla/5.0 (Windows NT 10.0; Win64; x64) AppleWebKit/537.36 (KHTML, like Gecko) Chrome/134.0.0.0 Safari/537.36","WebKit","Chrome","134.0.0.0","Windows","10.0","https://hz8g1ckzuq.cognition.run/","en-US,en;q=0.9","cqgnqpw5kyy5hvc","31","[""Black or African-American""]","No","Male","1454884.5999999642","35170","","","{""price_1"":""77"",""price_2"":""77"",""price_3"":""70""}","rating","ctd","attraction_2","1","microwave ovens","null","null","null","null","null","null","1","60","50","60","50","60","40","Warranty","Cooking power","",""
"","","","","","rating_trial_setup","html-keyboard-response","7","238264","0.0-3.0-0.2","28","1","2025-04-11 13:58:08","bb671e3ae32f654b8954ea4c4635f915","","Mozilla/5.0 (Windows NT 10.0; Win64; x64) AppleWebKit/537.36 (KHTML, like Gecko) Chrome/134.0.0.0 Safari/537.36","WebKit","Chrome","134.0.0.0","Windows","10.0","https://hz8g1ckzuq.cognition.run/","en-US,en;q=0.9","cqgnqpw5kyy5hvc","31","[""Black or African-American""]","No","Male","1454884.5999999642","null","","<p></p>","null","rating","ctd","attraction_1","1","televisions","null","null","null","null","null","null","2","","","","","","","","","",""
"","","","","","rating_trial","survey-html-form","8","277750","0.0-3.0-1.2","28","1","2025-04-11 13:58:08","bb671e3ae32f654b8954ea4c4635f915","","Mozilla/5.0 (Windows NT 10.0; Win64; x64) AppleWebKit/537.36 (KHTML, like Gecko) Chrome/134.0.0.0 Safari/537.36","WebKit","Chrome","134.0.0.0","Windows","10.0","https://hz8g1ckzuq.cognition.run/","en-US,en;q=0.9","cqgnqpw5kyy5hvc","31","[""Black or African-American""]","No","Male","1454884.5999999642","39482","","","{""price_1"":""600"",""price_2"":""600"",""price_3"":""550""}","rating","ctd","attraction_1","1","televisions","null","null","null","null","null","null","2","60","50","60","50","60","45","Screen size","Average lifespan","",""
"","","","","","rating_trial_setup","html-keyboard-response","9","278056","0.0-3.0-0.3","28","1","2025-04-11 13:58:08","bb671e3ae32f654b8954ea4c4635f915","","Mozilla/5.0 (Windows NT 10.0; Win64; x64) AppleWebKit/537.36 (KHTML, like Gecko) Chrome/134.0.0.0 Safari/537.36","WebKit","Chrome","134.0.0.0","Windows","10.0","https://hz8g1ckzuq.cognition.run/","en-US,en;q=0.9","cqgnqpw5kyy5hvc","31","[""Black or African-American""]","No","Male","1454884.5999999642","null","","<p></p>","null","rating","wwb","catch","null","televisions","95","75","45","40","35","15","2","","","","","","","","","",""
"","","","","","rating_trial","survey-html-form","10","302862","0.0-3.0-1.3","28","1","2025-04-11 13:58:08","bb671e3ae32f654b8954ea4c4635f915","","Mozilla/5.0 (Windows NT 10.0; Win64; x64) AppleWebKit/537.36 (KHTML, like Gecko) Chrome/134.0.0.0 Safari/537.36","WebKit","Chrome","134.0.0.0","Windows","10.0","https://hz8g1ckzuq.cognition.run/","en-US,en;q=0.9","cqgnqpw5kyy5hvc","31","[""Black or African-American""]","No","Male","1454884.5999999642","24803","","","{""price_1"":""450"",""price_2"":""250"",""price_3"":""1000""}","rating","wwb","catch","null","televisions","95","75","45","40","35","15","2","null","null","null","null","null","null","Screen size","Average lifespan","",""
"","","","","","rating_trial_setup","html-keyboard-response","11","303165","0.0-3.0-0.4","28","1","2025-04-11 13:58:08","bb671e3ae32f654b8954ea4c4635f915","","Mozilla/5.0 (Windows NT 10.0; Win64; x64) AppleWebKit/537.36 (KHTML, like Gecko) Chrome/134.0.0.0 Safari/537.36","WebKit","Chrome","134.0.0.0","Windows","10.0","https://hz8g1ckzuq.cognition.run/","en-US,en;q=0.9","cqgnqpw5kyy5hvc","31","[""Black or African-American""]","No","Male","1454884.5999999642","null","","<p></p>","null","rating","cdt","attraction_2","1","laptops","null","null","null","null","null","null","1","","","","","","","","","",""
"","","","","","rating_trial","survey-html-form","12","348274","0.0-3.0-1.4","28","1","2025-04-11 13:58:08","bb671e3ae32f654b8954ea4c4635f915","","Mozilla/5.0 (Windows NT 10.0; Win64; x64) AppleWebKit/537.36 (KHTML, like Gecko) Chrome/134.0.0.0 Safari/537.36","WebKit","Chrome","134.0.0.0","Windows","10.0","https://hz8g1ckzuq.cognition.run/","en-US,en;q=0.9","cqgnqpw5kyy5hvc","31","[""Black or African-American""]","No","Male","1454884.5999999642","45104","","","{""price_1"":""650"",""price_2"":""600"",""price_3"":""650""}","rating","cdt","attraction_2","1","laptops","null","null","null","null","null","null","1","60","50","60","50","60","40","Processing speed","Memory (RAM)","",""
"","","","","","rating_trial_setup","html-keyboard-response","13","348577","0.0-3.0-0.5","28","1","2025-04-11 13:58:08","bb671e3ae32f654b8954ea4c4635f915","","Mozilla/5.0 (Windows NT 10.0; Win64; x64) AppleWebKit/537.36 (KHTML, like Gecko) Chrome/134.0.0.0 Safari/537.36","WebKit","Chrome","134.0.0.0","Windows","10.0","https://hz8g1ckzuq.cognition.run/","en-US,en;q=0.9","cqgnqpw5kyy5hvc","31","[""Black or African-American""]","No","Male","1454884.5999999642","null","","<p></p>","null","rating","dtc","repulsion_2","1","washing machines","null","null","null","null","null","null","1","","","","","","","","","",""
"","","","","","rating_trial","survey-html-form","14","404962","0.0-3.0-1.5","28","1","2025-04-11 13:58:08","bb671e3ae32f654b8954ea4c4635f915","","Mozilla/5.0 (Windows NT 10.0; Win64; x64) AppleWebKit/537.36 (KHTML, like Gecko) Chrome/134.0.0.0 Safari/537.36","WebKit","Chrome","134.0.0.0","Windows","10.0","https://hz8g1ckzuq.cognition.run/","en-US,en;q=0.9","cqgnqpw5kyy5hvc","31","[""Black or African-American""]","No","Male","1454884.5999999642","56381","","","{""price_1"":""800"",""price_2"":""850"",""price_3"":""900""}","rating","dtc","repulsion_2","1","washing machines","null","null","null","null","null","null","1","100","90","100","30","40","20","Average lifespan","Energy savings","",""
"","","","","","rating_trial_setup","html-keyboard-response","15","405265","0.0-3.0-0.6","28","1","2025-04-11 13:58:08","bb671e3ae32f654b8954ea4c4635f915","","Mozilla/5.0 (Windows NT 10.0; Win64; x64) AppleWebKit/537.36 (KHTML, like Gecko) Chrome/134.0.0.0 Safari/537.36","WebKit","Chrome","134.0.0.0","Windows","10.0","https://hz8g1ckzuq.cognition.run/","en-US,en;q=0.9","cqgnqpw5kyy5hvc","31","[""Black or African-American""]","No","Male","1454884.5999999642","null","","<p></p>","null","rating","dtc","repulsion_2","1","televisions","null","null","null","null","null","null","2","","","","","","","","","",""
"","","","","","rating_trial","survey-html-form","16","423637","0.0-3.0-1.6","28","1","2025-04-11 13:58:08","bb671e3ae32f654b8954ea4c4635f915","","Mozilla/5.0 (Windows NT 10.0; Win64; x64) AppleWebKit/537.36 (KHTML, like Gecko) Chrome/134.0.0.0 Safari/537.36","WebKit","Chrome","134.0.0.0","Windows","10.0","https://hz8g1ckzuq.cognition.run/","en-US,en;q=0.9","cqgnqpw5kyy5hvc","31","[""Black or African-American""]","No","Male","1454884.5999999642","18368","","","{""price_1"":""600"",""price_2"":""700"",""price_3"":""800""}","rating","dtc","repulsion_2","1","televisions","null","null","null","null","null","null","2","100","90","100","30","40","20","Screen size","Average lifespan","",""
"","","","","","rating_trial_setup","html-keyboard-response","17","423940","0.0-3.0-0.7","28","1","2025-04-11 13:58:08","bb671e3ae32f654b8954ea4c4635f915","","Mozilla/5.0 (Windows NT 10.0; Win64; x64) AppleWebKit/537.36 (KHTML, like Gecko) Chrome/134.0.0.0 Safari/537.36","WebKit","Chrome","134.0.0.0","Windows","10.0","https://hz8g1ckzuq.cognition.run/","en-US,en;q=0.9","cqgnqpw5kyy5hvc","31","[""Black or African-American""]","No","Male","1454884.5999999642","null","","<p></p>","null","rating","ctd","repulsion_1","2","televisions","null","null","null","null","null","null","1","","","","","","","","","",""
"","","","","","rating_trial","survey-html-form","18","450897","0.0-3.0-1.7","28","1","2025-04-11 13:58:08","bb671e3ae32f654b8954ea4c4635f915","","Mozilla/5.0 (Windows NT 10.0; Win64; x64) AppleWebKit/537.36 (KHTML, like Gecko) Chrome/134.0.0.0 Safari/537.36","WebKit","Chrome","134.0.0.0","Windows","10.0","https://hz8g1ckzuq.cognition.run/","en-US,en;q=0.9","cqgnqpw5kyy5hvc","31","[""Black or African-American""]","No","Male","1454884.5999999642","26953","","","{""price_1"":""800"",""price_2"":""700"",""price_3"":""650""}","rating","ctd","repulsion_1","2","televisions","null","null","null","null","null","null","1","30","40","25","100","90","100","Screen size","Average lifespan","",""
"","","","","","rating_trial_setup","html-keyboard-response","19","451200","0.0-3.0-0.8","28","1","2025-04-11 13:58:08","bb671e3ae32f654b8954ea4c4635f915","","Mozilla/5.0 (Windows NT 10.0; Win64; x64) AppleWebKit/537.36 (KHTML, like Gecko) Chrome/134.0.0.0 Safari/537.36","WebKit","Chrome","134.0.0.0","Windows","10.0","https://hz8g1ckzuq.cognition.run/","en-US,en;q=0.9","cqgnqpw5kyy5hvc","31","[""Black or African-American""]","No","Male","1454884.5999999642","null","","<p></p>","null","rating","bww","catch","null","washing machines","65","80","45","35","10","50","2","","","","","","","","","",""
"","","","","","rating_trial","survey-html-form","20","480934","0.0-3.0-1.8","28","1","2025-04-11 13:58:08","bb671e3ae32f654b8954ea4c4635f915","","Mozilla/5.0 (Windows NT 10.0; Win64; x64) AppleWebKit/537.36 (KHTML, like Gecko) Chrome/134.0.0.0 Safari/537.36","WebKit","Chrome","134.0.0.0","Windows","10.0","https://hz8g1ckzuq.cognition.run/","en-US,en;q=0.9","cqgnqpw5kyy5hvc","31","[""Black or African-American""]","No","Male","1454884.5999999642","29730","","","{""price_1"":""900"",""price_2"":""500"",""price_3"":""400""}","rating","bww","catch","null","washing machines","65","80","45","35","10","50","2","null","null","null","null","null","null","Average lifespan","Energy savings","",""
"","","","","","rating_trial_setup","html-keyboard-response","21","481237","0.0-3.0-0.9","28","1","2025-04-11 13:58:08","bb671e3ae32f654b8954ea4c4635f915","","Mozilla/5.0 (Windows NT 10.0; Win64; x64) AppleWebKit/537.36 (KHTML, like Gecko) Chrome/134.0.0.0 Safari/537.36","WebKit","Chrome","134.0.0.0","Windows","10.0","https://hz8g1ckzuq.cognition.run/","en-US,en;q=0.9","cqgnqpw5kyy5hvc","31","[""Black or African-American""]","No","Male","1454884.5999999642","null","","<p></p>","null","rating","ctd","repulsion_2","2","televisions","null","null","null","null","null","null","1","","","","","","","","","",""
"","","","","","rating_trial","survey-html-form","22","498566","0.0-3.0-1.9","28","1","2025-04-11 13:58:08","bb671e3ae32f654b8954ea4c4635f915","","Mozilla/5.0 (Windows NT 10.0; Win64; x64) AppleWebKit/537.36 (KHTML, like Gecko) Chrome/134.0.0.0 Safari/537.36","WebKit","Chrome","134.0.0.0","Windows","10.0","https://hz8g1ckzuq.cognition.run/","en-US,en;q=0.9","cqgnqpw5kyy5hvc","31","[""Black or African-American""]","No","Male","1454884.5999999642","17325","","","{""price_1"":""800"",""price_2"":""700"",""price_3"":""600""}","rating","ctd","repulsion_2","2","televisions","null","null","null","null","null","null","1","30","40","20","100","90","100","Screen size","Average lifespan","",""
"","","","","","rating_trial_setup","html-keyboard-response","23","498870","0.0-3.0-0.10","28","1","2025-04-11 13:58:08","bb671e3ae32f654b8954ea4c4635f915","","Mozilla/5.0 (Windows NT 10.0; Win64; x64) AppleWebKit/537.36 (KHTML, like Gecko) Chrome/134.0.0.0 Safari/537.36","WebKit","Chrome","134.0.0.0","Windows","10.0","https://hz8g1ckzuq.cognition.run/","en-US,en;q=0.9","cqgnqpw5kyy5hvc","31","[""Black or African-American""]","No","Male","1454884.5999999642","null","","<p></p>","null","rating","cdt","repulsion_2","1","laptops","null","null","null","null","null","null","2","","","","","","","","","",""
"","","","","","rating_trial","survey-html-form","24","532023","0.0-3.0-1.10","28","1","2025-04-11 13:58:08","bb671e3ae32f654b8954ea4c4635f915","","Mozilla/5.0 (Windows NT 10.0; Win64; x64) AppleWebKit/537.36 (KHTML, like Gecko) Chrome/134.0.0.0 Safari/537.36","WebKit","Chrome","134.0.0.0","Windows","10.0","https://hz8g1ckzuq.cognition.run/","en-US,en;q=0.9","cqgnqpw5kyy5hvc","31","[""Black or African-American""]","No","Male","1454884.5999999642","33148","","","{""price_1"":""800"",""price_2"":""650"",""price_3"":""700""}","rating","cdt","repulsion_2","1","laptops","null","null","null","null","null","null","2","100","90","100","30","40","20","Processing speed","Memory (RAM)","",""
"","","","","","rating_trial_setup","html-keyboard-response","25","532332","0.0-3.0-0.11","28","1","2025-04-11 13:58:08","bb671e3ae32f654b8954ea4c4635f915","","Mozilla/5.0 (Windows NT 10.0; Win64; x64) AppleWebKit/537.36 (KHTML, like Gecko) Chrome/134.0.0.0 Safari/537.36","WebKit","Chrome","134.0.0.0","Windows","10.0","https://hz8g1ckzuq.cognition.run/","en-US,en;q=0.9","cqgnqpw5kyy5hvc","31","[""Black or African-American""]","No","Male","1454884.5999999642","null","","<p></p>","null","rating","tdc","attraction_2","1","televisions","null","null","null","null","null","null","1","","","","","","","","","",""
"","","","","","rating_trial","survey-html-form","26","552720","0.0-3.0-1.11","28","1","2025-04-11 13:58:08","bb671e3ae32f654b8954ea4c4635f915","","Mozilla/5.0 (Windows NT 10.0; Win64; x64) AppleWebKit/537.36 (KHTML, like Gecko) Chrome/134.0.0.0 Safari/537.36","WebKit","Chrome","134.0.0.0","Windows","10.0","https://hz8g1ckzuq.cognition.run/","en-US,en;q=0.9","cqgnqpw5kyy5hvc","31","[""Black or African-American""]","No","Male","1454884.5999999642","20385","","","{""price_1"":""600"",""price_2"":""550"",""price_3"":""600""}","rating","tdc","attraction_2","1","televisions","null","null","null","null","null","null","1","60","50","60","50","60","40","Screen size","Average lifespan","",""
"","","","","","rating_trial_setup","html-keyboard-response","27","553024","0.0-3.0-0.12","28","1","2025-04-11 13:58:08","bb671e3ae32f654b8954ea4c4635f915","","Mozilla/5.0 (Windows NT 10.0; Win64; x64) AppleWebKit/537.36 (KHTML, like Gecko) Chrome/134.0.0.0 Safari/537.36","WebKit","Chrome","134.0.0.0","Windows","10.0","https://hz8g1ckzuq.cognition.run/","en-US,en;q=0.9","cqgnqpw5kyy5hvc","31","[""Black or African-American""]","No","Male","1454884.5999999642","null","","<p></p>","null","rating","ctd","repulsion_2","2","microwave ovens","null","null","null","null","null","null","1","","","","","","","","","",""
"","","","","","rating_trial","survey-html-form","28","587421","0.0-3.0-1.12","28","1","2025-04-11 13:58:08","bb671e3ae32f654b8954ea4c4635f915","","Mozilla/5.0 (Windows NT 10.0; Win64; x64) AppleWebKit/537.36 (KHTML, like Gecko) Chrome/134.0.0.0 Safari/537.36","WebKit","Chrome","134.0.0.0","Windows","10.0","https://hz8g1ckzuq.cognition.run/","en-US,en;q=0.9","cqgnqpw5kyy5hvc","31","[""Black or African-American""]","No","Male","1454884.5999999642","34393","","","{""price_1"":""100"",""price_2"":""95"",""price_3"":""85""}","rating","ctd","repulsion_2","2","microwave ovens","null","null","null","null","null","null","1","30","40","20","100","90","100","Warranty","Cooking power","",""
"","","","","","rating_trial_setup","html-keyboard-response","29","587725","0.0-3.0-0.13","28","1","2025-04-11 13:58:08","bb671e3ae32f654b8954ea4c4635f915","","Mozilla/5.0 (Windows NT 10.0; Win64; x64) AppleWebKit/537.36 (KHTML, like Gecko) Chrome/134.0.0.0 Safari/537.36","WebKit","Chrome","134.0.0.0","Windows","10.0","https://hz8g1ckzuq.cognition.run/","en-US,en;q=0.9","cqgnqpw5kyy5hvc","31","[""Black or African-American""]","No","Male","1454884.5999999642","null","","<p></p>","null","rating","dtc","attraction_2","2","laptops","null","null","null","null","null","null","2","","","","","","","","","",""
"","","","","","rating_trial","survey-html-form","30","638275","0.0-3.0-1.13","28","1","2025-04-11 13:58:08","bb671e3ae32f654b8954ea4c4635f915","","Mozilla/5.0 (Windows NT 10.0; Win64; x64) AppleWebKit/537.36 (KHTML, like Gecko) Chrome/134.0.0.0 Safari/537.36","WebKit","Chrome","134.0.0.0","Windows","10.0","https://hz8g1ckzuq.cognition.run/","en-US,en;q=0.9","cqgnqpw5kyy5hvc","31","[""Black or African-American""]","No","Male","1454884.5999999642","50544","","","{""price_1"":""550"",""price_2"":""600"",""price_3"":""600""}","rating","dtc","attraction_2","2","laptops","null","null","null","null","null","null","2","50","60","40","60","50","60","Processing speed","Memory (RAM)","",""
"","","","","","rating_trial_setup","html-keyboard-response","31","638579","0.0-3.0-0.14","28","1","2025-04-11 13:58:08","bb671e3ae32f654b8954ea4c4635f915","","Mozilla/5.0 (Windows NT 10.0; Win64; x64) AppleWebKit/537.36 (KHTML, like Gecko) Chrome/134.0.0.0 Safari/537.36","WebKit","Chrome","134.0.0.0","Windows","10.0","https://hz8g1ckzuq.cognition.run/","en-US,en;q=0.9","cqgnqpw5kyy5hvc","31","[""Black or African-American""]","No","Male","1454884.5999999642","null","","<p></p>","null","rating","dtc","attraction_2","1","washing machines","null","null","null","null","null","null","1","","","","","","","","","",""
"","","","","","rating_trial","survey-html-form","32","661306","0.0-3.0-1.14","28","1","2025-04-11 13:58:08","bb671e3ae32f654b8954ea4c4635f915","","Mozilla/5.0 (Windows NT 10.0; Win64; x64) AppleWebKit/537.36 (KHTML, like Gecko) Chrome/134.0.0.0 Safari/537.36","WebKit","Chrome","134.0.0.0","Windows","10.0","https://hz8g1ckzuq.cognition.run/","en-US,en;q=0.9","cqgnqpw5kyy5hvc","31","[""Black or African-American""]","No","Male","1454884.5999999642","22722","","","{""price_1"":""700"",""price_2"":""800"",""price_3"":""800""}","rating","dtc","attraction_2","1","washing machines","null","null","null","null","null","null","1","60","50","60","50","60","40","Average lifespan","Energy savings","",""
"","","","","","rating_trial_setup","html-keyboard-response","33","661610","0.0-3.0-0.15","28","1","2025-04-11 13:58:08","bb671e3ae32f654b8954ea4c4635f915","","Mozilla/5.0 (Windows NT 10.0; Win64; x64) AppleWebKit/537.36 (KHTML, like Gecko) Chrome/134.0.0.0 Safari/537.36","WebKit","Chrome","134.0.0.0","Windows","10.0","https://hz8g1ckzuq.cognition.run/","en-US,en;q=0.9","cqgnqpw5kyy5hvc","31","[""Black or African-American""]","No","Male","1454884.5999999642","null","","<p></p>","null","rating","tdc","attraction_1","2","televisions","null","null","null","null","null","null","1","","","","","","","","","",""
"","","","","","rating_trial","survey-html-form","34","682884","0.0-3.0-1.15","28","1","2025-04-11 13:58:08","bb671e3ae32f654b8954ea4c4635f915","","Mozilla/5.0 (Windows NT 10.0; Win64; x64) AppleWebKit/537.36 (KHTML, like Gecko) Chrome/134.0.0.0 Safari/537.36","WebKit","Chrome","134.0.0.0","Windows","10.0","https://hz8g1ckzuq.cognition.run/","en-US,en;q=0.9","cqgnqpw5kyy5hvc","31","[""Black or African-American""]","No","Male","1454884.5999999642","21269","","","{""price_1"":""700"",""price_2"":""600"",""price_3"":""700""}","rating","tdc","attraction_1","2","televisions","null","null","null","null","null","null","1","50","60","45","60","50","60","Screen size","Average lifespan","",""
"","","","","","rating_trial_setup","html-keyboard-response","35","683189","0.0-3.0-0.16","28","1","2025-04-11 13:58:08","bb671e3ae32f654b8954ea4c4635f915","","Mozilla/5.0 (Windows NT 10.0; Win64; x64) AppleWebKit/537.36 (KHTML, like Gecko) Chrome/134.0.0.0 Safari/537.36","WebKit","Chrome","134.0.0.0","Windows","10.0","https://hz8g1ckzuq.cognition.run/","en-US,en;q=0.9","cqgnqpw5kyy5hvc","31","[""Black or African-American""]","No","Male","1454884.5999999642","null","","<p></p>","null","rating","tdc","repulsion_2","2","washing machines","null","null","null","null","null","null","1","","","","","","","","","",""
"","","","","","rating_trial","survey-html-form","36","702681","0.0-3.0-1.16","28","1","2025-04-11 13:58:08","bb671e3ae32f654b8954ea4c4635f915","","Mozilla/5.0 (Windows NT 10.0; Win64; x64) AppleWebKit/537.36 (KHTML, like Gecko) Chrome/134.0.0.0 Safari/537.36","WebKit","Chrome","134.0.0.0","Windows","10.0","https://hz8g1ckzuq.cognition.run/","en-US,en;q=0.9","cqgnqpw5kyy5hvc","31","[""Black or African-American""]","No","Male","1454884.5999999642","19488","","","{""price_1"":""750"",""price_2"":""700"",""price_3"":""800""}","rating","tdc","repulsion_2","2","washing machines","null","null","null","null","null","null","1","30","40","20","100","90","100","Average lifespan","Energy savings","",""
"","","","","","rating_trial_setup","html-keyboard-response","37","702985","0.0-3.0-0.17","28","1","2025-04-11 13:58:08","bb671e3ae32f654b8954ea4c4635f915","","Mozilla/5.0 (Windows NT 10.0; Win64; x64) AppleWebKit/537.36 (KHTML, like Gecko) Chrome/134.0.0.0 Safari/537.36","WebKit","Chrome","134.0.0.0","Windows","10.0","https://hz8g1ckzuq.cognition.run/","en-US,en;q=0.9","cqgnqpw5kyy5hvc","31","[""Black or African-American""]","No","Male","1454884.5999999642","null","","<p></p>","null","rating","bww","catch","null","laptops","95","95","50","35","35","45","2","","","","","","","","","",""
"","","","","","rating_trial","survey-html-form","38","726421","0.0-3.0-1.17","28","1","2025-04-11 13:58:08","bb671e3ae32f654b8954ea4c4635f915","","Mozilla/5.0 (Windows NT 10.0; Win64; x64) AppleWebKit/537.36 (KHTML, like Gecko) Chrome/134.0.0.0 Safari/537.36","WebKit","Chrome","134.0.0.0","Windows","10.0","https://hz8g1ckzuq.cognition.run/","en-US,en;q=0.9","cqgnqpw5kyy5hvc","31","[""Black or African-American""]","No","Male","1454884.5999999642","23427","","","{""price_1"":""1000"",""price_2"":""700"",""price_3"":""550""}","rating","bww","catch","null","laptops","95","95","50","35","35","45","2","null","null","null","null","null","null","Processing speed","Memory (RAM)","",""
"","","","","","rating_trial_setup","html-keyboard-response","39","726726","0.0-3.0-0.18","28","1","2025-04-11 13:58:08","bb671e3ae32f654b8954ea4c4635f915","","Mozilla/5.0 (Windows NT 10.0; Win64; x64) AppleWebKit/537.36 (KHTML, like Gecko) Chrome/134.0.0.0 Safari/537.36","WebKit","Chrome","134.0.0.0","Windows","10.0","https://hz8g1ckzuq.cognition.run/","en-US,en;q=0.9","cqgnqpw5kyy5hvc","31","[""Black or African-American""]","No","Male","1454884.5999999642","null","","<p></p>","null","rating","tdc","attraction_1","2","microwave ovens","null","null","null","null","null","null","1","","","","","","","","","",""
"","","","","","rating_trial","survey-html-form","40","747071","0.0-3.0-1.18","28","1","2025-04-11 13:58:08","bb671e3ae32f654b8954ea4c4635f915","","Mozilla/5.0 (Windows NT 10.0; Win64; x64) AppleWebKit/537.36 (KHTML, like Gecko) Chrome/134.0.0.0 Safari/537.36","WebKit","Chrome","134.0.0.0","Windows","10.0","https://hz8g1ckzuq.cognition.run/","en-US,en;q=0.9","cqgnqpw5kyy5hvc","31","[""Black or African-American""]","No","Male","1454884.5999999642","20341","","","{""price_1"":""75"",""price_2"":""70"",""price_3"":""75""}","rating","tdc","attraction_1","2","microwave ovens","null","null","null","null","null","null","1","50","60","45","60","50","60","Warranty","Cooking power","",""
"","","","","","rating_trial_setup","html-keyboard-response","41","747375","0.0-3.0-0.19","28","1","2025-04-11 13:58:08","bb671e3ae32f654b8954ea4c4635f915","","Mozilla/5.0 (Windows NT 10.0; Win64; x64) AppleWebKit/537.36 (KHTML, like Gecko) Chrome/134.0.0.0 Safari/537.36","WebKit","Chrome","134.0.0.0","Windows","10.0","https://hz8g1ckzuq.cognition.run/","en-US,en;q=0.9","cqgnqpw5kyy5hvc","31","[""Black or African-American""]","No","Male","1454884.5999999642","null","","<p></p>","null","rating","wwb","catch","null","laptops","60","85","40","50","15","5","2","","","","","","","","","",""
"","","","","","rating_trial","survey-html-form","42","792290","0.0-3.0-1.19","28","1","2025-04-11 13:58:08","bb671e3ae32f654b8954ea4c4635f915","","Mozilla/5.0 (Windows NT 10.0; Win64; x64) AppleWebKit/537.36 (KHTML, like Gecko) Chrome/134.0.0.0 Safari/537.36","WebKit","Chrome","134.0.0.0","Windows","10.0","https://hz8g1ckzuq.cognition.run/","en-US,en;q=0.9","cqgnqpw5kyy5hvc","31","[""Black or African-American""]","No","Male","1454884.5999999642","44910","","","{""price_1"":""600"",""price_2"":""200"",""price_3"":""850""}","rating","wwb","catch","null","laptops","60","85","40","50","15","5","2","null","null","null","null","null","null","Processing speed","Memory (RAM)","",""
"","","","","","rating_trial_setup","html-keyboard-response","43","792596","0.0-3.0-0.20","28","1","2025-04-11 13:58:08","bb671e3ae32f654b8954ea4c4635f915","","Mozilla/5.0 (Windows NT 10.0; Win64; x64) AppleWebKit/537.36 (KHTML, like Gecko) Chrome/134.0.0.0 Safari/537.36","WebKit","Chrome","134.0.0.0","Windows","10.0","https://hz8g1ckzuq.cognition.run/","en-US,en;q=0.9","cqgnqpw5kyy5hvc","31","[""Black or African-American""]","No","Male","1454884.5999999642","null","","<p></p>","null","rating","tcd","repulsion_1","2","microwave ovens","null","null","null","null","null","null","2","","","","","","","","","",""
"","","","","","rating_trial","survey-html-form","44","814560","0.0-3.0-1.20","28","1","2025-04-11 13:58:08","bb671e3ae32f654b8954ea4c4635f915","","Mozilla/5.0 (Windows NT 10.0; Win64; x64) AppleWebKit/537.36 (KHTML, like Gecko) Chrome/134.0.0.0 Safari/537.36","WebKit","Chrome","134.0.0.0","Windows","10.0","https://hz8g1ckzuq.cognition.run/","en-US,en;q=0.9","cqgnqpw5kyy5hvc","31","[""Black or African-American""]","No","Male","1454884.5999999642","21960","","","{""price_1"":""70"",""price_2"":""80"",""price_3"":""65""}","rating","tcd","repulsion_1","2","microwave ovens","null","null","null","null","null","null","2","30","40","25","100","90","100","Warranty","Cooking power","",""
"","","","","","rating_trial_setup","html-keyboard-response","45","814864","0.0-3.0-0.21","28","1","2025-04-11 13:58:08","bb671e3ae32f654b8954ea4c4635f915","","Mozilla/5.0 (Windows NT 10.0; Win64; x64) AppleWebKit/537.36 (KHTML, like Gecko) Chrome/134.0.0.0 Safari/537.36","WebKit","Chrome","134.0.0.0","Windows","10.0","https://hz8g1ckzuq.cognition.run/","en-US,en;q=0.9","cqgnqpw5kyy5hvc","31","[""Black or African-American""]","No","Male","1454884.5999999642","null","","<p></p>","null","rating","tcd","attraction_1","1","laptops","null","null","null","null","null","null","2","","","","","","","","","",""
"","","","","","rating_trial","survey-html-form","46","883665","0.0-3.0-1.21","28","1","2025-04-11 13:58:08","bb671e3ae32f654b8954ea4c4635f915","","Mozilla/5.0 (Windows NT 10.0; Win64; x64) AppleWebKit/537.36 (KHTML, like Gecko) Chrome/134.0.0.0 Safari/537.36","WebKit","Chrome","134.0.0.0","Windows","10.0","https://hz8g1ckzuq.cognition.run/","en-US,en;q=0.9","cqgnqpw5kyy5hvc","31","[""Black or African-American""]","No","Male","1454884.5999999642","68795","","","{""price_1"":""800"",""price_2"":""800"",""price_3"":""700""}","rating","tcd","attraction_1","1","laptops","null","null","null","null","null","null","2","60","50","60","50","60","45","Processing speed","Memory (RAM)","",""
"","","","","","rating_trial_setup","html-keyboard-response","47","883970","0.0-3.0-0.22","28","1","2025-04-11 13:58:08","bb671e3ae32f654b8954ea4c4635f915","","Mozilla/5.0 (Windows NT 10.0; Win64; x64) AppleWebKit/537.36 (KHTML, like Gecko) Chrome/134.0.0.0 Safari/537.36","WebKit","Chrome","134.0.0.0","Windows","10.0","https://hz8g1ckzuq.cognition.run/","en-US,en;q=0.9","cqgnqpw5kyy5hvc","31","[""Black or African-American""]","No","Male","1454884.5999999642","null","","<p></p>","null","rating","tdc","repulsion_1","1","laptops","null","null","null","null","null","null","1","","","","","","","","","",""
"","","","","","rating_trial","survey-html-form","48","905838","0.0-3.0-1.22","28","1","2025-04-11 13:58:08","bb671e3ae32f654b8954ea4c4635f915","","Mozilla/5.0 (Windows NT 10.0; Win64; x64) AppleWebKit/537.36 (KHTML, like Gecko) Chrome/134.0.0.0 Safari/537.36","WebKit","Chrome","134.0.0.0","Windows","10.0","https://hz8g1ckzuq.cognition.run/","en-US,en;q=0.9","cqgnqpw5kyy5hvc","31","[""Black or African-American""]","No","Male","1454884.5999999642","21862","","","{""price_1"":""800"",""price_2"":""700"",""price_3"":""900""}","rating","tdc","repulsion_1","1","laptops","null","null","null","null","null","null","1","100","90","100","30","40","25","Processing speed","Memory (RAM)","",""
"","","","","","rating_trial_setup","html-keyboard-response","49","906142","0.0-3.0-0.23","28","1","2025-04-11 13:58:08","bb671e3ae32f654b8954ea4c4635f915","","Mozilla/5.0 (Windows NT 10.0; Win64; x64) AppleWebKit/537.36 (KHTML, like Gecko) Chrome/134.0.0.0 Safari/537.36","WebKit","Chrome","134.0.0.0","Windows","10.0","https://hz8g1ckzuq.cognition.run/","en-US,en;q=0.9","cqgnqpw5kyy5hvc","31","[""Black or African-American""]","No","Male","1454884.5999999642","null","","<p></p>","null","rating","tdc","attraction_2","2","washing machines","null","null","null","null","null","null","1","","","","","","","","","",""
"","","","","","rating_trial","survey-html-form","50","919202","0.0-3.0-1.23","28","1","2025-04-11 13:58:08","bb671e3ae32f654b8954ea4c4635f915","","Mozilla/5.0 (Windows NT 10.0; Win64; x64) AppleWebKit/537.36 (KHTML, like Gecko) Chrome/134.0.0.0 Safari/537.36","WebKit","Chrome","134.0.0.0","Windows","10.0","https://hz8g1ckzuq.cognition.run/","en-US,en;q=0.9","cqgnqpw5kyy5hvc","31","[""Black or African-American""]","No","Male","1454884.5999999642","13054","","","{""price_1"":""800"",""price_2"":""700"",""price_3"":""800""}","rating","tdc","attraction_2","2","washing machines","null","null","null","null","null","null","1","50","60","40","60","50","60","Average lifespan","Energy savings","",""
"","","","","","rating_trial_setup","html-keyboard-response","51","919506","0.0-3.0-0.24","28","1","2025-04-11 13:58:08","bb671e3ae32f654b8954ea4c4635f915","","Mozilla/5.0 (Windows NT 10.0; Win64; x64) AppleWebKit/537.36 (KHTML, like Gecko) Chrome/134.0.0.0 Safari/537.36","WebKit","Chrome","134.0.0.0","Windows","10.0","https://hz8g1ckzuq.cognition.run/","en-US,en;q=0.9","cqgnqpw5kyy5hvc","31","[""Black or African-American""]","No","Male","1454884.5999999642","null","","<p></p>","null","rating","ctd","attraction_1","1","washing machines","null","null","null","null","null","null","2","","","","","","","","","",""
"","","","","","rating_trial","survey-html-form","52","929411","0.0-3.0-1.24","28","1","2025-04-11 13:58:08","bb671e3ae32f654b8954ea4c4635f915","","Mozilla/5.0 (Windows NT 10.0; Win64; x64) AppleWebKit/537.36 (KHTML, like Gecko) Chrome/134.0.0.0 Safari/537.36","WebKit","Chrome","134.0.0.0","Windows","10.0","https://hz8g1ckzuq.cognition.run/","en-US,en;q=0.9","cqgnqpw5kyy5hvc","31","[""Black or African-American""]","No","Male","1454884.5999999642","9900","","","{""price_1"":""800"",""price_2"":""800"",""price_3"":""700""}","rating","ctd","attraction_1","1","washing machines","null","null","null","null","null","null","2","60","50","60","50","60","45","Average lifespan","Energy savings","",""
"","","","","","rating_trial_setup","html-keyboard-response","53","929714","0.0-3.0-0.25","28","1","2025-04-11 13:58:08","bb671e3ae32f654b8954ea4c4635f915","","Mozilla/5.0 (Windows NT 10.0; Win64; x64) AppleWebKit/537.36 (KHTML, like Gecko) Chrome/134.0.0.0 Safari/537.36","WebKit","Chrome","134.0.0.0","Windows","10.0","https://hz8g1ckzuq.cognition.run/","en-US,en;q=0.9","cqgnqpw5kyy5hvc","31","[""Black or African-American""]","No","Male","1454884.5999999642","null","","<p></p>","null","rating","ctd","repulsion_1","1","microwave ovens","null","null","null","null","null","null","2","","","","","","","","","",""
"","","","","","rating_trial","survey-html-form","54","942954","0.0-3.0-1.25","28","1","2025-04-11 13:58:08","bb671e3ae32f654b8954ea4c4635f915","","Mozilla/5.0 (Windows NT 10.0; Win64; x64) AppleWebKit/537.36 (KHTML, like Gecko) Chrome/134.0.0.0 Safari/537.36","WebKit","Chrome","134.0.0.0","Windows","10.0","https://hz8g1ckzuq.cognition.run/","en-US,en;q=0.9","cqgnqpw5kyy5hvc","31","[""Black or African-American""]","No","Male","1454884.5999999642","13234","","","{""price_1"":""80"",""price_2"":""70"",""price_3"":""75""}","rating","ctd","repulsion_1","1","microwave ovens","null","null","null","null","null","null","2","100","90","100","30","40","25","Warranty","Cooking power","",""
"","","","","","rating_trial_setup","html-keyboard-response","55","943258","0.0-3.0-0.26","28","1","2025-04-11 13:58:08","bb671e3ae32f654b8954ea4c4635f915","","Mozilla/5.0 (Windows NT 10.0; Win64; x64) AppleWebKit/537.36 (KHTML, like Gecko) Chrome/134.0.0.0 Safari/537.36","WebKit","Chrome","134.0.0.0","Windows","10.0","https://hz8g1ckzuq.cognition.run/","en-US,en;q=0.9","cqgnqpw5kyy5hvc","31","[""Black or African-American""]","No","Male","1454884.5999999642","null","","<p></p>","null","rating","cdt","repulsion_2","2","laptops","null","null","null","null","null","null","2","","","","","","","","","",""
"","","","","","rating_trial","survey-html-form","56","963372","0.0-3.0-1.26","28","1","2025-04-11 13:58:08","bb671e3ae32f654b8954ea4c4635f915","","Mozilla/5.0 (Windows NT 10.0; Win64; x64) AppleWebKit/537.36 (KHTML, like Gecko) Chrome/134.0.0.0 Safari/537.36","WebKit","Chrome","134.0.0.0","Windows","10.0","https://hz8g1ckzuq.cognition.run/","en-US,en;q=0.9","cqgnqpw5kyy5hvc","31","[""Black or African-American""]","No","Male","1454884.5999999642","20108","","","{""price_1"":""800"",""price_2"":""700"",""price_3"":""750""}","rating","cdt","repulsion_2","2","laptops","null","null","null","null","null","null","2","30","40","20","100","90","100","Processing speed","Memory (RAM)","",""
"","","","","","rating_trial_setup","html-keyboard-response","57","963677","0.0-3.0-0.27","28","1","2025-04-11 13:58:08","bb671e3ae32f654b8954ea4c4635f915","","Mozilla/5.0 (Windows NT 10.0; Win64; x64) AppleWebKit/537.36 (KHTML, like Gecko) Chrome/134.0.0.0 Safari/537.36","WebKit","Chrome","134.0.0.0","Windows","10.0","https://hz8g1ckzuq.cognition.run/","en-US,en;q=0.9","cqgnqpw5kyy5hvc","31","[""Black or African-American""]","No","Male","1454884.5999999642","null","","<p></p>","null","rating","ctd","attraction_2","2","microwave ovens","null","null","null","null","null","null","1","","","","","","","","","",""
"","","","","","rating_trial","survey-html-form","58","993115","0.0-3.0-1.27","28","1","2025-04-11 13:58:08","bb671e3ae32f654b8954ea4c4635f915","","Mozilla/5.0 (Windows NT 10.0; Win64; x64) AppleWebKit/537.36 (KHTML, like Gecko) Chrome/134.0.0.0 Safari/537.36","WebKit","Chrome","134.0.0.0","Windows","10.0","https://hz8g1ckzuq.cognition.run/","en-US,en;q=0.9","cqgnqpw5kyy5hvc","31","[""Black or African-American""]","No","Male","1454884.5999999642","29433","","","{""price_1"":""80"",""price_2"":""80"",""price_3"":""70""}","rating","ctd","attraction_2","2","microwave ovens","null","null","null","null","null","null","1","50","60","40","60","50","60","Warranty","Cooking power","",""
"","","","","","rating_trial_setup","html-keyboard-response","59","993432","0.0-3.0-0.28","28","1","2025-04-11 13:58:08","bb671e3ae32f654b8954ea4c4635f915","","Mozilla/5.0 (Windows NT 10.0; Win64; x64) AppleWebKit/537.36 (KHTML, like Gecko) Chrome/134.0.0.0 Safari/537.36","WebKit","Chrome","134.0.0.0","Windows","10.0","https://hz8g1ckzuq.cognition.run/","en-US,en;q=0.9","cqgnqpw5kyy5hvc","31","[""Black or African-American""]","No","Male","1454884.5999999642","null","","<p></p>","null","rating","dct","repulsion_1","1","televisions","null","null","null","null","null","null","1","","","","","","","","","",""
"","","","","","rating_trial","survey-html-form","60","1017826","0.0-3.0-1.28","28","1","2025-04-11 13:58:08","bb671e3ae32f654b8954ea4c4635f915","","Mozilla/5.0 (Windows NT 10.0; Win64; x64) AppleWebKit/537.36 (KHTML, like Gecko) Chrome/134.0.0.0 Safari/537.36","WebKit","Chrome","134.0.0.0","Windows","10.0","https://hz8g1ckzuq.cognition.run/","en-US,en;q=0.9","cqgnqpw5kyy5hvc","31","[""Black or African-American""]","No","Male","1454884.5999999642","24385","","","{""price_1"":""700"",""price_2"":""900"",""price_3"":""750""}","rating","dct","repulsion_1","1","televisions","null","null","null","null","null","null","1","100","90","100","30","40","25","Screen size","Average lifespan","",""
"","","","","","rating_trial_setup","html-keyboard-response","61","1018132","0.0-3.0-0.29","28","1","2025-04-11 13:58:08","bb671e3ae32f654b8954ea4c4635f915","","Mozilla/5.0 (Windows NT 10.0; Win64; x64) AppleWebKit/537.36 (KHTML, like Gecko) Chrome/134.0.0.0 Safari/537.36","WebKit","Chrome","134.0.0.0","Windows","10.0","https://hz8g1ckzuq.cognition.run/","en-US,en;q=0.9","cqgnqpw5kyy5hvc","31","[""Black or African-American""]","No","Male","1454884.5999999642","null","","<p></p>","null","rating","ctd","repulsion_1","1","washing machines","null","null","null","null","null","null","2","","","","","","","","","",""
"","","","","","rating_trial","survey-html-form","62","1036690","0.0-3.0-1.29","28","1","2025-04-11 13:58:08","bb671e3ae32f654b8954ea4c4635f915","","Mozilla/5.0 (Windows NT 10.0; Win64; x64) AppleWebKit/537.36 (KHTML, like Gecko) Chrome/134.0.0.0 Safari/537.36","WebKit","Chrome","134.0.0.0","Windows","10.0","https://hz8g1ckzuq.cognition.run/","en-US,en;q=0.9","cqgnqpw5kyy5hvc","31","[""Black or African-American""]","No","Male","1454884.5999999642","18552","","","{""price_1"":""800"",""price_2"":""700"",""price_3"":""600""}","rating","ctd","repulsion_1","1","washing machines","null","null","null","null","null","null","2","100","90","100","30","40","25","Average lifespan","Energy savings","",""
"","","","","","rating_trial_setup","html-keyboard-response","63","1036994","0.0-3.0-0.30","28","1","2025-04-11 13:58:08","bb671e3ae32f654b8954ea4c4635f915","","Mozilla/5.0 (Windows NT 10.0; Win64; x64) AppleWebKit/537.36 (KHTML, like Gecko) Chrome/134.0.0.0 Safari/537.36","WebKit","Chrome","134.0.0.0","Windows","10.0","https://hz8g1ckzuq.cognition.run/","en-US,en;q=0.9","cqgnqpw5kyy5hvc","31","[""Black or African-American""]","No","Male","1454884.5999999642","null","","<p></p>","null","rating","wbw","catch","null","washing machines","65","85","45","15","35","5","1","","","","","","","","","",""
"","","","","","rating_trial","survey-html-form","64","1053004","0.0-3.0-1.30","28","1","2025-04-11 13:58:08","bb671e3ae32f654b8954ea4c4635f915","","Mozilla/5.0 (Windows NT 10.0; Win64; x64) AppleWebKit/537.36 (KHTML, like Gecko) Chrome/134.0.0.0 Safari/537.36","WebKit","Chrome","134.0.0.0","Windows","10.0","https://hz8g1ckzuq.cognition.run/","en-US,en;q=0.9","cqgnqpw5kyy5hvc","31","[""Black or African-American""]","No","Male","1454884.5999999642","15997","","","{""price_1"":""500"",""price_2"":""800"",""price_3"":""400""}","rating","wbw","catch","null","washing machines","65","85","45","15","35","5","1","null","null","null","null","null","null","Average lifespan","Energy savings","",""
"","","","","","rating_trial_setup","html-keyboard-response","65","1053310","0.0-3.0-0.31","28","1","2025-04-11 13:58:08","bb671e3ae32f654b8954ea4c4635f915","","Mozilla/5.0 (Windows NT 10.0; Win64; x64) AppleWebKit/537.36 (KHTML, like Gecko) Chrome/134.0.0.0 Safari/537.36","WebKit","Chrome","134.0.0.0","Windows","10.0","https://hz8g1ckzuq.cognition.run/","en-US,en;q=0.9","cqgnqpw5kyy5hvc","31","[""Black or African-American""]","No","Male","1454884.5999999642","null","","<p></p>","null","rating","cdt","attraction_1","1","microwave ovens","null","null","null","null","null","null","2","","","","","","","","","",""
"","","","","","rating_trial","survey-html-form","66","1063034","0.0-3.0-1.31","28","1","2025-04-11 13:58:08","bb671e3ae32f654b8954ea4c4635f915","","Mozilla/5.0 (Windows NT 10.0; Win64; x64) AppleWebKit/537.36 (KHTML, like Gecko) Chrome/134.0.0.0 Safari/537.36","WebKit","Chrome","134.0.0.0","Windows","10.0","https://hz8g1ckzuq.cognition.run/","en-US,en;q=0.9","cqgnqpw5kyy5hvc","31","[""Black or African-American""]","No","Male","1454884.5999999642","9718","","","{""price_1"":""80"",""price_2"":""75"",""price_3"":""80""}","rating","cdt","attraction_1","1","microwave ovens","null","null","null","null","null","null","2","60","50","60","50","60","45","Warranty","Cooking power","",""
"","","","","","rating_trial_setup","html-keyboard-response","67","1063338","0.0-3.0-0.32","28","1","2025-04-11 13:58:08","bb671e3ae32f654b8954ea4c4635f915","","Mozilla/5.0 (Windows NT 10.0; Win64; x64) AppleWebKit/537.36 (KHTML, like Gecko) Chrome/134.0.0.0 Safari/537.36","WebKit","Chrome","134.0.0.0","Windows","10.0","https://hz8g1ckzuq.cognition.run/","en-US,en;q=0.9","cqgnqpw5kyy5hvc","31","[""Black or African-American""]","No","Male","1454884.5999999642","null","","<p></p>","null","rating","ctd","attraction_1","2","washing machines","null","null","null","null","null","null","2","","","","","","","","","",""
"","","","","","rating_trial","survey-html-form","68","1075756","0.0-3.0-1.32","28","1","2025-04-11 13:58:08","bb671e3ae32f654b8954ea4c4635f915","","Mozilla/5.0 (Windows NT 10.0; Win64; x64) AppleWebKit/537.36 (KHTML, like Gecko) Chrome/134.0.0.0 Safari/537.36","WebKit","Chrome","134.0.0.0","Windows","10.0","https://hz8g1ckzuq.cognition.run/","en-US,en;q=0.9","cqgnqpw5kyy5hvc","31","[""Black or African-American""]","No","Male","1454884.5999999642","12411","","","{""price_1"":""800"",""price_2"":""800"",""price_3"":""750""}","rating","ctd","attraction_1","2","washing machines","null","null","null","null","null","null","2","50","60","45","60","50","60","Average lifespan","Energy savings","",""
"","","","","","rating_trial_setup","html-keyboard-response","69","1076063","0.0-3.0-0.33","28","1","2025-04-11 13:58:08","bb671e3ae32f654b8954ea4c4635f915","","Mozilla/5.0 (Windows NT 10.0; Win64; x64) AppleWebKit/537.36 (KHTML, like Gecko) Chrome/134.0.0.0 Safari/537.36","WebKit","Chrome","134.0.0.0","Windows","10.0","https://hz8g1ckzuq.cognition.run/","en-US,en;q=0.9","cqgnqpw5kyy5hvc","31","[""Black or African-American""]","No","Male","1454884.5999999642","null","","<p></p>","null","rating","bww","catch","null","microwave ovens","90","75","15","45","30","35","1","","","","","","","","","",""
"","","","","","rating_trial","survey-html-form","70","1109753","0.0-3.0-1.33","28","1","2025-04-11 13:58:08","bb671e3ae32f654b8954ea4c4635f915","","Mozilla/5.0 (Windows NT 10.0; Win64; x64) AppleWebKit/537.36 (KHTML, like Gecko) Chrome/134.0.0.0 Safari/537.36","WebKit","Chrome","134.0.0.0","Windows","10.0","https://hz8g1ckzuq.cognition.run/","en-US,en;q=0.9","cqgnqpw5kyy5hvc","31","[""Black or African-American""]","No","Male","1454884.5999999642","33681","","","{""price_1"":""95"",""price_2"":""40"",""price_3"":""50""}","rating","bww","catch","null","microwave ovens","90","75","15","45","30","35","1","null","null","null","null","null","null","Warranty","Cooking power","",""
"","","","","","rating_trial_setup","html-keyboard-response","71","1110059","0.0-3.0-0.34","28","1","2025-04-11 13:58:08","bb671e3ae32f654b8954ea4c4635f915","","Mozilla/5.0 (Windows NT 10.0; Win64; x64) AppleWebKit/537.36 (KHTML, like Gecko) Chrome/134.0.0.0 Safari/537.36","WebKit","Chrome","134.0.0.0","Windows","10.0","https://hz8g1ckzuq.cognition.run/","en-US,en;q=0.9","cqgnqpw5kyy5hvc","31","[""Black or African-American""]","No","Male","1454884.5999999642","null","","<p></p>","null","rating","bww","catch","null","televisions","75","75","30","20","35","20","1","","","","","","","","","",""
"","","","","","rating_trial","survey-html-form","72","1123653","0.0-3.0-1.34","28","1","2025-04-11 13:58:08","bb671e3ae32f654b8954ea4c4635f915","","Mozilla/5.0 (Windows NT 10.0; Win64; x64) AppleWebKit/537.36 (KHTML, like Gecko) Chrome/134.0.0.0 Safari/537.36","WebKit","Chrome","134.0.0.0","Windows","10.0","https://hz8g1ckzuq.cognition.run/","en-US,en;q=0.9","cqgnqpw5kyy5hvc","31","[""Black or African-American""]","No","Male","1454884.5999999642","13588","","","{""price_1"":""800"",""price_2"":""500"",""price_3"":""550""}","rating","bww","catch","null","televisions","75","75","30","20","35","20","1","null","null","null","null","null","null","Screen size","Average lifespan","",""
"","","","","","rating_trial_setup","html-keyboard-response","73","1123957","0.0-3.0-0.35","28","1","2025-04-11 13:58:08","bb671e3ae32f654b8954ea4c4635f915","","Mozilla/5.0 (Windows NT 10.0; Win64; x64) AppleWebKit/537.36 (KHTML, like Gecko) Chrome/134.0.0.0 Safari/537.36","WebKit","Chrome","134.0.0.0","Windows","10.0","https://hz8g1ckzuq.cognition.run/","en-US,en;q=0.9","cqgnqpw5kyy5hvc","31","[""Black or African-American""]","No","Male","1454884.5999999642","null","","<p></p>","null","rating","tcd","repulsion_1","2","washing machines","null","null","null","null","null","null","2","","","","","","","","","",""
"","","","","","rating_trial","survey-html-form","74","1140742","0.0-3.0-1.35","28","1","2025-04-11 13:58:08","bb671e3ae32f654b8954ea4c4635f915","","Mozilla/5.0 (Windows NT 10.0; Win64; x64) AppleWebKit/537.36 (KHTML, like Gecko) Chrome/134.0.0.0 Safari/537.36","WebKit","Chrome","134.0.0.0","Windows","10.0","https://hz8g1ckzuq.cognition.run/","en-US,en;q=0.9","cqgnqpw5kyy5hvc","31","[""Black or African-American""]","No","Male","1454884.5999999642","16778","","","{""price_1"":""700"",""price_2"":""800"",""price_3"":""650""}","rating","tcd","repulsion_1","2","washing machines","null","null","null","null","null","null","2","30","40","25","100","90","100","Average lifespan","Energy savings","",""
"","","","","","rating_trial_setup","html-keyboard-response","75","1141047","0.0-3.0-0.36","28","1","2025-04-11 13:58:08","bb671e3ae32f654b8954ea4c4635f915","","Mozilla/5.0 (Windows NT 10.0; Win64; x64) AppleWebKit/537.36 (KHTML, like Gecko) Chrome/134.0.0.0 Safari/537.36","WebKit","Chrome","134.0.0.0","Windows","10.0","https://hz8g1ckzuq.cognition.run/","en-US,en;q=0.9","cqgnqpw5kyy5hvc","31","[""Black or African-American""]","No","Male","1454884.5999999642","null","","<p></p>","null","rating","dtc","repulsion_2","1","microwave ovens","null","null","null","null","null","null","2","","","","","","","","","",""
"","","","","","rating_trial","survey-html-form","76","1163262","0.0-3.0-1.36","28","1","2025-04-11 13:58:08","bb671e3ae32f654b8954ea4c4635f915","","Mozilla/5.0 (Windows NT 10.0; Win64; x64) AppleWebKit/537.36 (KHTML, like Gecko) Chrome/134.0.0.0 Safari/537.36","WebKit","Chrome","134.0.0.0","Windows","10.0","https://hz8g1ckzuq.cognition.run/","en-US,en;q=0.9","cqgnqpw5kyy5hvc","31","[""Black or African-American""]","No","Male","1454884.5999999642","22208","","","{""price_1"":""70"",""price_2"":""75"",""price_3"":""80""}","rating","dtc","repulsion_2","1","microwave ovens","null","null","null","null","null","null","2","100","90","100","30","40","20","Warranty","Cooking power","",""
"","","","","","rating_trial_setup","html-keyboard-response","77","1163569","0.0-3.0-0.37","28","1","2025-04-11 13:58:08","bb671e3ae32f654b8954ea4c4635f915","","Mozilla/5.0 (Windows NT 10.0; Win64; x64) AppleWebKit/537.36 (KHTML, like Gecko) Chrome/134.0.0.0 Safari/537.36","WebKit","Chrome","134.0.0.0","Windows","10.0","https://hz8g1ckzuq.cognition.run/","en-US,en;q=0.9","cqgnqpw5kyy5hvc","31","[""Black or African-American""]","No","Male","1454884.5999999642","null","","<p></p>","null","rating","tdc","attraction_2","2","televisions","null","null","null","null","null","null","2","","","","","","","","","",""
"","","","","","rating_trial","survey-html-form","78","1173390","0.0-3.0-1.37","28","1","2025-04-11 13:58:08","bb671e3ae32f654b8954ea4c4635f915","","Mozilla/5.0 (Windows NT 10.0; Win64; x64) AppleWebKit/537.36 (KHTML, like Gecko) Chrome/134.0.0.0 Safari/537.36","WebKit","Chrome","134.0.0.0","Windows","10.0","https://hz8g1ckzuq.cognition.run/","en-US,en;q=0.9","cqgnqpw5kyy5hvc","31","[""Black or African-American""]","No","Male","1454884.5999999642","9814","","","{""price_1"":""80"",""price_2"":""75"",""price_3"":""80""}","rating","tdc","attraction_2","2","televisions","null","null","null","null","null","null","2","50","60","40","60","50","60","Screen size","Average lifespan","",""
"","","","","","rating_trial_setup","html-keyboard-response","79","1173697","0.0-3.0-0.38","28","1","2025-04-11 13:58:08","bb671e3ae32f654b8954ea4c4635f915","","Mozilla/5.0 (Windows NT 10.0; Win64; x64) AppleWebKit/537.36 (KHTML, like Gecko) Chrome/134.0.0.0 Safari/537.36","WebKit","Chrome","134.0.0.0","Windows","10.0","https://hz8g1ckzuq.cognition.run/","en-US,en;q=0.9","cqgnqpw5kyy5hvc","31","[""Black or African-American""]","No","Male","1454884.5999999642","null","","<p></p>","null","rating","dtc","repulsion_1","2","laptops","null","null","null","null","null","null","2","","","","","","","","","",""
"","","","","","rating_trial","survey-html-form","80","1187176","0.0-3.0-1.38","28","1","2025-04-11 13:58:08","bb671e3ae32f654b8954ea4c4635f915","","Mozilla/5.0 (Windows NT 10.0; Win64; x64) AppleWebKit/537.36 (KHTML, like Gecko) Chrome/134.0.0.0 Safari/537.36","WebKit","Chrome","134.0.0.0","Windows","10.0","https://hz8g1ckzuq.cognition.run/","en-US,en;q=0.9","cqgnqpw5kyy5hvc","31","[""Black or African-American""]","No","Male","1454884.5999999642","13472","","","{""price_1"":""700"",""price_2"":""750"",""price_3"":""800""}","rating","dtc","repulsion_1","2","laptops","null","null","null","null","null","null","2","30","40","25","100","90","100","Processing speed","Memory (RAM)","",""
"","","","","","rating_trial_setup","html-keyboard-response","81","1187482","0.0-3.0-0.39","28","1","2025-04-11 13:58:08","bb671e3ae32f654b8954ea4c4635f915","","Mozilla/5.0 (Windows NT 10.0; Win64; x64) AppleWebKit/537.36 (KHTML, like Gecko) Chrome/134.0.0.0 Safari/537.36","WebKit","Chrome","134.0.0.0","Windows","10.0","https://hz8g1ckzuq.cognition.run/","en-US,en;q=0.9","cqgnqpw5kyy5hvc","31","[""Black or African-American""]","No","Male","1454884.5999999642","null","","<p></p>","null","rating","cdt","attraction_1","2","laptops","null","null","null","null","null","null","2","","","","","","","","","",""
"","","","","","rating_trial","survey-html-form","82","1196249","0.0-3.0-1.39","28","1","2025-04-11 13:58:08","bb671e3ae32f654b8954ea4c4635f915","","Mozilla/5.0 (Windows NT 10.0; Win64; x64) AppleWebKit/537.36 (KHTML, like Gecko) Chrome/134.0.0.0 Safari/537.36","WebKit","Chrome","134.0.0.0","Windows","10.0","https://hz8g1ckzuq.cognition.run/","en-US,en;q=0.9","cqgnqpw5kyy5hvc","31","[""Black or African-American""]","No","Male","1454884.5999999642","8759","","","{""price_1"":""800"",""price_2"":""750"",""price_3"":""800""}","rating","cdt","attraction_1","2","laptops","null","null","null","null","null","null","2","50","60","45","60","50","60","Processing speed","Memory (RAM)","",""
"","","","","","","instructions","83","1227398","0.0-4.0","28","1","2025-04-11 13:58:08","bb671e3ae32f654b8954ea4c4635f915","","Mozilla/5.0 (Windows NT 10.0; Win64; x64) AppleWebKit/537.36 (KHTML, like Gecko) Chrome/134.0.0.0 Safari/537.36","WebKit","Chrome","134.0.0.0","Windows","10.0","https://hz8g1ckzuq.cognition.run/","en-US,en;q=0.9","cqgnqpw5kyy5hvc","31","[""Black or African-American""]","No","Male","1454884.5999999642","31145","[{""page_index"":0,""viewing_time"":3092},{""page_index"":1,""viewing_time"":1058},{""page_index"":2,""viewing_time"":2584},{""page_index"":3,""viewing_time"":4771},{""page_index"":4,""viewing_time"":2815},{""page_index"":5,""viewing_time"":4250},{""page_index"":6,""viewing_time"":5440},{""page_index"":7,""viewing_time"":7135}]","","","","","","","","","","","","","","","","","","","","","","","",""
"","","","","","choice_trial_setup","html-keyboard-response","84","1227704","0.0-5.0-0.0","28","1","2025-04-11 13:58:08","bb671e3ae32f654b8954ea4c4635f915","","Mozilla/5.0 (Windows NT 10.0; Win64; x64) AppleWebKit/537.36 (KHTML, like Gecko) Chrome/134.0.0.0 Safari/537.36","WebKit","Chrome","134.0.0.0","Windows","10.0","https://hz8g1ckzuq.cognition.run/","en-US,en;q=0.9","cqgnqpw5kyy5hvc","31","[""Black or African-American""]","No","Male","1454884.5999999642","null","","<p></p>","null","choice","tcd","attraction_2","1","microwave ovens","null","null","null","null","null","null","1","","","","","","","","","",""
"","","","","","choice_trial","survey-html-form","85","1246325","0.0-5.0-1.0","28","1","2025-04-11 13:58:08","bb671e3ae32f654b8954ea4c4635f915","","Mozilla/5.0 (Windows NT 10.0; Win64; x64) AppleWebKit/537.36 (KHTML, like Gecko) Chrome/134.0.0.0 Safari/537.36","WebKit","Chrome","134.0.0.0","Windows","10.0","https://hz8g1ckzuq.cognition.run/","en-US,en;q=0.9","cqgnqpw5kyy5hvc","31","[""Black or African-American""]","No","Male","1454884.5999999642","18614","","","{""product_choice"":""A""}","choice","tcd","attraction_2","1","microwave ovens","null","null","null","null","null","null","1","60","50","60","50","60","40","Warranty","Cooking power","",""
"","","","","","choice_trial_setup","html-keyboard-response","86","1246631","0.0-5.0-0.1","28","1","2025-04-11 13:58:08","bb671e3ae32f654b8954ea4c4635f915","","Mozilla/5.0 (Windows NT 10.0; Win64; x64) AppleWebKit/537.36 (KHTML, like Gecko) Chrome/134.0.0.0 Safari/537.36","WebKit","Chrome","134.0.0.0","Windows","10.0","https://hz8g1ckzuq.cognition.run/","en-US,en;q=0.9","cqgnqpw5kyy5hvc","31","[""Black or African-American""]","No","Male","1454884.5999999642","null","","<p></p>","null","choice","dct","attraction_2","2","laptops","null","null","null","null","null","null","1","","","","","","","","","",""
"","","","","","choice_trial","survey-html-form","87","1256539","0.0-5.0-1.1","28","1","2025-04-11 13:58:08","bb671e3ae32f654b8954ea4c4635f915","","Mozilla/5.0 (Windows NT 10.0; Win64; x64) AppleWebKit/537.36 (KHTML, like Gecko) Chrome/134.0.0.0 Safari/537.36","WebKit","Chrome","134.0.0.0","Windows","10.0","https://hz8g1ckzuq.cognition.run/","en-US,en;q=0.9","cqgnqpw5kyy5hvc","31","[""Black or African-American""]","No","Male","1454884.5999999642","9901","","","{""product_choice"":""B""}","choice","dct","attraction_2","2","laptops","null","null","null","null","null","null","1","50","60","40","60","50","60","Processing speed","Memory (RAM)","",""
"","","","","","choice_trial_setup","html-keyboard-response","88","1256844","0.0-5.0-0.2","28","1","2025-04-11 13:58:08","bb671e3ae32f654b8954ea4c4635f915","","Mozilla/5.0 (Windows NT 10.0; Win64; x64) AppleWebKit/537.36 (KHTML, like Gecko) Chrome/134.0.0.0 Safari/537.36","WebKit","Chrome","134.0.0.0","Windows","10.0","https://hz8g1ckzuq.cognition.run/","en-US,en;q=0.9","cqgnqpw5kyy5hvc","31","[""Black or African-American""]","No","Male","1454884.5999999642","null","","<p></p>","null","choice","ctd","attraction_1","2","microwave ovens","null","null","null","null","null","null","2","","","","","","","","","",""
"","","","","","choice_trial","survey-html-form","89","1264278","0.0-5.0-1.2","28","1","2025-04-11 13:58:08","bb671e3ae32f654b8954ea4c4635f915","","Mozilla/5.0 (Windows NT 10.0; Win64; x64) AppleWebKit/537.36 (KHTML, like Gecko) Chrome/134.0.0.0 Safari/537.36","WebKit","Chrome","134.0.0.0","Windows","10.0","https://hz8g1ckzuq.cognition.run/","en-US,en;q=0.9","cqgnqpw5kyy5hvc","31","[""Black or African-American""]","No","Male","1454884.5999999642","7427","","","{""product_choice"":""A""}","choice","ctd","attraction_1","2","microwave ovens","null","null","null","null","null","null","2","50","60","45","60","50","60","Warranty","Cooking power","",""
"","","","","","choice_trial_setup","html-keyboard-response","90","1264585","0.0-5.0-0.3","28","1","2025-04-11 13:58:08","bb671e3ae32f654b8954ea4c4635f915","","Mozilla/5.0 (Windows NT 10.0; Win64; x64) AppleWebKit/537.36 (KHTML, like Gecko) Chrome/134.0.0.0 Safari/537.36","WebKit","Chrome","134.0.0.0","Windows","10.0","https://hz8g1ckzuq.cognition.run/","en-US,en;q=0.9","cqgnqpw5kyy5hvc","31","[""Black or African-American""]","No","Male","1454884.5999999642","null","","<p></p>","null","choice","dtc","repulsion_1","2","microwave ovens","null","null","null","null","null","null","1","","","","","","","","","",""
"","","","","","choice_trial","survey-html-form","91","1272316","0.0-5.0-1.3","28","1","2025-04-11 13:58:08","bb671e3ae32f654b8954ea4c4635f915","","Mozilla/5.0 (Windows NT 10.0; Win64; x64) AppleWebKit/537.36 (KHTML, like Gecko) Chrome/134.0.0.0 Safari/537.36","WebKit","Chrome","134.0.0.0","Windows","10.0","https://hz8g1ckzuq.cognition.run/","en-US,en;q=0.9","cqgnqpw5kyy5hvc","31","[""Black or African-American""]","No","Male","1454884.5999999642","7725","","","{""product_choice"":""C""}","choice","dtc","repulsion_1","2","microwave ovens","null","null","null","null","null","null","1","30","40","25","100","90","100","Warranty","Cooking power","",""
"","","","","","choice_trial_setup","html-keyboard-response","92","1272623","0.0-5.0-0.4","28","1","2025-04-11 13:58:08","bb671e3ae32f654b8954ea4c4635f915","","Mozilla/5.0 (Windows NT 10.0; Win64; x64) AppleWebKit/537.36 (KHTML, like Gecko) Chrome/134.0.0.0 Safari/537.36","WebKit","Chrome","134.0.0.0","Windows","10.0","https://hz8g1ckzuq.cognition.run/","en-US,en;q=0.9","cqgnqpw5kyy5hvc","31","[""Black or African-American""]","No","Male","1454884.5999999642","null","","<p></p>","null","choice","ctd","repulsion_2","1","laptops","null","null","null","null","null","null","2","","","","","","","","","",""
"","","","","","choice_trial","survey-html-form","93","1281493","0.0-5.0-1.4","28","1","2025-04-11 13:58:08","bb671e3ae32f654b8954ea4c4635f915","","Mozilla/5.0 (Windows NT 10.0; Win64; x64) AppleWebKit/537.36 (KHTML, like Gecko) Chrome/134.0.0.0 Safari/537.36","WebKit","Chrome","134.0.0.0","Windows","10.0","https://hz8g1ckzuq.cognition.run/","en-US,en;q=0.9","cqgnqpw5kyy5hvc","31","[""Black or African-American""]","No","Male","1454884.5999999642","8862","","","{""product_choice"":""A""}","choice","ctd","repulsion_2","1","laptops","null","null","null","null","null","null","2","100","90","100","30","40","20","Processing speed","Memory (RAM)","",""
"","","","","","choice_trial_setup","html-keyboard-response","94","1281800","0.0-5.0-0.5","28","1","2025-04-11 13:58:08","bb671e3ae32f654b8954ea4c4635f915","","Mozilla/5.0 (Windows NT 10.0; Win64; x64) AppleWebKit/537.36 (KHTML, like Gecko) Chrome/134.0.0.0 Safari/537.36","WebKit","Chrome","134.0.0.0","Windows","10.0","https://hz8g1ckzuq.cognition.run/","en-US,en;q=0.9","cqgnqpw5kyy5hvc","31","[""Black or African-American""]","No","Male","1454884.5999999642","null","","<p></p>","null","choice","ctd","attraction_1","1","televisions","null","null","null","null","null","null","1","","","","","","","","","",""
"","","","","","choice_trial","survey-html-form","95","1287244","0.0-5.0-1.5","28","1","2025-04-11 13:58:08","bb671e3ae32f654b8954ea4c4635f915","","Mozilla/5.0 (Windows NT 10.0; Win64; x64) AppleWebKit/537.36 (KHTML, like Gecko) Chrome/134.0.0.0 Safari/537.36","WebKit","Chrome","134.0.0.0","Windows","10.0","https://hz8g1ckzuq.cognition.run/","en-US,en;q=0.9","cqgnqpw5kyy5hvc","31","[""Black or African-American""]","No","Male","1454884.5999999642","5438","","","{""product_choice"":""A""}","choice","ctd","attraction_1","1","televisions","null","null","null","null","null","null","1","60","50","60","50","60","45","Screen size","Average lifespan","",""
"","","","","","choice_trial_setup","html-keyboard-response","96","1287549","0.0-5.0-0.6","28","1","2025-04-11 13:58:08","bb671e3ae32f654b8954ea4c4635f915","","Mozilla/5.0 (Windows NT 10.0; Win64; x64) AppleWebKit/537.36 (KHTML, like Gecko) Chrome/134.0.0.0 Safari/537.36","WebKit","Chrome","134.0.0.0","Windows","10.0","https://hz8g1ckzuq.cognition.run/","en-US,en;q=0.9","cqgnqpw5kyy5hvc","31","[""Black or African-American""]","No","Male","1454884.5999999642","null","","<p></p>","null","choice","cdt","repulsion_1","1","televisions","null","null","null","null","null","null","1","","","","","","","","","",""
"","","","","","choice_trial","survey-html-form","97","1295450","0.0-5.0-1.6","28","1","2025-04-11 13:58:08","bb671e3ae32f654b8954ea4c4635f915","","Mozilla/5.0 (Windows NT 10.0; Win64; x64) AppleWebKit/537.36 (KHTML, like Gecko) Chrome/134.0.0.0 Safari/537.36","WebKit","Chrome","134.0.0.0","Windows","10.0","https://hz8g1ckzuq.cognition.run/","en-US,en;q=0.9","cqgnqpw5kyy5hvc","31","[""Black or African-American""]","No","Male","1454884.5999999642","7892","","","{""product_choice"":""A""}","choice","cdt","repulsion_1","1","televisions","null","null","null","null","null","null","1","100","90","100","30","40","25","Screen size","Average lifespan","",""
"","","","","","choice_trial_setup","html-keyboard-response","98","1295757","0.0-5.0-0.7","28","1","2025-04-11 13:58:08","bb671e3ae32f654b8954ea4c4635f915","","Mozilla/5.0 (Windows NT 10.0; Win64; x64) AppleWebKit/537.36 (KHTML, like Gecko) Chrome/134.0.0.0 Safari/537.36","WebKit","Chrome","134.0.0.0","Windows","10.0","https://hz8g1ckzuq.cognition.run/","en-US,en;q=0.9","cqgnqpw5kyy5hvc","31","[""Black or African-American""]","No","Male","1454884.5999999642","null","","<p></p>","null","choice","ctd","repulsion_1","1","washing machines","null","null","null","null","null","null","1","","","","","","","","","",""
"","","","","","choice_trial","survey-html-form","99","1299819","0.0-5.0-1.7","28","1","2025-04-11 13:58:08","bb671e3ae32f654b8954ea4c4635f915","","Mozilla/5.0 (Windows NT 10.0; Win64; x64) AppleWebKit/537.36 (KHTML, like Gecko) Chrome/134.0.0.0 Safari/537.36","WebKit","Chrome","134.0.0.0","Windows","10.0","https://hz8g1ckzuq.cognition.run/","en-US,en;q=0.9","cqgnqpw5kyy5hvc","31","[""Black or African-American""]","No","Male","1454884.5999999642","4055","","","{""product_choice"":""A""}","choice","ctd","repulsion_1","1","washing machines","null","null","null","null","null","null","1","100","90","100","30","40","25","Average lifespan","Energy savings","",""
"","","","","","choice_trial_setup","html-keyboard-response","100","1300124","0.0-5.0-0.8","28","1","2025-04-11 13:58:08","bb671e3ae32f654b8954ea4c4635f915","","Mozilla/5.0 (Windows NT 10.0; Win64; x64) AppleWebKit/537.36 (KHTML, like Gecko) Chrome/134.0.0.0 Safari/537.36","WebKit","Chrome","134.0.0.0","Windows","10.0","https://hz8g1ckzuq.cognition.run/","en-US,en;q=0.9","cqgnqpw5kyy5hvc","31","[""Black or African-American""]","No","Male","1454884.5999999642","null","","<p></p>","null","choice","wwb","catch","null","laptops","60","55","35","10","50","40","2","","","","","","","","","",""
"","","","","","choice_trial","survey-html-form","101","1303684","0.0-5.0-1.8","28","1","2025-04-11 13:58:08","bb671e3ae32f654b8954ea4c4635f915","","Mozilla/5.0 (Windows NT 10.0; Win64; x64) AppleWebKit/537.36 (KHTML, like Gecko) Chrome/134.0.0.0 Safari/537.36","WebKit","Chrome","134.0.0.0","Windows","10.0","https://hz8g1ckzuq.cognition.run/","en-US,en;q=0.9","cqgnqpw5kyy5hvc","31","[""Black or African-American""]","No","Male","1454884.5999999642","3552","","","{""product_choice"":""C""}","choice","wwb","catch","null","laptops","60","55","35","10","50","40","2","null","null","null","null","null","null","Processing speed","Memory (RAM)","",""
"","","","","","choice_trial_setup","html-keyboard-response","102","1303988","0.0-5.0-0.9","28","1","2025-04-11 13:58:08","bb671e3ae32f654b8954ea4c4635f915","","Mozilla/5.0 (Windows NT 10.0; Win64; x64) AppleWebKit/537.36 (KHTML, like Gecko) Chrome/134.0.0.0 Safari/537.36","WebKit","Chrome","134.0.0.0","Windows","10.0","https://hz8g1ckzuq.cognition.run/","en-US,en;q=0.9","cqgnqpw5kyy5hvc","31","[""Black or African-American""]","No","Male","1454884.5999999642","null","","<p></p>","null","choice","dct","attraction_2","1","laptops","null","null","null","null","null","null","2","","","","","","","","","",""
"","","","","","choice_trial","survey-html-form","103","1310154","0.0-5.0-1.9","28","1","2025-04-11 13:58:08","bb671e3ae32f654b8954ea4c4635f915","","Mozilla/5.0 (Windows NT 10.0; Win64; x64) AppleWebKit/537.36 (KHTML, like Gecko) Chrome/134.0.0.0 Safari/537.36","WebKit","Chrome","134.0.0.0","Windows","10.0","https://hz8g1ckzuq.cognition.run/","en-US,en;q=0.9","cqgnqpw5kyy5hvc","31","[""Black or African-American""]","No","Male","1454884.5999999642","6160","","","{""product_choice"":""C""}","choice","dct","attraction_2","1","laptops","null","null","null","null","null","null","2","60","50","60","50","60","40","Processing speed","Memory (RAM)","",""
"","","","","","choice_trial_setup","html-keyboard-response","104","1310462","0.0-5.0-0.10","28","1","2025-04-11 13:58:08","bb671e3ae32f654b8954ea4c4635f915","","Mozilla/5.0 (Windows NT 10.0; Win64; x64) AppleWebKit/537.36 (KHTML, like Gecko) Chrome/134.0.0.0 Safari/537.36","WebKit","Chrome","134.0.0.0","Windows","10.0","https://hz8g1ckzuq.cognition.run/","en-US,en;q=0.9","cqgnqpw5kyy5hvc","31","[""Black or African-American""]","No","Male","1454884.5999999642","null","","<p></p>","null","choice","tcd","repulsion_2","1","washing machines","null","null","null","null","null","null","1","","","","","","","","","",""
"","","","","","choice_trial","survey-html-form","105","1315976","0.0-5.0-1.10","28","1","2025-04-11 13:58:08","bb671e3ae32f654b8954ea4c4635f915","","Mozilla/5.0 (Windows NT 10.0; Win64; x64) AppleWebKit/537.36 (KHTML, like Gecko) Chrome/134.0.0.0 Safari/537.36","WebKit","Chrome","134.0.0.0","Windows","10.0","https://hz8g1ckzuq.cognition.run/","en-US,en;q=0.9","cqgnqpw5kyy5hvc","31","[""Black or African-American""]","No","Male","1454884.5999999642","5507","","","{""product_choice"":""B""}","choice","tcd","repulsion_2","1","washing machines","null","null","null","null","null","null","1","100","90","100","30","40","20","Average lifespan","Energy savings","",""
"","","","","","choice_trial_setup","html-keyboard-response","106","1316282","0.0-5.0-0.11","28","1","2025-04-11 13:58:08","bb671e3ae32f654b8954ea4c4635f915","","Mozilla/5.0 (Windows NT 10.0; Win64; x64) AppleWebKit/537.36 (KHTML, like Gecko) Chrome/134.0.0.0 Safari/537.36","WebKit","Chrome","134.0.0.0","Windows","10.0","https://hz8g1ckzuq.cognition.run/","en-US,en;q=0.9","cqgnqpw5kyy5hvc","31","[""Black or African-American""]","No","Male","1454884.5999999642","null","","<p></p>","null","choice","tcd","repulsion_2","1","televisions","null","null","null","null","null","null","1","","","","","","","","","",""
"","","","","","choice_trial","survey-html-form","107","1321258","0.0-5.0-1.11","28","1","2025-04-11 13:58:08","bb671e3ae32f654b8954ea4c4635f915","","Mozilla/5.0 (Windows NT 10.0; Win64; x64) AppleWebKit/537.36 (KHTML, like Gecko) Chrome/134.0.0.0 Safari/537.36","WebKit","Chrome","134.0.0.0","Windows","10.0","https://hz8g1ckzuq.cognition.run/","en-US,en;q=0.9","cqgnqpw5kyy5hvc","31","[""Black or African-American""]","No","Male","1454884.5999999642","4968","","","{""product_choice"":""B""}","choice","tcd","repulsion_2","1","televisions","null","null","null","null","null","null","1","100","90","100","30","40","20","Screen size","Average lifespan","",""
"","","","","","choice_trial_setup","html-keyboard-response","108","1321570","0.0-5.0-0.12","28","1","2025-04-11 13:58:08","bb671e3ae32f654b8954ea4c4635f915","","Mozilla/5.0 (Windows NT 10.0; Win64; x64) AppleWebKit/537.36 (KHTML, like Gecko) Chrome/134.0.0.0 Safari/537.36","WebKit","Chrome","134.0.0.0","Windows","10.0","https://hz8g1ckzuq.cognition.run/","en-US,en;q=0.9","cqgnqpw5kyy5hvc","31","[""Black or African-American""]","No","Male","1454884.5999999642","null","","<p></p>","null","choice","tcd","repulsion_1","2","washing machines","null","null","null","null","null","null","1","","","","","","","","","",""
"","","","","","choice_trial","survey-html-form","109","1324121","0.0-5.0-1.12","28","1","2025-04-11 13:58:08","bb671e3ae32f654b8954ea4c4635f915","","Mozilla/5.0 (Windows NT 10.0; Win64; x64) AppleWebKit/537.36 (KHTML, like Gecko) Chrome/134.0.0.0 Safari/537.36","WebKit","Chrome","134.0.0.0","Windows","10.0","https://hz8g1ckzuq.cognition.run/","en-US,en;q=0.9","cqgnqpw5kyy5hvc","31","[""Black or African-American""]","No","Male","1454884.5999999642","2542","","","{""product_choice"":""B""}","choice","tcd","repulsion_1","2","washing machines","null","null","null","null","null","null","1","30","40","25","100","90","100","Average lifespan","Energy savings","",""
"","","","","","choice_trial_setup","html-keyboard-response","110","1324429","0.0-5.0-0.13","28","1","2025-04-11 13:58:08","bb671e3ae32f654b8954ea4c4635f915","","Mozilla/5.0 (Windows NT 10.0; Win64; x64) AppleWebKit/537.36 (KHTML, like Gecko) Chrome/134.0.0.0 Safari/537.36","WebKit","Chrome","134.0.0.0","Windows","10.0","https://hz8g1ckzuq.cognition.run/","en-US,en;q=0.9","cqgnqpw5kyy5hvc","31","[""Black or African-American""]","No","Male","1454884.5999999642","null","","<p></p>","null","choice","ctd","repulsion_2","2","washing machines","null","null","null","null","null","null","2","","","","","","","","","",""
"","","","","","choice_trial","survey-html-form","111","1327371","0.0-5.0-1.13","28","1","2025-04-11 13:58:08","bb671e3ae32f654b8954ea4c4635f915","","Mozilla/5.0 (Windows NT 10.0; Win64; x64) AppleWebKit/537.36 (KHTML, like Gecko) Chrome/134.0.0.0 Safari/537.36","WebKit","Chrome","134.0.0.0","Windows","10.0","https://hz8g1ckzuq.cognition.run/","en-US,en;q=0.9","cqgnqpw5kyy5hvc","31","[""Black or African-American""]","No","Male","1454884.5999999642","2932","","","{""product_choice"":""A""}","choice","ctd","repulsion_2","2","washing machines","null","null","null","null","null","null","2","30","40","20","100","90","100","Average lifespan","Energy savings","",""
"","","","","","choice_trial_setup","html-keyboard-response","112","1327676","0.0-5.0-0.14","28","1","2025-04-11 13:58:08","bb671e3ae32f654b8954ea4c4635f915","","Mozilla/5.0 (Windows NT 10.0; Win64; x64) AppleWebKit/537.36 (KHTML, like Gecko) Chrome/134.0.0.0 Safari/537.36","WebKit","Chrome","134.0.0.0","Windows","10.0","https://hz8g1ckzuq.cognition.run/","en-US,en;q=0.9","cqgnqpw5kyy5hvc","31","[""Black or African-American""]","No","Male","1454884.5999999642","null","","<p></p>","null","choice","cdt","repulsion_2","2","microwave ovens","null","null","null","null","null","null","1","","","","","","","","","",""
"","","","","","choice_trial","survey-html-form","113","1329896","0.0-5.0-1.14","28","1","2025-04-11 13:58:08","bb671e3ae32f654b8954ea4c4635f915","","Mozilla/5.0 (Windows NT 10.0; Win64; x64) AppleWebKit/537.36 (KHTML, like Gecko) Chrome/134.0.0.0 Safari/537.36","WebKit","Chrome","134.0.0.0","Windows","10.0","https://hz8g1ckzuq.cognition.run/","en-US,en;q=0.9","cqgnqpw5kyy5hvc","31","[""Black or African-American""]","No","Male","1454884.5999999642","2213","","","{""product_choice"":""A""}","choice","cdt","repulsion_2","2","microwave ovens","null","null","null","null","null","null","1","30","40","20","100","90","100","Warranty","Cooking power","",""
"","","","","","choice_trial_setup","html-keyboard-response","114","1330202","0.0-5.0-0.15","28","1","2025-04-11 13:58:08","bb671e3ae32f654b8954ea4c4635f915","","Mozilla/5.0 (Windows NT 10.0; Win64; x64) AppleWebKit/537.36 (KHTML, like Gecko) Chrome/134.0.0.0 Safari/537.36","WebKit","Chrome","134.0.0.0","Windows","10.0","https://hz8g1ckzuq.cognition.run/","en-US,en;q=0.9","cqgnqpw5kyy5hvc","31","[""Black or African-American""]","No","Male","1454884.5999999642","null","","<p></p>","null","choice","dtc","repulsion_2","1","microwave ovens","null","null","null","null","null","null","2","","","","","","","","","",""
"","","","","","choice_trial","survey-html-form","115","1332196","0.0-5.0-1.15","28","1","2025-04-11 13:58:08","bb671e3ae32f654b8954ea4c4635f915","","Mozilla/5.0 (Windows NT 10.0; Win64; x64) AppleWebKit/537.36 (KHTML, like Gecko) Chrome/134.0.0.0 Safari/537.36","WebKit","Chrome","134.0.0.0","Windows","10.0","https://hz8g1ckzuq.cognition.run/","en-US,en;q=0.9","cqgnqpw5kyy5hvc","31","[""Black or African-American""]","No","Male","1454884.5999999642","1984","","","{""product_choice"":""C""}","choice","dtc","repulsion_2","1","microwave ovens","null","null","null","null","null","null","2","100","90","100","30","40","20","Warranty","Cooking power","",""
"","","","","","choice_trial_setup","html-keyboard-response","116","1332504","0.0-5.0-0.16","28","1","2025-04-11 13:58:08","bb671e3ae32f654b8954ea4c4635f915","","Mozilla/5.0 (Windows NT 10.0; Win64; x64) AppleWebKit/537.36 (KHTML, like Gecko) Chrome/134.0.0.0 Safari/537.36","WebKit","Chrome","134.0.0.0","Windows","10.0","https://hz8g1ckzuq.cognition.run/","en-US,en;q=0.9","cqgnqpw5kyy5hvc","31","[""Black or African-American""]","No","Male","1454884.5999999642","null","","<p></p>","null","choice","ctd","repulsion_2","2","televisions","null","null","null","null","null","null","1","","","","","","","","","",""
"","","","","","choice_trial","survey-html-form","117","1333950","0.0-5.0-1.16","28","1","2025-04-11 13:58:08","bb671e3ae32f654b8954ea4c4635f915","","Mozilla/5.0 (Windows NT 10.0; Win64; x64) AppleWebKit/537.36 (KHTML, like Gecko) Chrome/134.0.0.0 Safari/537.36","WebKit","Chrome","134.0.0.0","Windows","10.0","https://hz8g1ckzuq.cognition.run/","en-US,en;q=0.9","cqgnqpw5kyy5hvc","31","[""Black or African-American""]","No","Male","1454884.5999999642","1435","","","{""product_choice"":""A""}","choice","ctd","repulsion_2","2","televisions","null","null","null","null","null","null","1","30","40","20","100","90","100","Screen size","Average lifespan","",""
"","","","","","choice_trial_setup","html-keyboard-response","118","1334260","0.0-5.0-0.17","28","1","2025-04-11 13:58:08","bb671e3ae32f654b8954ea4c4635f915","","Mozilla/5.0 (Windows NT 10.0; Win64; x64) AppleWebKit/537.36 (KHTML, like Gecko) Chrome/134.0.0.0 Safari/537.36","WebKit","Chrome","134.0.0.0","Windows","10.0","https://hz8g1ckzuq.cognition.run/","en-US,en;q=0.9","cqgnqpw5kyy5hvc","31","[""Black or African-American""]","No","Male","1454884.5999999642","null","","<p></p>","null","choice","dtc","attraction_1","1","laptops","null","null","null","null","null","null","2","","","","","","","","","",""
"","","","","","choice_trial","survey-html-form","119","1337052","0.0-5.0-1.17","28","1","2025-04-11 13:58:08","bb671e3ae32f654b8954ea4c4635f915","","Mozilla/5.0 (Windows NT 10.0; Win64; x64) AppleWebKit/537.36 (KHTML, like Gecko) Chrome/134.0.0.0 Safari/537.36","WebKit","Chrome","134.0.0.0","Windows","10.0","https://hz8g1ckzuq.cognition.run/","en-US,en;q=0.9","cqgnqpw5kyy5hvc","31","[""Black or African-American""]","No","Male","1454884.5999999642","2783","","","{""product_choice"":""B""}","choice","dtc","attraction_1","1","laptops","null","null","null","null","null","null","2","60","50","60","50","60","45","Processing speed","Memory (RAM)","",""
"","","","","","choice_trial_setup","html-keyboard-response","120","1337360","0.0-5.0-0.18","28","1","2025-04-11 13:58:08","bb671e3ae32f654b8954ea4c4635f915","","Mozilla/5.0 (Windows NT 10.0; Win64; x64) AppleWebKit/537.36 (KHTML, like Gecko) Chrome/134.0.0.0 Safari/537.36","WebKit","Chrome","134.0.0.0","Windows","10.0","https://hz8g1ckzuq.cognition.run/","en-US,en;q=0.9","cqgnqpw5kyy5hvc","31","[""Black or African-American""]","No","Male","1454884.5999999642","null","","<p></p>","null","choice","bww","catch","null","microwave ovens","65","50","10","50","10","25","2","","","","","","","","","",""
"","","","","","choice_trial","survey-html-form","121","1339768","0.0-5.0-1.18","28","1","2025-04-11 13:58:08","bb671e3ae32f654b8954ea4c4635f915","","Mozilla/5.0 (Windows NT 10.0; Win64; x64) AppleWebKit/537.36 (KHTML, like Gecko) Chrome/134.0.0.0 Safari/537.36","WebKit","Chrome","134.0.0.0","Windows","10.0","https://hz8g1ckzuq.cognition.run/","en-US,en;q=0.9","cqgnqpw5kyy5hvc","31","[""Black or African-American""]","No","Male","1454884.5999999642","2400","","","{""product_choice"":""A""}","choice","bww","catch","null","microwave ovens","65","50","10","50","10","25","2","null","null","null","null","null","null","Warranty","Cooking power","",""
"","","","","","choice_trial_setup","html-keyboard-response","122","1340079","0.0-5.0-0.19","28","1","2025-04-11 13:58:08","bb671e3ae32f654b8954ea4c4635f915","","Mozilla/5.0 (Windows NT 10.0; Win64; x64) AppleWebKit/537.36 (KHTML, like Gecko) Chrome/134.0.0.0 Safari/537.36","WebKit","Chrome","134.0.0.0","Windows","10.0","https://hz8g1ckzuq.cognition.run/","en-US,en;q=0.9","cqgnqpw5kyy5hvc","31","[""Black or African-American""]","No","Male","1454884.5999999642","null","","<p></p>","null","choice","dct","repulsion_1","2","laptops","null","null","null","null","null","null","2","","","","","","","","","",""
"","","","","","choice_trial","survey-html-form","123","1342294","0.0-5.0-1.19","28","1","2025-04-11 13:58:08","bb671e3ae32f654b8954ea4c4635f915","","Mozilla/5.0 (Windows NT 10.0; Win64; x64) AppleWebKit/537.36 (KHTML, like Gecko) Chrome/134.0.0.0 Safari/537.36","WebKit","Chrome","134.0.0.0","Windows","10.0","https://hz8g1ckzuq.cognition.run/","en-US,en;q=0.9","cqgnqpw5kyy5hvc","31","[""Black or African-American""]","No","Male","1454884.5999999642","2207","","","{""product_choice"":""B""}","choice","dct","repulsion_1","2","laptops","null","null","null","null","null","null","2","30","40","25","100","90","100","Processing speed","Memory (RAM)","",""
"","","","","","choice_trial_setup","html-keyboard-response","124","1342603","0.0-5.0-0.20","28","1","2025-04-11 13:58:08","bb671e3ae32f654b8954ea4c4635f915","","Mozilla/5.0 (Windows NT 10.0; Win64; x64) AppleWebKit/537.36 (KHTML, like Gecko) Chrome/134.0.0.0 Safari/537.36","WebKit","Chrome","134.0.0.0","Windows","10.0","https://hz8g1ckzuq.cognition.run/","en-US,en;q=0.9","cqgnqpw5kyy5hvc","31","[""Black or African-American""]","No","Male","1454884.5999999642","null","","<p></p>","null","choice","cdt","attraction_2","2","washing machines","null","null","null","null","null","null","1","","","","","","","","","",""
"","","","","","choice_trial","survey-html-form","125","1347750","0.0-5.0-1.20","28","1","2025-04-11 13:58:08","bb671e3ae32f654b8954ea4c4635f915","","Mozilla/5.0 (Windows NT 10.0; Win64; x64) AppleWebKit/537.36 (KHTML, like Gecko) Chrome/134.0.0.0 Safari/537.36","WebKit","Chrome","134.0.0.0","Windows","10.0","https://hz8g1ckzuq.cognition.run/","en-US,en;q=0.9","cqgnqpw5kyy5hvc","31","[""Black or African-American""]","No","Male","1454884.5999999642","5139","","","{""product_choice"":""B""}","choice","cdt","attraction_2","2","washing machines","null","null","null","null","null","null","1","50","60","40","60","50","60","Average lifespan","Energy savings","",""
"","","","","","choice_trial_setup","html-keyboard-response","126","1348056","0.0-5.0-0.21","28","1","2025-04-11 13:58:08","bb671e3ae32f654b8954ea4c4635f915","","Mozilla/5.0 (Windows NT 10.0; Win64; x64) AppleWebKit/537.36 (KHTML, like Gecko) Chrome/134.0.0.0 Safari/537.36","WebKit","Chrome","134.0.0.0","Windows","10.0","https://hz8g1ckzuq.cognition.run/","en-US,en;q=0.9","cqgnqpw5kyy5hvc","31","[""Black or African-American""]","No","Male","1454884.5999999642","null","","<p></p>","null","choice","wwb","catch","null","washing machines","55","50","40","30","30","10","1","","","","","","","","","",""
"","","","","","choice_trial","survey-html-form","127","1358874","0.0-5.0-1.21","28","1","2025-04-11 13:58:08","bb671e3ae32f654b8954ea4c4635f915","","Mozilla/5.0 (Windows NT 10.0; Win64; x64) AppleWebKit/537.36 (KHTML, like Gecko) Chrome/134.0.0.0 Safari/537.36","WebKit","Chrome","134.0.0.0","Windows","10.0","https://hz8g1ckzuq.cognition.run/","en-US,en;q=0.9","cqgnqpw5kyy5hvc","31","[""Black or African-American""]","No","Male","1454884.5999999642","10808","","","{""product_choice"":""C""}","choice","wwb","catch","null","washing machines","55","50","40","30","30","10","1","null","null","null","null","null","null","Average lifespan","Energy savings","",""
"","","","","","choice_trial_setup","html-keyboard-response","128","1359184","0.0-5.0-0.22","28","1","2025-04-11 13:58:08","bb671e3ae32f654b8954ea4c4635f915","","Mozilla/5.0 (Windows NT 10.0; Win64; x64) AppleWebKit/537.36 (KHTML, like Gecko) Chrome/134.0.0.0 Safari/537.36","WebKit","Chrome","134.0.0.0","Windows","10.0","https://hz8g1ckzuq.cognition.run/","en-US,en;q=0.9","cqgnqpw5kyy5hvc","31","[""Black or African-American""]","No","Male","1454884.5999999642","null","","<p></p>","null","choice","bww","catch","null","laptops","80","50","50","45","15","25","2","","","","","","","","","",""
"","","","","","choice_trial","survey-html-form","129","1362071","0.0-5.0-1.22","28","1","2025-04-11 13:58:08","bb671e3ae32f654b8954ea4c4635f915","","Mozilla/5.0 (Windows NT 10.0; Win64; x64) AppleWebKit/537.36 (KHTML, like Gecko) Chrome/134.0.0.0 Safari/537.36","WebKit","Chrome","134.0.0.0","Windows","10.0","https://hz8g1ckzuq.cognition.run/","en-US,en;q=0.9","cqgnqpw5kyy5hvc","31","[""Black or African-American""]","No","Male","1454884.5999999642","2876","","","{""product_choice"":""A""}","choice","bww","catch","null","laptops","80","50","50","45","15","25","2","null","null","null","null","null","null","Processing speed","Memory (RAM)","",""
"","","","","","choice_trial_setup","html-keyboard-response","130","1362377","0.0-5.0-0.23","28","1","2025-04-11 13:58:08","bb671e3ae32f654b8954ea4c4635f915","","Mozilla/5.0 (Windows NT 10.0; Win64; x64) AppleWebKit/537.36 (KHTML, like Gecko) Chrome/134.0.0.0 Safari/537.36","WebKit","Chrome","134.0.0.0","Windows","10.0","https://hz8g1ckzuq.cognition.run/","en-US,en;q=0.9","cqgnqpw5kyy5hvc","31","[""Black or African-American""]","No","Male","1454884.5999999642","null","","<p></p>","null","choice","tcd","repulsion_2","2","laptops","null","null","null","null","null","null","2","","","","","","","","","",""
"","","","","","choice_trial","survey-html-form","131","1364401","0.0-5.0-1.23","28","1","2025-04-11 13:58:08","bb671e3ae32f654b8954ea4c4635f915","","Mozilla/5.0 (Windows NT 10.0; Win64; x64) AppleWebKit/537.36 (KHTML, like Gecko) Chrome/134.0.0.0 Safari/537.36","WebKit","Chrome","134.0.0.0","Windows","10.0","https://hz8g1ckzuq.cognition.run/","en-US,en;q=0.9","cqgnqpw5kyy5hvc","31","[""Black or African-American""]","No","Male","1454884.5999999642","2014","","","{""product_choice"":""B""}","choice","tcd","repulsion_2","2","laptops","null","null","null","null","null","null","2","30","40","20","100","90","100","Processing speed","Memory (RAM)","",""
"","","","","","choice_trial_setup","html-keyboard-response","132","1364706","0.0-5.0-0.24","28","1","2025-04-11 13:58:08","bb671e3ae32f654b8954ea4c4635f915","","Mozilla/5.0 (Windows NT 10.0; Win64; x64) AppleWebKit/537.36 (KHTML, like Gecko) Chrome/134.0.0.0 Safari/537.36","WebKit","Chrome","134.0.0.0","Windows","10.0","https://hz8g1ckzuq.cognition.run/","en-US,en;q=0.9","cqgnqpw5kyy5hvc","31","[""Black or African-American""]","No","Male","1454884.5999999642","null","","<p></p>","null","choice","ctd","attraction_1","2","washing machines","null","null","null","null","null","null","1","","","","","","","","","",""
"","","","","","choice_trial","survey-html-form","133","1366958","0.0-5.0-1.24","28","1","2025-04-11 13:58:08","bb671e3ae32f654b8954ea4c4635f915","","Mozilla/5.0 (Windows NT 10.0; Win64; x64) AppleWebKit/537.36 (KHTML, like Gecko) Chrome/134.0.0.0 Safari/537.36","WebKit","Chrome","134.0.0.0","Windows","10.0","https://hz8g1ckzuq.cognition.run/","en-US,en;q=0.9","cqgnqpw5kyy5hvc","31","[""Black or African-American""]","No","Male","1454884.5999999642","2241","","","{""product_choice"":""B""}","choice","ctd","attraction_1","2","washing machines","null","null","null","null","null","null","1","50","60","45","60","50","60","Average lifespan","Energy savings","",""
"","","","","","choice_trial_setup","html-keyboard-response","134","1367267","0.0-5.0-0.25","28","1","2025-04-11 13:58:08","bb671e3ae32f654b8954ea4c4635f915","","Mozilla/5.0 (Windows NT 10.0; Win64; x64) AppleWebKit/537.36 (KHTML, like Gecko) Chrome/134.0.0.0 Safari/537.36","WebKit","Chrome","134.0.0.0","Windows","10.0","https://hz8g1ckzuq.cognition.run/","en-US,en;q=0.9","cqgnqpw5kyy5hvc","31","[""Black or African-American""]","No","Male","1454884.5999999642","null","","<p></p>","null","choice","dct","repulsion_1","1","microwave ovens","null","null","null","null","null","null","2","","","","","","","","","",""
"","","","","","choice_trial","survey-html-form","135","1370624","0.0-5.0-1.25","28","1","2025-04-11 13:58:08","bb671e3ae32f654b8954ea4c4635f915","","Mozilla/5.0 (Windows NT 10.0; Win64; x64) AppleWebKit/537.36 (KHTML, like Gecko) Chrome/134.0.0.0 Safari/537.36","WebKit","Chrome","134.0.0.0","Windows","10.0","https://hz8g1ckzuq.cognition.run/","en-US,en;q=0.9","cqgnqpw5kyy5hvc","31","[""Black or African-American""]","No","Male","1454884.5999999642","3348","","","{""product_choice"":""B""}","choice","dct","repulsion_1","1","microwave ovens","null","null","null","null","null","null","2","100","90","100","30","40","25","Warranty","Cooking power","",""
"","","","","","choice_trial_setup","html-keyboard-response","136","1370932","0.0-5.0-0.26","28","1","2025-04-11 13:58:08","bb671e3ae32f654b8954ea4c4635f915","","Mozilla/5.0 (Windows NT 10.0; Win64; x64) AppleWebKit/537.36 (KHTML, like Gecko) Chrome/134.0.0.0 Safari/537.36","WebKit","Chrome","134.0.0.0","Windows","10.0","https://hz8g1ckzuq.cognition.run/","en-US,en;q=0.9","cqgnqpw5kyy5hvc","31","[""Black or African-American""]","No","Male","1454884.5999999642","null","","<p></p>","null","choice","bww","catch","null","televisions","85","80","25","25","35","30","1","","","","","","","","","",""
"","","","","","choice_trial","survey-html-form","137","1373457","0.0-5.0-1.26","28","1","2025-04-11 13:58:08","bb671e3ae32f654b8954ea4c4635f915","","Mozilla/5.0 (Windows NT 10.0; Win64; x64) AppleWebKit/537.36 (KHTML, like Gecko) Chrome/134.0.0.0 Safari/537.36","WebKit","Chrome","134.0.0.0","Windows","10.0","https://hz8g1ckzuq.cognition.run/","en-US,en;q=0.9","cqgnqpw5kyy5hvc","31","[""Black or African-American""]","No","Male","1454884.5999999642","2511","","","{""product_choice"":""A""}","choice","bww","catch","null","televisions","85","80","25","25","35","30","1","null","null","null","null","null","null","Screen size","Average lifespan","",""
"","","","","","choice_trial_setup","html-keyboard-response","138","1373765","0.0-5.0-0.27","28","1","2025-04-11 13:58:08","bb671e3ae32f654b8954ea4c4635f915","","Mozilla/5.0 (Windows NT 10.0; Win64; x64) AppleWebKit/537.36 (KHTML, like Gecko) Chrome/134.0.0.0 Safari/537.36","WebKit","Chrome","134.0.0.0","Windows","10.0","https://hz8g1ckzuq.cognition.run/","en-US,en;q=0.9","cqgnqpw5kyy5hvc","31","[""Black or African-American""]","No","Male","1454884.5999999642","null","","<p></p>","null","choice","dtc","attraction_1","1","microwave ovens","null","null","null","null","null","null","1","","","","","","","","","",""
"","","","","","choice_trial","survey-html-form","139","1378462","0.0-5.0-1.27","28","1","2025-04-11 13:58:08","bb671e3ae32f654b8954ea4c4635f915","","Mozilla/5.0 (Windows NT 10.0; Win64; x64) AppleWebKit/537.36 (KHTML, like Gecko) Chrome/134.0.0.0 Safari/537.36","WebKit","Chrome","134.0.0.0","Windows","10.0","https://hz8g1ckzuq.cognition.run/","en-US,en;q=0.9","cqgnqpw5kyy5hvc","31","[""Black or African-American""]","No","Male","1454884.5999999642","4688","","","{""product_choice"":""C""}","choice","dtc","attraction_1","1","microwave ovens","null","null","null","null","null","null","1","60","50","60","50","60","45","Warranty","Cooking power","",""
"","","","","","choice_trial_setup","html-keyboard-response","140","1378769","0.0-5.0-0.28","28","1","2025-04-11 13:58:08","bb671e3ae32f654b8954ea4c4635f915","","Mozilla/5.0 (Windows NT 10.0; Win64; x64) AppleWebKit/537.36 (KHTML, like Gecko) Chrome/134.0.0.0 Safari/537.36","WebKit","Chrome","134.0.0.0","Windows","10.0","https://hz8g1ckzuq.cognition.run/","en-US,en;q=0.9","cqgnqpw5kyy5hvc","31","[""Black or African-American""]","No","Male","1454884.5999999642","null","","<p></p>","null","choice","tcd","repulsion_1","1","laptops","null","null","null","null","null","null","2","","","","","","","","","",""
"","","","","","choice_trial","survey-html-form","141","1381644","0.0-5.0-1.28","28","1","2025-04-11 13:58:08","bb671e3ae32f654b8954ea4c4635f915","","Mozilla/5.0 (Windows NT 10.0; Win64; x64) AppleWebKit/537.36 (KHTML, like Gecko) Chrome/134.0.0.0 Safari/537.36","WebKit","Chrome","134.0.0.0","Windows","10.0","https://hz8g1ckzuq.cognition.run/","en-US,en;q=0.9","cqgnqpw5kyy5hvc","31","[""Black or African-American""]","No","Male","1454884.5999999642","2866","","","{""product_choice"":""B""}","choice","tcd","repulsion_1","1","laptops","null","null","null","null","null","null","2","100","90","100","30","40","25","Processing speed","Memory (RAM)","",""
"","","","","","choice_trial_setup","html-keyboard-response","142","1381959","0.0-5.0-0.29","28","1","2025-04-11 13:58:08","bb671e3ae32f654b8954ea4c4635f915","","Mozilla/5.0 (Windows NT 10.0; Win64; x64) AppleWebKit/537.36 (KHTML, like Gecko) Chrome/134.0.0.0 Safari/537.36","WebKit","Chrome","134.0.0.0","Windows","10.0","https://hz8g1ckzuq.cognition.run/","en-US,en;q=0.9","cqgnqpw5kyy5hvc","31","[""Black or African-American""]","No","Male","1454884.5999999642","null","","<p></p>","null","choice","ctd","attraction_2","2","microwave ovens","null","null","null","null","null","null","1","","","","","","","","","",""
"","","","","","choice_trial","survey-html-form","143","1385847","0.0-5.0-1.29","28","1","2025-04-11 13:58:08","bb671e3ae32f654b8954ea4c4635f915","","Mozilla/5.0 (Windows NT 10.0; Win64; x64) AppleWebKit/537.36 (KHTML, like Gecko) Chrome/134.0.0.0 Safari/537.36","WebKit","Chrome","134.0.0.0","Windows","10.0","https://hz8g1ckzuq.cognition.run/","en-US,en;q=0.9","cqgnqpw5kyy5hvc","31","[""Black or African-American""]","No","Male","1454884.5999999642","3874","","","{""product_choice"":""A""}","choice","ctd","attraction_2","2","microwave ovens","null","null","null","null","null","null","1","50","60","40","60","50","60","Warranty","Cooking power","",""
"","","","","","choice_trial_setup","html-keyboard-response","144","1386154","0.0-5.0-0.30","28","1","2025-04-11 13:58:08","bb671e3ae32f654b8954ea4c4635f915","","Mozilla/5.0 (Windows NT 10.0; Win64; x64) AppleWebKit/537.36 (KHTML, like Gecko) Chrome/134.0.0.0 Safari/537.36","WebKit","Chrome","134.0.0.0","Windows","10.0","https://hz8g1ckzuq.cognition.run/","en-US,en;q=0.9","cqgnqpw5kyy5hvc","31","[""Black or African-American""]","No","Male","1454884.5999999642","null","","<p></p>","null","choice","bww","catch","null","televisions","85","70","10","45","45","30","2","","","","","","","","","",""
"","","","","","choice_trial","survey-html-form","145","1390592","0.0-5.0-1.30","28","1","2025-04-11 13:58:08","bb671e3ae32f654b8954ea4c4635f915","","Mozilla/5.0 (Windows NT 10.0; Win64; x64) AppleWebKit/537.36 (KHTML, like Gecko) Chrome/134.0.0.0 Safari/537.36","WebKit","Chrome","134.0.0.0","Windows","10.0","https://hz8g1ckzuq.cognition.run/","en-US,en;q=0.9","cqgnqpw5kyy5hvc","31","[""Black or African-American""]","No","Male","1454884.5999999642","4424","","","{""product_choice"":""A""}","choice","bww","catch","null","televisions","85","70","10","45","45","30","2","null","null","null","null","null","null","Screen size","Average lifespan","",""
"","","","","","choice_trial_setup","html-keyboard-response","146","1390901","0.0-5.0-0.31","28","1","2025-04-11 13:58:08","bb671e3ae32f654b8954ea4c4635f915","","Mozilla/5.0 (Windows NT 10.0; Win64; x64) AppleWebKit/537.36 (KHTML, like Gecko) Chrome/134.0.0.0 Safari/537.36","WebKit","Chrome","134.0.0.0","Windows","10.0","https://hz8g1ckzuq.cognition.run/","en-US,en;q=0.9","cqgnqpw5kyy5hvc","31","[""Black or African-American""]","No","Male","1454884.5999999642","null","","<p></p>","null","choice","dct","attraction_2","1","televisions","null","null","null","null","null","null","2","","","","","","","","","",""
"","","","","","choice_trial","survey-html-form","147","1396229","0.0-5.0-1.31","28","1","2025-04-11 13:58:08","bb671e3ae32f654b8954ea4c4635f915","","Mozilla/5.0 (Windows NT 10.0; Win64; x64) AppleWebKit/537.36 (KHTML, like Gecko) Chrome/134.0.0.0 Safari/537.36","WebKit","Chrome","134.0.0.0","Windows","10.0","https://hz8g1ckzuq.cognition.run/","en-US,en;q=0.9","cqgnqpw5kyy5hvc","31","[""Black or African-American""]","No","Male","1454884.5999999642","5318","","","{""product_choice"":""B""}","choice","dct","attraction_2","1","televisions","null","null","null","null","null","null","2","60","50","60","50","60","40","Screen size","Average lifespan","",""
"","","","","","choice_trial_setup","html-keyboard-response","148","1396543","0.0-5.0-0.32","28","1","2025-04-11 13:58:08","bb671e3ae32f654b8954ea4c4635f915","","Mozilla/5.0 (Windows NT 10.0; Win64; x64) AppleWebKit/537.36 (KHTML, like Gecko) Chrome/134.0.0.0 Safari/537.36","WebKit","Chrome","134.0.0.0","Windows","10.0","https://hz8g1ckzuq.cognition.run/","en-US,en;q=0.9","cqgnqpw5kyy5hvc","31","[""Black or African-American""]","No","Male","1454884.5999999642","null","","<p></p>","null","choice","cdt","attraction_1","2","televisions","null","null","null","null","null","null","1","","","","","","","","","",""
"","","","","","choice_trial","survey-html-form","149","1401570","0.0-5.0-1.32","28","1","2025-04-11 13:58:08","bb671e3ae32f654b8954ea4c4635f915","","Mozilla/5.0 (Windows NT 10.0; Win64; x64) AppleWebKit/537.36 (KHTML, like Gecko) Chrome/134.0.0.0 Safari/537.36","WebKit","Chrome","134.0.0.0","Windows","10.0","https://hz8g1ckzuq.cognition.run/","en-US,en;q=0.9","cqgnqpw5kyy5hvc","31","[""Black or African-American""]","No","Male","1454884.5999999642","5017","","","{""product_choice"":""C""}","choice","cdt","attraction_1","2","televisions","null","null","null","null","null","null","1","50","60","45","60","50","60","Screen size","Average lifespan","",""
"","","","","","choice_trial_setup","html-keyboard-response","150","1401880","0.0-5.0-0.33","28","1","2025-04-11 13:58:08","bb671e3ae32f654b8954ea4c4635f915","","Mozilla/5.0 (Windows NT 10.0; Win64; x64) AppleWebKit/537.36 (KHTML, like Gecko) Chrome/134.0.0.0 Safari/537.36","WebKit","Chrome","134.0.0.0","Windows","10.0","https://hz8g1ckzuq.cognition.run/","en-US,en;q=0.9","cqgnqpw5kyy5hvc","31","[""Black or African-American""]","No","Male","1454884.5999999642","null","","<p></p>","null","choice","dct","attraction_2","2","televisions","null","null","null","null","null","null","2","","","","","","","","","",""
"","","","","","choice_trial","survey-html-form","151","1410390","0.0-5.0-1.33","28","1","2025-04-11 13:58:08","bb671e3ae32f654b8954ea4c4635f915","","Mozilla/5.0 (Windows NT 10.0; Win64; x64) AppleWebKit/537.36 (KHTML, like Gecko) Chrome/134.0.0.0 Safari/537.36","WebKit","Chrome","134.0.0.0","Windows","10.0","https://hz8g1ckzuq.cognition.run/","en-US,en;q=0.9","cqgnqpw5kyy5hvc","31","[""Black or African-American""]","No","Male","1454884.5999999642","8501","","","{""product_choice"":""C""}","choice","dct","attraction_2","2","televisions","null","null","null","null","null","null","2","50","60","40","60","50","60","Screen size","Average lifespan","",""
"","","","","","choice_trial_setup","html-keyboard-response","152","1410698","0.0-5.0-0.34","28","1","2025-04-11 13:58:08","bb671e3ae32f654b8954ea4c4635f915","","Mozilla/5.0 (Windows NT 10.0; Win64; x64) AppleWebKit/537.36 (KHTML, like Gecko) Chrome/134.0.0.0 Safari/537.36","WebKit","Chrome","134.0.0.0","Windows","10.0","https://hz8g1ckzuq.cognition.run/","en-US,en;q=0.9","cqgnqpw5kyy5hvc","31","[""Black or African-American""]","No","Male","1454884.5999999642","null","","<p></p>","null","choice","ctd","repulsion_1","2","televisions","null","null","null","null","null","null","1","","","","","","","","","",""
