"success","timeout","failed_images","failed_audio","failed_video","screen_id","trial_type","trial_index","time_elapsed","internal_node_id","run_id","condition","recorded_at","source_code_version","ip","user_agent","device","browser","browser_version","platform","platform_version","referer","accept_language","ppt_id","age","race","ethnicity","gender","exp_duration","rt","view_history","stimulus","response","phase","order","effect","t_high","category","d1_best","d2_best","d1_worst1","d2_worst1","d1_worst2","d2_worst2","first_dim","d1_t","d1_c","d1_d","d2_t","d2_c","d2_d","d1_name","d2_name","strategy_response","question_order"
"true","false","[]","[]","[]","img preload","preload","0","2803","0.0-0.0","29","1","2025-04-11 14:01:08","bb671e3ae32f654b8954ea4c4635f915","","Mozilla/5.0 (Windows NT 10.0; Win64; x64) AppleWebKit/537.36 (KHTML, like Gecko) Chrome/133.0.0.0 Safari/537.36","WebKit","Chrome","133.0.0.0","Windows","10.0","https://hz8g1ckzuq.cognition.run/","en-US,en;q=0.9","vvplyv3uy3nebdj","22","[""White""]","No","Male","2217908.3000000715","","","","","","","","","","","","","","","","","","","","","","","","","",""
"true","","","","","","fullscreen","1","654819","0.0-1.0","29","1","2025-04-11 14:01:08","bb671e3ae32f654b8954ea4c4635f915","","Mozilla/5.0 (Windows NT 10.0; Win64; x64) AppleWebKit/537.36 (KHTML, like Gecko) Chrome/133.0.0.0 Safari/537.36","WebKit","Chrome","133.0.0.0","Windows","10.0","https://hz8g1ckzuq.cognition.run/","en-US,en;q=0.9","vvplyv3uy3nebdj","22","[""White""]","No","Male","2217908.3000000715","651009","","","","","","","","","","","","","","","","","","","","","","","","",""
"","","","","","","instructions","2","847674","0.0-2.0","29","1","2025-04-11 14:01:08","bb671e3ae32f654b8954ea4c4635f915","","Mozilla/5.0 (Windows NT 10.0; Win64; x64) AppleWebKit/537.36 (KHTML, like Gecko) Chrome/133.0.0.0 Safari/537.36","WebKit","Chrome","133.0.0.0","Windows","10.0","https://hz8g1ckzuq.cognition.run/","en-US,en;q=0.9","vvplyv3uy3nebdj","22","[""White""]","No","Male","2217908.3000000715","192853","[{""page_index"":0,""viewing_time"":60056},{""page_index"":1,""viewing_time"":3596},{""page_index"":2,""viewing_time"":3612},{""page_index"":3,""viewing_time"":77025},{""page_index"":4,""viewing_time"":6130},{""page_index"":5,""viewing_time"":4242},{""page_index"":6,""viewing_time"":4426},{""page_index"":7,""viewing_time"":15495},{""page_index"":8,""viewing_time"":14444},{""page_index"":9,""viewing_time"":3826}]","","","","","","","","","","","","","","","","","","","","","","","",""
"","","","","","rating_trial_setup","html-keyboard-response","3","847981","0.0-3.0-0.0","29","1","2025-04-11 14:01:08","bb671e3ae32f654b8954ea4c4635f915","","Mozilla/5.0 (Windows NT 10.0; Win64; x64) AppleWebKit/537.36 (KHTML, like Gecko) Chrome/133.0.0.0 Safari/537.36","WebKit","Chrome","133.0.0.0","Windows","10.0","https://hz8g1ckzuq.cognition.run/","en-US,en;q=0.9","vvplyv3uy3nebdj","22","[""White""]","No","Male","2217908.3000000715","null","","<p></p>","null","rating","wbw","catch","null","microwave ovens","75","70","40","45","30","25","1","","","","","","","","","",""
"","","","","","rating_trial","survey-html-form","4","864901","0.0-3.0-1.0","29","1","2025-04-11 14:01:08","bb671e3ae32f654b8954ea4c4635f915","","Mozilla/5.0 (Windows NT 10.0; Win64; x64) AppleWebKit/537.36 (KHTML, like Gecko) Chrome/133.0.0.0 Safari/537.36","WebKit","Chrome","133.0.0.0","Windows","10.0","https://hz8g1ckzuq.cognition.run/","en-US,en;q=0.9","vvplyv3uy3nebdj","22","[""White""]","No","Male","2217908.3000000715","16914","","","{""price_1"":""15"",""price_2"":""50"",""price_3"":""25""}","rating","wbw","catch","null","microwave ovens","75","70","40","45","30","25","1","null","null","null","null","null","null","Warranty","Cooking power","",""
"","","","","","rating_trial_setup","html-keyboard-response","5","865205","0.0-3.0-0.1","29","1","2025-04-11 14:01:08","bb671e3ae32f654b8954ea4c4635f915","","Mozilla/5.0 (Windows NT 10.0; Win64; x64) AppleWebKit/537.36 (KHTML, like Gecko) Chrome/133.0.0.0 Safari/537.36","WebKit","Chrome","133.0.0.0","Windows","10.0","https://hz8g1ckzuq.cognition.run/","en-US,en;q=0.9","vvplyv3uy3nebdj","22","[""White""]","No","Male","2217908.3000000715","null","","<p></p>","null","rating","tcd","attraction_1","2","washing machines","null","null","null","null","null","null","1","","","","","","","","","",""
"","","","","","rating_trial","survey-html-form","6","888383","0.0-3.0-1.1","29","1","2025-04-11 14:01:08","bb671e3ae32f654b8954ea4c4635f915","","Mozilla/5.0 (Windows NT 10.0; Win64; x64) AppleWebKit/537.36 (KHTML, like Gecko) Chrome/133.0.0.0 Safari/537.36","WebKit","Chrome","133.0.0.0","Windows","10.0","https://hz8g1ckzuq.cognition.run/","en-US,en;q=0.9","vvplyv3uy3nebdj","22","[""White""]","No","Male","2217908.3000000715","23174","","","{""price_1"":""250"",""price_2"":""250"",""price_3"":""200""}","rating","tcd","attraction_1","2","washing machines","null","null","null","null","null","null","1","50","60","45","60","50","60","Average lifespan","Energy savings","",""
"","","","","","rating_trial_setup","html-keyboard-response","7","888688","0.0-3.0-0.2","29","1","2025-04-11 14:01:08","bb671e3ae32f654b8954ea4c4635f915","","Mozilla/5.0 (Windows NT 10.0; Win64; x64) AppleWebKit/537.36 (KHTML, like Gecko) Chrome/133.0.0.0 Safari/537.36","WebKit","Chrome","133.0.0.0","Windows","10.0","https://hz8g1ckzuq.cognition.run/","en-US,en;q=0.9","vvplyv3uy3nebdj","22","[""White""]","No","Male","2217908.3000000715","null","","<p></p>","null","rating","dct","repulsion_1","2","washing machines","null","null","null","null","null","null","1","","","","","","","","","",""
"","","","","","rating_trial","survey-html-form","8","907166","0.0-3.0-1.2","29","1","2025-04-11 14:01:08","bb671e3ae32f654b8954ea4c4635f915","","Mozilla/5.0 (Windows NT 10.0; Win64; x64) AppleWebKit/537.36 (KHTML, like Gecko) Chrome/133.0.0.0 Safari/537.36","WebKit","Chrome","133.0.0.0","Windows","10.0","https://hz8g1ckzuq.cognition.run/","en-US,en;q=0.9","vvplyv3uy3nebdj","22","[""White""]","No","Male","2217908.3000000715","18472","","","{""price_1"":""170"",""price_2"":""150"",""price_3"":""150""}","rating","dct","repulsion_1","2","washing machines","null","null","null","null","null","null","1","30","40","25","100","90","100","Average lifespan","Energy savings","",""
"","","","","","rating_trial_setup","html-keyboard-response","9","907473","0.0-3.0-0.3","29","1","2025-04-11 14:01:08","bb671e3ae32f654b8954ea4c4635f915","","Mozilla/5.0 (Windows NT 10.0; Win64; x64) AppleWebKit/537.36 (KHTML, like Gecko) Chrome/133.0.0.0 Safari/537.36","WebKit","Chrome","133.0.0.0","Windows","10.0","https://hz8g1ckzuq.cognition.run/","en-US,en;q=0.9","vvplyv3uy3nebdj","22","[""White""]","No","Male","2217908.3000000715","null","","<p></p>","null","rating","cdt","attraction_2","1","televisions","null","null","null","null","null","null","1","","","","","","","","","",""
"","","","","","rating_trial","survey-html-form","10","934223","0.0-3.0-1.3","29","1","2025-04-11 14:01:08","bb671e3ae32f654b8954ea4c4635f915","","Mozilla/5.0 (Windows NT 10.0; Win64; x64) AppleWebKit/537.36 (KHTML, like Gecko) Chrome/133.0.0.0 Safari/537.36","WebKit","Chrome","133.0.0.0","Windows","10.0","https://hz8g1ckzuq.cognition.run/","en-US,en;q=0.9","vvplyv3uy3nebdj","22","[""White""]","No","Male","2217908.3000000715","26744","","","{""price_1"":""200"",""price_2"":""185"",""price_3"":""200""}","rating","cdt","attraction_2","1","televisions","null","null","null","null","null","null","1","60","50","60","50","60","40","Screen size","Average lifespan","",""
"","","","","","rating_trial_setup","html-keyboard-response","11","934527","0.0-3.0-0.4","29","1","2025-04-11 14:01:08","bb671e3ae32f654b8954ea4c4635f915","","Mozilla/5.0 (Windows NT 10.0; Win64; x64) AppleWebKit/537.36 (KHTML, like Gecko) Chrome/133.0.0.0 Safari/537.36","WebKit","Chrome","133.0.0.0","Windows","10.0","https://hz8g1ckzuq.cognition.run/","en-US,en;q=0.9","vvplyv3uy3nebdj","22","[""White""]","No","Male","2217908.3000000715","null","","<p></p>","null","rating","tdc","attraction_1","1","televisions","null","null","null","null","null","null","1","","","","","","","","","",""
"","","","","","rating_trial","survey-html-form","12","975109","0.0-3.0-1.4","29","1","2025-04-11 14:01:08","bb671e3ae32f654b8954ea4c4635f915","","Mozilla/5.0 (Windows NT 10.0; Win64; x64) AppleWebKit/537.36 (KHTML, like Gecko) Chrome/133.0.0.0 Safari/537.36","WebKit","Chrome","133.0.0.0","Windows","10.0","https://hz8g1ckzuq.cognition.run/","en-US,en;q=0.9","vvplyv3uy3nebdj","22","[""White""]","No","Male","2217908.3000000715","40573","","","{""price_1"":""250"",""price_2"":""190"",""price_3"":""220""}","rating","tdc","attraction_1","1","televisions","null","null","null","null","null","null","1","60","50","60","50","60","45","Screen size","Average lifespan","",""
"","","","","","rating_trial_setup","html-keyboard-response","13","975415","0.0-3.0-0.5","29","1","2025-04-11 14:01:08","bb671e3ae32f654b8954ea4c4635f915","","Mozilla/5.0 (Windows NT 10.0; Win64; x64) AppleWebKit/537.36 (KHTML, like Gecko) Chrome/133.0.0.0 Safari/537.36","WebKit","Chrome","133.0.0.0","Windows","10.0","https://hz8g1ckzuq.cognition.run/","en-US,en;q=0.9","vvplyv3uy3nebdj","22","[""White""]","No","Male","2217908.3000000715","null","","<p></p>","null","rating","dct","attraction_1","1","laptops","null","null","null","null","null","null","2","","","","","","","","","",""
"","","","","","rating_trial","survey-html-form","14","1007921","0.0-3.0-1.5","29","1","2025-04-11 14:01:08","bb671e3ae32f654b8954ea4c4635f915","","Mozilla/5.0 (Windows NT 10.0; Win64; x64) AppleWebKit/537.36 (KHTML, like Gecko) Chrome/133.0.0.0 Safari/537.36","WebKit","Chrome","133.0.0.0","Windows","10.0","https://hz8g1ckzuq.cognition.run/","en-US,en;q=0.9","vvplyv3uy3nebdj","22","[""White""]","No","Male","2217908.3000000715","32500","","","{""price_1"":""220"",""price_2"":""250"",""price_3"":""260""}","rating","dct","attraction_1","1","laptops","null","null","null","null","null","null","2","60","50","60","50","60","45","Processing speed","Memory (RAM)","",""
"","","","","","rating_trial_setup","html-keyboard-response","15","1008223","0.0-3.0-0.6","29","1","2025-04-11 14:01:08","bb671e3ae32f654b8954ea4c4635f915","","Mozilla/5.0 (Windows NT 10.0; Win64; x64) AppleWebKit/537.36 (KHTML, like Gecko) Chrome/133.0.0.0 Safari/537.36","WebKit","Chrome","133.0.0.0","Windows","10.0","https://hz8g1ckzuq.cognition.run/","en-US,en;q=0.9","vvplyv3uy3nebdj","22","[""White""]","No","Male","2217908.3000000715","null","","<p></p>","null","rating","bww","catch","null","televisions","65","75","20","15","50","5","2","","","","","","","","","",""
"","","","","","rating_trial","survey-html-form","16","1035607","0.0-3.0-1.6","29","1","2025-04-11 14:01:08","bb671e3ae32f654b8954ea4c4635f915","","Mozilla/5.0 (Windows NT 10.0; Win64; x64) AppleWebKit/537.36 (KHTML, like Gecko) Chrome/133.0.0.0 Safari/537.36","WebKit","Chrome","133.0.0.0","Windows","10.0","https://hz8g1ckzuq.cognition.run/","en-US,en;q=0.9","vvplyv3uy3nebdj","22","[""White""]","No","Male","2217908.3000000715","27380","","","{""price_1"":""500"",""price_2"":""160"",""price_3"":""75""}","rating","bww","catch","null","televisions","65","75","20","15","50","5","2","null","null","null","null","null","null","Screen size","Average lifespan","",""
"","","","","","rating_trial_setup","html-keyboard-response","17","1035912","0.0-3.0-0.7","29","1","2025-04-11 14:01:08","bb671e3ae32f654b8954ea4c4635f915","","Mozilla/5.0 (Windows NT 10.0; Win64; x64) AppleWebKit/537.36 (KHTML, like Gecko) Chrome/133.0.0.0 Safari/537.36","WebKit","Chrome","133.0.0.0","Windows","10.0","https://hz8g1ckzuq.cognition.run/","en-US,en;q=0.9","vvplyv3uy3nebdj","22","[""White""]","No","Male","2217908.3000000715","null","","<p></p>","null","rating","dtc","repulsion_1","1","televisions","null","null","null","null","null","null","1","","","","","","","","","",""
"","","","","","rating_trial","survey-html-form","18","1055440","0.0-3.0-1.7","29","1","2025-04-11 14:01:08","bb671e3ae32f654b8954ea4c4635f915","","Mozilla/5.0 (Windows NT 10.0; Win64; x64) AppleWebKit/537.36 (KHTML, like Gecko) Chrome/133.0.0.0 Safari/537.36","WebKit","Chrome","133.0.0.0","Windows","10.0","https://hz8g1ckzuq.cognition.run/","en-US,en;q=0.9","vvplyv3uy3nebdj","22","[""White""]","No","Male","2217908.3000000715","19521","","","{""price_1"":""350"",""price_2"":""400"",""price_3"":""450""}","rating","dtc","repulsion_1","1","televisions","null","null","null","null","null","null","1","100","90","100","30","40","25","Screen size","Average lifespan","",""
"","","","","","rating_trial_setup","html-keyboard-response","19","1055745","0.0-3.0-0.8","29","1","2025-04-11 14:01:08","bb671e3ae32f654b8954ea4c4635f915","","Mozilla/5.0 (Windows NT 10.0; Win64; x64) AppleWebKit/537.36 (KHTML, like Gecko) Chrome/133.0.0.0 Safari/537.36","WebKit","Chrome","133.0.0.0","Windows","10.0","https://hz8g1ckzuq.cognition.run/","en-US,en;q=0.9","vvplyv3uy3nebdj","22","[""White""]","No","Male","2217908.3000000715","null","","<p></p>","null","rating","bww","catch","null","microwave ovens","75","50","10","45","35","25","2","","","","","","","","","",""
"","","","","","rating_trial","survey-html-form","20","1069616","0.0-3.0-1.8","29","1","2025-04-11 14:01:08","bb671e3ae32f654b8954ea4c4635f915","","Mozilla/5.0 (Windows NT 10.0; Win64; x64) AppleWebKit/537.36 (KHTML, like Gecko) Chrome/133.0.0.0 Safari/537.36","WebKit","Chrome","133.0.0.0","Windows","10.0","https://hz8g1ckzuq.cognition.run/","en-US,en;q=0.9","vvplyv3uy3nebdj","22","[""White""]","No","Male","2217908.3000000715","13867","","","{""price_1"":""75"",""price_2"":""035"",""price_3"":""35""}","rating","bww","catch","null","microwave ovens","75","50","10","45","35","25","2","null","null","null","null","null","null","Warranty","Cooking power","",""
"","","","","","rating_trial_setup","html-keyboard-response","21","1069922","0.0-3.0-0.9","29","1","2025-04-11 14:01:08","bb671e3ae32f654b8954ea4c4635f915","","Mozilla/5.0 (Windows NT 10.0; Win64; x64) AppleWebKit/537.36 (KHTML, like Gecko) Chrome/133.0.0.0 Safari/537.36","WebKit","Chrome","133.0.0.0","Windows","10.0","https://hz8g1ckzuq.cognition.run/","en-US,en;q=0.9","vvplyv3uy3nebdj","22","[""White""]","No","Male","2217908.3000000715","null","","<p></p>","null","rating","tcd","attraction_1","2","microwave ovens","null","null","null","null","null","null","1","","","","","","","","","",""
"","","","","","rating_trial","survey-html-form","22","1135982","0.0-3.0-1.9","29","1","2025-04-11 14:01:08","bb671e3ae32f654b8954ea4c4635f915","","Mozilla/5.0 (Windows NT 10.0; Win64; x64) AppleWebKit/537.36 (KHTML, like Gecko) Chrome/133.0.0.0 Safari/537.36","WebKit","Chrome","133.0.0.0","Windows","10.0","https://hz8g1ckzuq.cognition.run/","en-US,en;q=0.9","vvplyv3uy3nebdj","22","[""White""]","No","Male","2217908.3000000715","66054","","","{""price_1"":""75"",""price_2"":""75"",""price_3"":""70""}","rating","tcd","attraction_1","2","microwave ovens","null","null","null","null","null","null","1","50","60","45","60","50","60","Warranty","Cooking power","",""
"","","","","","rating_trial_setup","html-keyboard-response","23","1136286","0.0-3.0-0.10","29","1","2025-04-11 14:01:08","bb671e3ae32f654b8954ea4c4635f915","","Mozilla/5.0 (Windows NT 10.0; Win64; x64) AppleWebKit/537.36 (KHTML, like Gecko) Chrome/133.0.0.0 Safari/537.36","WebKit","Chrome","133.0.0.0","Windows","10.0","https://hz8g1ckzuq.cognition.run/","en-US,en;q=0.9","vvplyv3uy3nebdj","22","[""White""]","No","Male","2217908.3000000715","null","","<p></p>","null","rating","cdt","repulsion_2","1","microwave ovens","null","null","null","null","null","null","2","","","","","","","","","",""
"","","","","","rating_trial","survey-html-form","24","1147060","0.0-3.0-1.10","29","1","2025-04-11 14:01:08","bb671e3ae32f654b8954ea4c4635f915","","Mozilla/5.0 (Windows NT 10.0; Win64; x64) AppleWebKit/537.36 (KHTML, like Gecko) Chrome/133.0.0.0 Safari/537.36","WebKit","Chrome","133.0.0.0","Windows","10.0","https://hz8g1ckzuq.cognition.run/","en-US,en;q=0.9","vvplyv3uy3nebdj","22","[""White""]","No","Male","2217908.3000000715","10769","","","{""price_1"":""75"",""price_2"":""80"",""price_3"":""70""}","rating","cdt","repulsion_2","1","microwave ovens","null","null","null","null","null","null","2","100","90","100","30","40","20","Warranty","Cooking power","",""
"","","","","","rating_trial_setup","html-keyboard-response","25","1147363","0.0-3.0-0.11","29","1","2025-04-11 14:01:08","bb671e3ae32f654b8954ea4c4635f915","","Mozilla/5.0 (Windows NT 10.0; Win64; x64) AppleWebKit/537.36 (KHTML, like Gecko) Chrome/133.0.0.0 Safari/537.36","WebKit","Chrome","133.0.0.0","Windows","10.0","https://hz8g1ckzuq.cognition.run/","en-US,en;q=0.9","vvplyv3uy3nebdj","22","[""White""]","No","Male","2217908.3000000715","null","","<p></p>","null","rating","ctd","repulsion_2","1","laptops","null","null","null","null","null","null","2","","","","","","","","","",""
"","","","","","rating_trial","survey-html-form","26","1164311","0.0-3.0-1.11","29","1","2025-04-11 14:01:08","bb671e3ae32f654b8954ea4c4635f915","","Mozilla/5.0 (Windows NT 10.0; Win64; x64) AppleWebKit/537.36 (KHTML, like Gecko) Chrome/133.0.0.0 Safari/537.36","WebKit","Chrome","133.0.0.0","Windows","10.0","https://hz8g1ckzuq.cognition.run/","en-US,en;q=0.9","vvplyv3uy3nebdj","22","[""White""]","No","Male","2217908.3000000715","16939","","","{""price_1"":""450"",""price_2"":""450"",""price_3"":""350""}","rating","ctd","repulsion_2","1","laptops","null","null","null","null","null","null","2","100","90","100","30","40","20","Processing speed","Memory (RAM)","",""
"","","","","","rating_trial_setup","html-keyboard-response","27","1164614","0.0-3.0-0.12","29","1","2025-04-11 14:01:08","bb671e3ae32f654b8954ea4c4635f915","","Mozilla/5.0 (Windows NT 10.0; Win64; x64) AppleWebKit/537.36 (KHTML, like Gecko) Chrome/133.0.0.0 Safari/537.36","WebKit","Chrome","133.0.0.0","Windows","10.0","https://hz8g1ckzuq.cognition.run/","en-US,en;q=0.9","vvplyv3uy3nebdj","22","[""White""]","No","Male","2217908.3000000715","null","","<p></p>","null","rating","dtc","repulsion_1","2","microwave ovens","null","null","null","null","null","null","2","","","","","","","","","",""
"","","","","","rating_trial","survey-html-form","28","1201722","0.0-3.0-1.12","29","1","2025-04-11 14:01:08","bb671e3ae32f654b8954ea4c4635f915","","Mozilla/5.0 (Windows NT 10.0; Win64; x64) AppleWebKit/537.36 (KHTML, like Gecko) Chrome/133.0.0.0 Safari/537.36","WebKit","Chrome","133.0.0.0","Windows","10.0","https://hz8g1ckzuq.cognition.run/","en-US,en;q=0.9","vvplyv3uy3nebdj","22","[""White""]","No","Male","2217908.3000000715","37104","","","{""price_1"":""85"",""price_2"":""120"",""price_3"":""150""}","rating","dtc","repulsion_1","2","microwave ovens","null","null","null","null","null","null","2","30","40","25","100","90","100","Warranty","Cooking power","",""
"","","","","","rating_trial_setup","html-keyboard-response","29","1202025","0.0-3.0-0.13","29","1","2025-04-11 14:01:08","bb671e3ae32f654b8954ea4c4635f915","","Mozilla/5.0 (Windows NT 10.0; Win64; x64) AppleWebKit/537.36 (KHTML, like Gecko) Chrome/133.0.0.0 Safari/537.36","WebKit","Chrome","133.0.0.0","Windows","10.0","https://hz8g1ckzuq.cognition.run/","en-US,en;q=0.9","vvplyv3uy3nebdj","22","[""White""]","No","Male","2217908.3000000715","null","","<p></p>","null","rating","wbw","catch","null","laptops","70","55","25","35","40","25","1","","","","","","","","","",""
"","","","","","rating_trial","survey-html-form","30","1262147","0.0-3.0-1.13","29","1","2025-04-11 14:01:08","bb671e3ae32f654b8954ea4c4635f915","","Mozilla/5.0 (Windows NT 10.0; Win64; x64) AppleWebKit/537.36 (KHTML, like Gecko) Chrome/133.0.0.0 Safari/537.36","WebKit","Chrome","133.0.0.0","Windows","10.0","https://hz8g1ckzuq.cognition.run/","en-US,en;q=0.9","vvplyv3uy3nebdj","22","[""White""]","No","Male","2217908.3000000715","60118","","","{""price_1"":""120"",""price_2"":""220"",""price_3"":""200""}","rating","wbw","catch","null","laptops","70","55","25","35","40","25","1","null","null","null","null","null","null","Processing speed","Memory (RAM)","",""
"","","","","","rating_trial_setup","html-keyboard-response","31","1262451","0.0-3.0-0.14","29","1","2025-04-11 14:01:08","bb671e3ae32f654b8954ea4c4635f915","","Mozilla/5.0 (Windows NT 10.0; Win64; x64) AppleWebKit/537.36 (KHTML, like Gecko) Chrome/133.0.0.0 Safari/537.36","WebKit","Chrome","133.0.0.0","Windows","10.0","https://hz8g1ckzuq.cognition.run/","en-US,en;q=0.9","vvplyv3uy3nebdj","22","[""White""]","No","Male","2217908.3000000715","null","","<p></p>","null","rating","dtc","attraction_2","2","washing machines","null","null","null","null","null","null","1","","","","","","","","","",""
"","","","","","rating_trial","survey-html-form","32","1276516","0.0-3.0-1.14","29","1","2025-04-11 14:01:08","bb671e3ae32f654b8954ea4c4635f915","","Mozilla/5.0 (Windows NT 10.0; Win64; x64) AppleWebKit/537.36 (KHTML, like Gecko) Chrome/133.0.0.0 Safari/537.36","WebKit","Chrome","133.0.0.0","Windows","10.0","https://hz8g1ckzuq.cognition.run/","en-US,en;q=0.9","vvplyv3uy3nebdj","22","[""White""]","No","Male","2217908.3000000715","14058","","","{""price_1"":""120"",""price_2"":""150"",""price_3"":""150""}","rating","dtc","attraction_2","2","washing machines","null","null","null","null","null","null","1","50","60","40","60","50","60","Average lifespan","Energy savings","",""
"","","","","","rating_trial_setup","html-keyboard-response","33","1276819","0.0-3.0-0.15","29","1","2025-04-11 14:01:08","bb671e3ae32f654b8954ea4c4635f915","","Mozilla/5.0 (Windows NT 10.0; Win64; x64) AppleWebKit/537.36 (KHTML, like Gecko) Chrome/133.0.0.0 Safari/537.36","WebKit","Chrome","133.0.0.0","Windows","10.0","https://hz8g1ckzuq.cognition.run/","en-US,en;q=0.9","vvplyv3uy3nebdj","22","[""White""]","No","Male","2217908.3000000715","null","","<p></p>","null","rating","ctd","repulsion_1","2","laptops","null","null","null","null","null","null","1","","","","","","","","","",""
"","","","","","rating_trial","survey-html-form","34","1298250","0.0-3.0-1.15","29","1","2025-04-11 14:01:08","bb671e3ae32f654b8954ea4c4635f915","","Mozilla/5.0 (Windows NT 10.0; Win64; x64) AppleWebKit/537.36 (KHTML, like Gecko) Chrome/133.0.0.0 Safari/537.36","WebKit","Chrome","133.0.0.0","Windows","10.0","https://hz8g1ckzuq.cognition.run/","en-US,en;q=0.9","vvplyv3uy3nebdj","22","[""White""]","No","Male","2217908.3000000715","21425","","","{""price_1"":""250"",""price_2"":""250"",""price_3"":""200""}","rating","ctd","repulsion_1","2","laptops","null","null","null","null","null","null","1","30","40","25","100","90","100","Processing speed","Memory (RAM)","",""
"","","","","","rating_trial_setup","html-keyboard-response","35","1298555","0.0-3.0-0.16","29","1","2025-04-11 14:01:08","bb671e3ae32f654b8954ea4c4635f915","","Mozilla/5.0 (Windows NT 10.0; Win64; x64) AppleWebKit/537.36 (KHTML, like Gecko) Chrome/133.0.0.0 Safari/537.36","WebKit","Chrome","133.0.0.0","Windows","10.0","https://hz8g1ckzuq.cognition.run/","en-US,en;q=0.9","vvplyv3uy3nebdj","22","[""White""]","No","Male","2217908.3000000715","null","","<p></p>","null","rating","tcd","attraction_1","1","washing machines","null","null","null","null","null","null","2","","","","","","","","","",""
"","","","","","rating_trial","survey-html-form","36","1329750","0.0-3.0-1.16","29","1","2025-04-11 14:01:08","bb671e3ae32f654b8954ea4c4635f915","","Mozilla/5.0 (Windows NT 10.0; Win64; x64) AppleWebKit/537.36 (KHTML, like Gecko) Chrome/133.0.0.0 Safari/537.36","WebKit","Chrome","133.0.0.0","Windows","10.0","https://hz8g1ckzuq.cognition.run/","en-US,en;q=0.9","vvplyv3uy3nebdj","22","[""White""]","No","Male","2217908.3000000715","31188","","","{""price_1"":""120"",""price_2"":""120"",""price_3"":""100""}","rating","tcd","attraction_1","1","washing machines","null","null","null","null","null","null","2","60","50","60","50","60","45","Average lifespan","Energy savings","",""
"","","","","","rating_trial_setup","html-keyboard-response","37","1330054","0.0-3.0-0.17","29","1","2025-04-11 14:01:08","bb671e3ae32f654b8954ea4c4635f915","","Mozilla/5.0 (Windows NT 10.0; Win64; x64) AppleWebKit/537.36 (KHTML, like Gecko) Chrome/133.0.0.0 Safari/537.36","WebKit","Chrome","133.0.0.0","Windows","10.0","https://hz8g1ckzuq.cognition.run/","en-US,en;q=0.9","vvplyv3uy3nebdj","22","[""White""]","No","Male","2217908.3000000715","null","","<p></p>","null","rating","wbw","catch","null","televisions","90","85","50","15","30","20","1","","","","","","","","","",""
"","","","","","rating_trial","survey-html-form","38","1358590","0.0-3.0-1.17","29","1","2025-04-11 14:01:08","bb671e3ae32f654b8954ea4c4635f915","","Mozilla/5.0 (Windows NT 10.0; Win64; x64) AppleWebKit/537.36 (KHTML, like Gecko) Chrome/133.0.0.0 Safari/537.36","WebKit","Chrome","133.0.0.0","Windows","10.0","https://hz8g1ckzuq.cognition.run/","en-US,en;q=0.9","vvplyv3uy3nebdj","22","[""White""]","No","Male","2217908.3000000715","28531","","","{""price_1"":""170"",""price_2"":""500"",""price_3"":""200""}","rating","wbw","catch","null","televisions","90","85","50","15","30","20","1","null","null","null","null","null","null","Screen size","Average lifespan","",""
"","","","","","rating_trial_setup","html-keyboard-response","39","1358894","0.0-3.0-0.18","29","1","2025-04-11 14:01:08","bb671e3ae32f654b8954ea4c4635f915","","Mozilla/5.0 (Windows NT 10.0; Win64; x64) AppleWebKit/537.36 (KHTML, like Gecko) Chrome/133.0.0.0 Safari/537.36","WebKit","Chrome","133.0.0.0","Windows","10.0","https://hz8g1ckzuq.cognition.run/","en-US,en;q=0.9","vvplyv3uy3nebdj","22","[""White""]","No","Male","2217908.3000000715","null","","<p></p>","null","rating","tdc","repulsion_2","1","washing machines","null","null","null","null","null","null","1","","","","","","","","","",""
"","","","","","rating_trial","survey-html-form","40","1374573","0.0-3.0-1.18","29","1","2025-04-11 14:01:08","bb671e3ae32f654b8954ea4c4635f915","","Mozilla/5.0 (Windows NT 10.0; Win64; x64) AppleWebKit/537.36 (KHTML, like Gecko) Chrome/133.0.0.0 Safari/537.36","WebKit","Chrome","133.0.0.0","Windows","10.0","https://hz8g1ckzuq.cognition.run/","en-US,en;q=0.9","vvplyv3uy3nebdj","22","[""White""]","No","Male","2217908.3000000715","15673","","","{""price_1"":""170"",""price_2"":""150"",""price_3"":""160""}","rating","tdc","repulsion_2","1","washing machines","null","null","null","null","null","null","1","100","90","100","30","40","20","Average lifespan","Energy savings","",""
"","","","","","rating_trial_setup","html-keyboard-response","41","1374877","0.0-3.0-0.19","29","1","2025-04-11 14:01:08","bb671e3ae32f654b8954ea4c4635f915","","Mozilla/5.0 (Windows NT 10.0; Win64; x64) AppleWebKit/537.36 (KHTML, like Gecko) Chrome/133.0.0.0 Safari/537.36","WebKit","Chrome","133.0.0.0","Windows","10.0","https://hz8g1ckzuq.cognition.run/","en-US,en;q=0.9","vvplyv3uy3nebdj","22","[""White""]","No","Male","2217908.3000000715","null","","<p></p>","null","rating","cdt","attraction_2","2","laptops","null","null","null","null","null","null","2","","","","","","","","","",""
"","","","","","rating_trial","survey-html-form","42","1404999","0.0-3.0-1.19","29","1","2025-04-11 14:01:08","bb671e3ae32f654b8954ea4c4635f915","","Mozilla/5.0 (Windows NT 10.0; Win64; x64) AppleWebKit/537.36 (KHTML, like Gecko) Chrome/133.0.0.0 Safari/537.36","WebKit","Chrome","133.0.0.0","Windows","10.0","https://hz8g1ckzuq.cognition.run/","en-US,en;q=0.9","vvplyv3uy3nebdj","22","[""White""]","No","Male","2217908.3000000715","30112","","","{""price_1"":""360"",""price_2"":""350"",""price_3"":""350""}","rating","cdt","attraction_2","2","laptops","null","null","null","null","null","null","2","50","60","40","60","50","60","Processing speed","Memory (RAM)","",""
"","","","","","rating_trial_setup","html-keyboard-response","43","1405304","0.0-3.0-0.20","29","1","2025-04-11 14:01:08","bb671e3ae32f654b8954ea4c4635f915","","Mozilla/5.0 (Windows NT 10.0; Win64; x64) AppleWebKit/537.36 (KHTML, like Gecko) Chrome/133.0.0.0 Safari/537.36","WebKit","Chrome","133.0.0.0","Windows","10.0","https://hz8g1ckzuq.cognition.run/","en-US,en;q=0.9","vvplyv3uy3nebdj","22","[""White""]","No","Male","2217908.3000000715","null","","<p></p>","null","rating","ctd","attraction_2","2","televisions","null","null","null","null","null","null","2","","","","","","","","","",""
"","","","","","rating_trial","survey-html-form","44","1428326","0.0-3.0-1.20","29","1","2025-04-11 14:01:08","bb671e3ae32f654b8954ea4c4635f915","","Mozilla/5.0 (Windows NT 10.0; Win64; x64) AppleWebKit/537.36 (KHTML, like Gecko) Chrome/133.0.0.0 Safari/537.36","WebKit","Chrome","133.0.0.0","Windows","10.0","https://hz8g1ckzuq.cognition.run/","en-US,en;q=0.9","vvplyv3uy3nebdj","22","[""White""]","No","Male","2217908.3000000715","23016","","","{""price_1"":""200"",""price_2"":""200"",""price_3"":""0200""}","rating","ctd","attraction_2","2","televisions","null","null","null","null","null","null","2","50","60","40","60","50","60","Screen size","Average lifespan","",""
"","","","","","rating_trial_setup","html-keyboard-response","45","1428630","0.0-3.0-0.21","29","1","2025-04-11 14:01:08","bb671e3ae32f654b8954ea4c4635f915","","Mozilla/5.0 (Windows NT 10.0; Win64; x64) AppleWebKit/537.36 (KHTML, like Gecko) Chrome/133.0.0.0 Safari/537.36","WebKit","Chrome","133.0.0.0","Windows","10.0","https://hz8g1ckzuq.cognition.run/","en-US,en;q=0.9","vvplyv3uy3nebdj","22","[""White""]","No","Male","2217908.3000000715","null","","<p></p>","null","rating","wwb","catch","null","washing machines","55","50","45","25","40","40","2","","","","","","","","","",""
"","","","","","rating_trial","survey-html-form","46","1501695","0.0-3.0-1.21","29","1","2025-04-11 14:01:08","bb671e3ae32f654b8954ea4c4635f915","","Mozilla/5.0 (Windows NT 10.0; Win64; x64) AppleWebKit/537.36 (KHTML, like Gecko) Chrome/133.0.0.0 Safari/537.36","WebKit","Chrome","133.0.0.0","Windows","10.0","https://hz8g1ckzuq.cognition.run/","en-US,en;q=0.9","vvplyv3uy3nebdj","22","[""White""]","No","Male","2217908.3000000715","73058","","","{""price_1"":""55"",""price_2"":""60"",""price_3"":""70""}","rating","wwb","catch","null","washing machines","55","50","45","25","40","40","2","null","null","null","null","null","null","Average lifespan","Energy savings","",""
"","","","","","rating_trial_setup","html-keyboard-response","47","1502013","0.0-3.0-0.22","29","1","2025-04-11 14:01:08","bb671e3ae32f654b8954ea4c4635f915","","Mozilla/5.0 (Windows NT 10.0; Win64; x64) AppleWebKit/537.36 (KHTML, like Gecko) Chrome/133.0.0.0 Safari/537.36","WebKit","Chrome","133.0.0.0","Windows","10.0","https://hz8g1ckzuq.cognition.run/","en-US,en;q=0.9","vvplyv3uy3nebdj","22","[""White""]","No","Male","2217908.3000000715","null","","<p></p>","null","rating","ctd","repulsion_2","2","televisions","null","null","null","null","null","null","1","","","","","","","","","",""
"","","","","","rating_trial","survey-html-form","48","1560457","0.0-3.0-1.22","29","1","2025-04-11 14:01:08","bb671e3ae32f654b8954ea4c4635f915","","Mozilla/5.0 (Windows NT 10.0; Win64; x64) AppleWebKit/537.36 (KHTML, like Gecko) Chrome/133.0.0.0 Safari/537.36","WebKit","Chrome","133.0.0.0","Windows","10.0","https://hz8g1ckzuq.cognition.run/","en-US,en;q=0.9","vvplyv3uy3nebdj","22","[""White""]","No","Male","2217908.3000000715","58436","","","{""price_1"":""270"",""price_2"":""300"",""price_3"":""285""}","rating","ctd","repulsion_2","2","televisions","null","null","null","null","null","null","1","30","40","20","100","90","100","Screen size","Average lifespan","",""
"","","","","","rating_trial_setup","html-keyboard-response","49","1560768","0.0-3.0-0.23","29","1","2025-04-11 14:01:08","bb671e3ae32f654b8954ea4c4635f915","","Mozilla/5.0 (Windows NT 10.0; Win64; x64) AppleWebKit/537.36 (KHTML, like Gecko) Chrome/133.0.0.0 Safari/537.36","WebKit","Chrome","133.0.0.0","Windows","10.0","https://hz8g1ckzuq.cognition.run/","en-US,en;q=0.9","vvplyv3uy3nebdj","22","[""White""]","No","Male","2217908.3000000715","null","","<p></p>","null","rating","tcd","attraction_2","2","microwave ovens","null","null","null","null","null","null","1","","","","","","","","","",""
"","","","","","rating_trial","survey-html-form","50","1568656","0.0-3.0-1.23","29","1","2025-04-11 14:01:08","bb671e3ae32f654b8954ea4c4635f915","","Mozilla/5.0 (Windows NT 10.0; Win64; x64) AppleWebKit/537.36 (KHTML, like Gecko) Chrome/133.0.0.0 Safari/537.36","WebKit","Chrome","133.0.0.0","Windows","10.0","https://hz8g1ckzuq.cognition.run/","en-US,en;q=0.9","vvplyv3uy3nebdj","22","[""White""]","No","Male","2217908.3000000715","7881","","","{""price_1"":""100"",""price_2"":""100"",""price_3"":""100""}","rating","tcd","attraction_2","2","microwave ovens","null","null","null","null","null","null","1","50","60","40","60","50","60","Warranty","Cooking power","",""
"","","","","","rating_trial_setup","html-keyboard-response","51","1568968","0.0-3.0-0.24","29","1","2025-04-11 14:01:08","bb671e3ae32f654b8954ea4c4635f915","","Mozilla/5.0 (Windows NT 10.0; Win64; x64) AppleWebKit/537.36 (KHTML, like Gecko) Chrome/133.0.0.0 Safari/537.36","WebKit","Chrome","133.0.0.0","Windows","10.0","https://hz8g1ckzuq.cognition.run/","en-US,en;q=0.9","vvplyv3uy3nebdj","22","[""White""]","No","Male","2217908.3000000715","null","","<p></p>","null","rating","cdt","repulsion_2","2","microwave ovens","null","null","null","null","null","null","2","","","","","","","","","",""
"","","","","","rating_trial","survey-html-form","52","1583935","0.0-3.0-1.24","29","1","2025-04-11 14:01:08","bb671e3ae32f654b8954ea4c4635f915","","Mozilla/5.0 (Windows NT 10.0; Win64; x64) AppleWebKit/537.36 (KHTML, like Gecko) Chrome/133.0.0.0 Safari/537.36","WebKit","Chrome","133.0.0.0","Windows","10.0","https://hz8g1ckzuq.cognition.run/","en-US,en;q=0.9","vvplyv3uy3nebdj","22","[""White""]","No","Male","2217908.3000000715","14962","","","{""price_1"":""120"",""price_2"":""90"",""price_3"":""100""}","rating","cdt","repulsion_2","2","microwave ovens","null","null","null","null","null","null","2","30","40","20","100","90","100","Warranty","Cooking power","",""
"","","","","","rating_trial_setup","html-keyboard-response","53","1584239","0.0-3.0-0.25","29","1","2025-04-11 14:01:08","bb671e3ae32f654b8954ea4c4635f915","","Mozilla/5.0 (Windows NT 10.0; Win64; x64) AppleWebKit/537.36 (KHTML, like Gecko) Chrome/133.0.0.0 Safari/537.36","WebKit","Chrome","133.0.0.0","Windows","10.0","https://hz8g1ckzuq.cognition.run/","en-US,en;q=0.9","vvplyv3uy3nebdj","22","[""White""]","No","Male","2217908.3000000715","null","","<p></p>","null","rating","tdc","repulsion_1","1","laptops","null","null","null","null","null","null","1","","","","","","","","","",""
"","","","","","rating_trial","survey-html-form","54","1644736","0.0-3.0-1.25","29","1","2025-04-11 14:01:08","bb671e3ae32f654b8954ea4c4635f915","","Mozilla/5.0 (Windows NT 10.0; Win64; x64) AppleWebKit/537.36 (KHTML, like Gecko) Chrome/133.0.0.0 Safari/537.36","WebKit","Chrome","133.0.0.0","Windows","10.0","https://hz8g1ckzuq.cognition.run/","en-US,en;q=0.9","vvplyv3uy3nebdj","22","[""White""]","No","Male","2217908.3000000715","60490","","","{""price_1"":""250"",""price_2"":""250"",""price_3"":""230""}","rating","tdc","repulsion_1","1","laptops","null","null","null","null","null","null","1","100","90","100","30","40","25","Processing speed","Memory (RAM)","",""
"","","","","","rating_trial_setup","html-keyboard-response","55","1645044","0.0-3.0-0.26","29","1","2025-04-11 14:01:08","bb671e3ae32f654b8954ea4c4635f915","","Mozilla/5.0 (Windows NT 10.0; Win64; x64) AppleWebKit/537.36 (KHTML, like Gecko) Chrome/133.0.0.0 Safari/537.36","WebKit","Chrome","133.0.0.0","Windows","10.0","https://hz8g1ckzuq.cognition.run/","en-US,en;q=0.9","vvplyv3uy3nebdj","22","[""White""]","No","Male","2217908.3000000715","null","","<p></p>","null","rating","tcd","repulsion_1","1","microwave ovens","null","null","null","null","null","null","2","","","","","","","","","",""
"","","","","","rating_trial","survey-html-form","56","1656837","0.0-3.0-1.26","29","1","2025-04-11 14:01:08","bb671e3ae32f654b8954ea4c4635f915","","Mozilla/5.0 (Windows NT 10.0; Win64; x64) AppleWebKit/537.36 (KHTML, like Gecko) Chrome/133.0.0.0 Safari/537.36","WebKit","Chrome","133.0.0.0","Windows","10.0","https://hz8g1ckzuq.cognition.run/","en-US,en;q=0.9","vvplyv3uy3nebdj","22","[""White""]","No","Male","2217908.3000000715","11785","","","{""price_1"":""100"",""price_2"":""100"",""price_3"":""90""}","rating","tcd","repulsion_1","1","microwave ovens","null","null","null","null","null","null","2","100","90","100","30","40","25","Warranty","Cooking power","",""
"","","","","","rating_trial_setup","html-keyboard-response","57","1657146","0.0-3.0-0.27","29","1","2025-04-11 14:01:08","bb671e3ae32f654b8954ea4c4635f915","","Mozilla/5.0 (Windows NT 10.0; Win64; x64) AppleWebKit/537.36 (KHTML, like Gecko) Chrome/133.0.0.0 Safari/537.36","WebKit","Chrome","133.0.0.0","Windows","10.0","https://hz8g1ckzuq.cognition.run/","en-US,en;q=0.9","vvplyv3uy3nebdj","22","[""White""]","No","Male","2217908.3000000715","null","","<p></p>","null","rating","bww","catch","null","washing machines","60","60","5","15","5","15","1","","","","","","","","","",""
"","","","","","rating_trial","survey-html-form","58","1677810","0.0-3.0-1.27","29","1","2025-04-11 14:01:08","bb671e3ae32f654b8954ea4c4635f915","","Mozilla/5.0 (Windows NT 10.0; Win64; x64) AppleWebKit/537.36 (KHTML, like Gecko) Chrome/133.0.0.0 Safari/537.36","WebKit","Chrome","133.0.0.0","Windows","10.0","https://hz8g1ckzuq.cognition.run/","en-US,en;q=0.9","vvplyv3uy3nebdj","22","[""White""]","No","Male","2217908.3000000715","20659","","","{""price_1"":""170"",""price_2"":""30"",""price_3"":""30""}","rating","bww","catch","null","washing machines","60","60","5","15","5","15","1","null","null","null","null","null","null","Average lifespan","Energy savings","",""
"","","","","","rating_trial_setup","html-keyboard-response","59","1678118","0.0-3.0-0.28","29","1","2025-04-11 14:01:08","bb671e3ae32f654b8954ea4c4635f915","","Mozilla/5.0 (Windows NT 10.0; Win64; x64) AppleWebKit/537.36 (KHTML, like Gecko) Chrome/133.0.0.0 Safari/537.36","WebKit","Chrome","133.0.0.0","Windows","10.0","https://hz8g1ckzuq.cognition.run/","en-US,en;q=0.9","vvplyv3uy3nebdj","22","[""White""]","No","Male","2217908.3000000715","null","","<p></p>","null","rating","wbw","catch","null","laptops","70","80","20","40","50","25","1","","","","","","","","","",""
"","","","","","rating_trial","survey-html-form","60","1754486","0.0-3.0-1.28","29","1","2025-04-11 14:01:08","bb671e3ae32f654b8954ea4c4635f915","","Mozilla/5.0 (Windows NT 10.0; Win64; x64) AppleWebKit/537.36 (KHTML, like Gecko) Chrome/133.0.0.0 Safari/537.36","WebKit","Chrome","133.0.0.0","Windows","10.0","https://hz8g1ckzuq.cognition.run/","en-US,en;q=0.9","vvplyv3uy3nebdj","22","[""White""]","No","Male","2217908.3000000715","76340","","","{""price_1"":""180"",""price_2"":""450"",""price_3"":""180""}","rating","wbw","catch","null","laptops","70","80","20","40","50","25","1","null","null","null","null","null","null","Processing speed","Memory (RAM)","",""
"","","","","","rating_trial_setup","html-keyboard-response","61","1754792","0.0-3.0-0.29","29","1","2025-04-11 14:01:08","bb671e3ae32f654b8954ea4c4635f915","","Mozilla/5.0 (Windows NT 10.0; Win64; x64) AppleWebKit/537.36 (KHTML, like Gecko) Chrome/133.0.0.0 Safari/537.36","WebKit","Chrome","133.0.0.0","Windows","10.0","https://hz8g1ckzuq.cognition.run/","en-US,en;q=0.9","vvplyv3uy3nebdj","22","[""White""]","No","Male","2217908.3000000715","null","","<p></p>","null","rating","cdt","repulsion_1","1","washing machines","null","null","null","null","null","null","2","","","","","","","","","",""
"","","","","","rating_trial","survey-html-form","62","1766781","0.0-3.0-1.29","29","1","2025-04-11 14:01:08","bb671e3ae32f654b8954ea4c4635f915","","Mozilla/5.0 (Windows NT 10.0; Win64; x64) AppleWebKit/537.36 (KHTML, like Gecko) Chrome/133.0.0.0 Safari/537.36","WebKit","Chrome","133.0.0.0","Windows","10.0","https://hz8g1ckzuq.cognition.run/","en-US,en;q=0.9","vvplyv3uy3nebdj","22","[""White""]","No","Male","2217908.3000000715","11981","","","{""price_1"":""85"",""price_2"":""80"",""price_3"":""80""}","rating","cdt","repulsion_1","1","washing machines","null","null","null","null","null","null","2","100","90","100","30","40","25","Average lifespan","Energy savings","",""
"","","","","","rating_trial_setup","html-keyboard-response","63","1767095","0.0-3.0-0.30","29","1","2025-04-11 14:01:08","bb671e3ae32f654b8954ea4c4635f915","","Mozilla/5.0 (Windows NT 10.0; Win64; x64) AppleWebKit/537.36 (KHTML, like Gecko) Chrome/133.0.0.0 Safari/537.36","WebKit","Chrome","133.0.0.0","Windows","10.0","https://hz8g1ckzuq.cognition.run/","en-US,en;q=0.9","vvplyv3uy3nebdj","22","[""White""]","No","Male","2217908.3000000715","null","","<p></p>","null","rating","ctd","repulsion_2","2","laptops","null","null","null","null","null","null","1","","","","","","","","","",""
"","","","","","rating_trial","survey-html-form","64","1786773","0.0-3.0-1.30","29","1","2025-04-11 14:01:08","bb671e3ae32f654b8954ea4c4635f915","","Mozilla/5.0 (Windows NT 10.0; Win64; x64) AppleWebKit/537.36 (KHTML, like Gecko) Chrome/133.0.0.0 Safari/537.36","WebKit","Chrome","133.0.0.0","Windows","10.0","https://hz8g1ckzuq.cognition.run/","en-US,en;q=0.9","vvplyv3uy3nebdj","22","[""White""]","No","Male","2217908.3000000715","19671","","","{""price_1"":""220"",""price_2"":""220"",""price_3"":""220""}","rating","ctd","repulsion_2","2","laptops","null","null","null","null","null","null","1","30","40","20","100","90","100","Processing speed","Memory (RAM)","",""
"","","","","","rating_trial_setup","html-keyboard-response","65","1787082","0.0-3.0-0.31","29","1","2025-04-11 14:01:08","bb671e3ae32f654b8954ea4c4635f915","","Mozilla/5.0 (Windows NT 10.0; Win64; x64) AppleWebKit/537.36 (KHTML, like Gecko) Chrome/133.0.0.0 Safari/537.36","WebKit","Chrome","133.0.0.0","Windows","10.0","https://hz8g1ckzuq.cognition.run/","en-US,en;q=0.9","vvplyv3uy3nebdj","22","[""White""]","No","Male","2217908.3000000715","null","","<p></p>","null","rating","dct","repulsion_2","2","washing machines","null","null","null","null","null","null","1","","","","","","","","","",""
"","","","","","rating_trial","survey-html-form","66","1843906","0.0-3.0-1.31","29","1","2025-04-11 14:01:08","bb671e3ae32f654b8954ea4c4635f915","","Mozilla/5.0 (Windows NT 10.0; Win64; x64) AppleWebKit/537.36 (KHTML, like Gecko) Chrome/133.0.0.0 Safari/537.36","WebKit","Chrome","133.0.0.0","Windows","10.0","https://hz8g1ckzuq.cognition.run/","en-US,en;q=0.9","vvplyv3uy3nebdj","22","[""White""]","No","Male","2217908.3000000715","56820","","","{""price_1"":""75"",""price_2"":""85"",""price_3"":""80""}","rating","dct","repulsion_2","2","washing machines","null","null","null","null","null","null","1","30","40","20","100","90","100","Average lifespan","Energy savings","",""
"","","","","","rating_trial_setup","html-keyboard-response","67","1844214","0.0-3.0-0.32","29","1","2025-04-11 14:01:08","bb671e3ae32f654b8954ea4c4635f915","","Mozilla/5.0 (Windows NT 10.0; Win64; x64) AppleWebKit/537.36 (KHTML, like Gecko) Chrome/133.0.0.0 Safari/537.36","WebKit","Chrome","133.0.0.0","Windows","10.0","https://hz8g1ckzuq.cognition.run/","en-US,en;q=0.9","vvplyv3uy3nebdj","22","[""White""]","No","Male","2217908.3000000715","null","","<p></p>","null","rating","tdc","attraction_1","2","laptops","null","null","null","null","null","null","1","","","","","","","","","",""
"","","","","","rating_trial","survey-html-form","68","1890448","0.0-3.0-1.32","29","1","2025-04-11 14:01:08","bb671e3ae32f654b8954ea4c4635f915","","Mozilla/5.0 (Windows NT 10.0; Win64; x64) AppleWebKit/537.36 (KHTML, like Gecko) Chrome/133.0.0.0 Safari/537.36","WebKit","Chrome","133.0.0.0","Windows","10.0","https://hz8g1ckzuq.cognition.run/","en-US,en;q=0.9","vvplyv3uy3nebdj","22","[""White""]","No","Male","2217908.3000000715","46226","","","{""price_1"":""350"",""price_2"":""330"",""price_3"":""350""}","rating","tdc","attraction_1","2","laptops","null","null","null","null","null","null","1","50","60","45","60","50","60","Processing speed","Memory (RAM)","",""
"","","","","","rating_trial_setup","html-keyboard-response","69","1890755","0.0-3.0-0.33","29","1","2025-04-11 14:01:08","bb671e3ae32f654b8954ea4c4635f915","","Mozilla/5.0 (Windows NT 10.0; Win64; x64) AppleWebKit/537.36 (KHTML, like Gecko) Chrome/133.0.0.0 Safari/537.36","WebKit","Chrome","133.0.0.0","Windows","10.0","https://hz8g1ckzuq.cognition.run/","en-US,en;q=0.9","vvplyv3uy3nebdj","22","[""White""]","No","Male","2217908.3000000715","null","","<p></p>","null","rating","tcd","attraction_1","2","televisions","null","null","null","null","null","null","2","","","","","","","","","",""
"","","","","","rating_trial","survey-html-form","70","1902464","0.0-3.0-1.33","29","1","2025-04-11 14:01:08","bb671e3ae32f654b8954ea4c4635f915","","Mozilla/5.0 (Windows NT 10.0; Win64; x64) AppleWebKit/537.36 (KHTML, like Gecko) Chrome/133.0.0.0 Safari/537.36","WebKit","Chrome","133.0.0.0","Windows","10.0","https://hz8g1ckzuq.cognition.run/","en-US,en;q=0.9","vvplyv3uy3nebdj","22","[""White""]","No","Male","2217908.3000000715","11698","","","{""price_1"":""250"",""price_2"":""300"",""price_3"":""250""}","rating","tcd","attraction_1","2","televisions","null","null","null","null","null","null","2","50","60","45","60","50","60","Screen size","Average lifespan","",""
"","","","","","rating_trial_setup","html-keyboard-response","71","1902771","0.0-3.0-0.34","29","1","2025-04-11 14:01:08","bb671e3ae32f654b8954ea4c4635f915","","Mozilla/5.0 (Windows NT 10.0; Win64; x64) AppleWebKit/537.36 (KHTML, like Gecko) Chrome/133.0.0.0 Safari/537.36","WebKit","Chrome","133.0.0.0","Windows","10.0","https://hz8g1ckzuq.cognition.run/","en-US,en;q=0.9","vvplyv3uy3nebdj","22","[""White""]","No","Male","2217908.3000000715","null","","<p></p>","null","rating","dct","repulsion_1","2","televisions","null","null","null","null","null","null","1","","","","","","","","","",""
"","","","","","rating_trial","survey-html-form","72","1945314","0.0-3.0-1.34","29","1","2025-04-11 14:01:08","bb671e3ae32f654b8954ea4c4635f915","","Mozilla/5.0 (Windows NT 10.0; Win64; x64) AppleWebKit/537.36 (KHTML, like Gecko) Chrome/133.0.0.0 Safari/537.36","WebKit","Chrome","133.0.0.0","Windows","10.0","https://hz8g1ckzuq.cognition.run/","en-US,en;q=0.9","vvplyv3uy3nebdj","22","[""White""]","No","Male","2217908.3000000715","42536","","","{""price_1"":""140"",""price_2"":""160"",""price_3"":""150""}","rating","dct","repulsion_1","2","televisions","null","null","null","null","null","null","1","30","40","25","100","90","100","Screen size","Average lifespan","",""
"","","","","","rating_trial_setup","html-keyboard-response","73","1945621","0.0-3.0-0.35","29","1","2025-04-11 14:01:08","bb671e3ae32f654b8954ea4c4635f915","","Mozilla/5.0 (Windows NT 10.0; Win64; x64) AppleWebKit/537.36 (KHTML, like Gecko) Chrome/133.0.0.0 Safari/537.36","WebKit","Chrome","133.0.0.0","Windows","10.0","https://hz8g1ckzuq.cognition.run/","en-US,en;q=0.9","vvplyv3uy3nebdj","22","[""White""]","No","Male","2217908.3000000715","null","","<p></p>","null","rating","tcd","attraction_2","1","microwave ovens","null","null","null","null","null","null","2","","","","","","","","","",""
"","","","","","rating_trial","survey-html-form","74","1961085","0.0-3.0-1.35","29","1","2025-04-11 14:01:08","bb671e3ae32f654b8954ea4c4635f915","","Mozilla/5.0 (Windows NT 10.0; Win64; x64) AppleWebKit/537.36 (KHTML, like Gecko) Chrome/133.0.0.0 Safari/537.36","WebKit","Chrome","133.0.0.0","Windows","10.0","https://hz8g1ckzuq.cognition.run/","en-US,en;q=0.9","vvplyv3uy3nebdj","22","[""White""]","No","Male","2217908.3000000715","15455","","","{""price_1"":""100"",""price_2"":""100"",""price_3"":""100""}","rating","tcd","attraction_2","1","microwave ovens","null","null","null","null","null","null","2","60","50","60","50","60","40","Warranty","Cooking power","",""
"","","","","","rating_trial_setup","html-keyboard-response","75","1961393","0.0-3.0-0.36","29","1","2025-04-11 14:01:08","bb671e3ae32f654b8954ea4c4635f915","","Mozilla/5.0 (Windows NT 10.0; Win64; x64) AppleWebKit/537.36 (KHTML, like Gecko) Chrome/133.0.0.0 Safari/537.36","WebKit","Chrome","133.0.0.0","Windows","10.0","https://hz8g1ckzuq.cognition.run/","en-US,en;q=0.9","vvplyv3uy3nebdj","22","[""White""]","No","Male","2217908.3000000715","null","","<p></p>","null","rating","dtc","attraction_2","1","washing machines","null","null","null","null","null","null","1","","","","","","","","","",""
"","","","","","rating_trial","survey-html-form","76","1968723","0.0-3.0-1.36","29","1","2025-04-11 14:01:08","bb671e3ae32f654b8954ea4c4635f915","","Mozilla/5.0 (Windows NT 10.0; Win64; x64) AppleWebKit/537.36 (KHTML, like Gecko) Chrome/133.0.0.0 Safari/537.36","WebKit","Chrome","133.0.0.0","Windows","10.0","https://hz8g1ckzuq.cognition.run/","en-US,en;q=0.9","vvplyv3uy3nebdj","22","[""White""]","No","Male","2217908.3000000715","7318","","","{""price_1"":""100"",""price_2"":""100"",""price_3"":""120""}","rating","dtc","attraction_2","1","washing machines","null","null","null","null","null","null","1","60","50","60","50","60","40","Average lifespan","Energy savings","",""
"","","","","","rating_trial_setup","html-keyboard-response","77","1969036","0.0-3.0-0.37","29","1","2025-04-11 14:01:08","bb671e3ae32f654b8954ea4c4635f915","","Mozilla/5.0 (Windows NT 10.0; Win64; x64) AppleWebKit/537.36 (KHTML, like Gecko) Chrome/133.0.0.0 Safari/537.36","WebKit","Chrome","133.0.0.0","Windows","10.0","https://hz8g1ckzuq.cognition.run/","en-US,en;q=0.9","vvplyv3uy3nebdj","22","[""White""]","No","Male","2217908.3000000715","null","","<p></p>","null","rating","dtc","attraction_2","1","laptops","null","null","null","null","null","null","2","","","","","","","","","",""
"","","","","","rating_trial","survey-html-form","78","1976356","0.0-3.0-1.37","29","1","2025-04-11 14:01:08","bb671e3ae32f654b8954ea4c4635f915","","Mozilla/5.0 (Windows NT 10.0; Win64; x64) AppleWebKit/537.36 (KHTML, like Gecko) Chrome/133.0.0.0 Safari/537.36","WebKit","Chrome","133.0.0.0","Windows","10.0","https://hz8g1ckzuq.cognition.run/","en-US,en;q=0.9","vvplyv3uy3nebdj","22","[""White""]","No","Male","2217908.3000000715","7312","","","{""price_1"":""250"",""price_2"":""250"",""price_3"":""270""}","rating","dtc","attraction_2","1","laptops","null","null","null","null","null","null","2","60","50","60","50","60","40","Processing speed","Memory (RAM)","",""
"","","","","","rating_trial_setup","html-keyboard-response","79","1976670","0.0-3.0-0.38","29","1","2025-04-11 14:01:08","bb671e3ae32f654b8954ea4c4635f915","","Mozilla/5.0 (Windows NT 10.0; Win64; x64) AppleWebKit/537.36 (KHTML, like Gecko) Chrome/133.0.0.0 Safari/537.36","WebKit","Chrome","133.0.0.0","Windows","10.0","https://hz8g1ckzuq.cognition.run/","en-US,en;q=0.9","vvplyv3uy3nebdj","22","[""White""]","No","Male","2217908.3000000715","null","","<p></p>","null","rating","dct","repulsion_2","1","televisions","null","null","null","null","null","null","2","","","","","","","","","",""
"","","","","","rating_trial","survey-html-form","80","1989399","0.0-3.0-1.38","29","1","2025-04-11 14:01:08","bb671e3ae32f654b8954ea4c4635f915","","Mozilla/5.0 (Windows NT 10.0; Win64; x64) AppleWebKit/537.36 (KHTML, like Gecko) Chrome/133.0.0.0 Safari/537.36","WebKit","Chrome","133.0.0.0","Windows","10.0","https://hz8g1ckzuq.cognition.run/","en-US,en;q=0.9","vvplyv3uy3nebdj","22","[""White""]","No","Male","2217908.3000000715","12720","","","{""price_1"":""120"",""price_2"":""140"",""price_3"":""120""}","rating","dct","repulsion_2","1","televisions","null","null","null","null","null","null","2","100","90","100","30","40","20","Screen size","Average lifespan","",""
"","","","","","rating_trial_setup","html-keyboard-response","81","1989707","0.0-3.0-0.39","29","1","2025-04-11 14:01:08","bb671e3ae32f654b8954ea4c4635f915","","Mozilla/5.0 (Windows NT 10.0; Win64; x64) AppleWebKit/537.36 (KHTML, like Gecko) Chrome/133.0.0.0 Safari/537.36","WebKit","Chrome","133.0.0.0","Windows","10.0","https://hz8g1ckzuq.cognition.run/","en-US,en;q=0.9","vvplyv3uy3nebdj","22","[""White""]","No","Male","2217908.3000000715","null","","<p></p>","null","rating","cdt","attraction_1","1","microwave ovens","null","null","null","null","null","null","2","","","","","","","","","",""
"","","","","","rating_trial","survey-html-form","82","1998201","0.0-3.0-1.39","29","1","2025-04-11 14:01:08","bb671e3ae32f654b8954ea4c4635f915","","Mozilla/5.0 (Windows NT 10.0; Win64; x64) AppleWebKit/537.36 (KHTML, like Gecko) Chrome/133.0.0.0 Safari/537.36","WebKit","Chrome","133.0.0.0","Windows","10.0","https://hz8g1ckzuq.cognition.run/","en-US,en;q=0.9","vvplyv3uy3nebdj","22","[""White""]","No","Male","2217908.3000000715","8479","","","{""price_1"":""100"",""price_2"":""100"",""price_3"":""100""}","rating","cdt","attraction_1","1","microwave ovens","null","null","null","null","null","null","2","60","50","60","50","60","45","Warranty","Cooking power","",""
"","","","","","","instructions","83","2021602","0.0-4.0","29","1","2025-04-11 14:01:08","bb671e3ae32f654b8954ea4c4635f915","","Mozilla/5.0 (Windows NT 10.0; Win64; x64) AppleWebKit/537.36 (KHTML, like Gecko) Chrome/133.0.0.0 Safari/537.36","WebKit","Chrome","133.0.0.0","Windows","10.0","https://hz8g1ckzuq.cognition.run/","en-US,en;q=0.9","vvplyv3uy3nebdj","22","[""White""]","No","Male","2217908.3000000715","23393","[{""page_index"":0,""viewing_time"":1350},{""page_index"":1,""viewing_time"":2003},{""page_index"":2,""viewing_time"":2072},{""page_index"":3,""viewing_time"":3582},{""page_index"":4,""viewing_time"":3974},{""page_index"":5,""viewing_time"":2509},{""page_index"":6,""viewing_time"":5123},{""page_index"":7,""viewing_time"":2778}]","","","","","","","","","","","","","","","","","","","","","","","",""
"","","","","","choice_trial_setup","html-keyboard-response","84","2021911","0.0-5.0-0.0","29","1","2025-04-11 14:01:08","bb671e3ae32f654b8954ea4c4635f915","","Mozilla/5.0 (Windows NT 10.0; Win64; x64) AppleWebKit/537.36 (KHTML, like Gecko) Chrome/133.0.0.0 Safari/537.36","WebKit","Chrome","133.0.0.0","Windows","10.0","https://hz8g1ckzuq.cognition.run/","en-US,en;q=0.9","vvplyv3uy3nebdj","22","[""White""]","No","Male","2217908.3000000715","null","","<p></p>","null","choice","cdt","repulsion_2","2","washing machines","null","null","null","null","null","null","2","","","","","","","","","",""
"","","","","","choice_trial","survey-html-form","85","2029393","0.0-5.0-1.0","29","1","2025-04-11 14:01:08","bb671e3ae32f654b8954ea4c4635f915","","Mozilla/5.0 (Windows NT 10.0; Win64; x64) AppleWebKit/537.36 (KHTML, like Gecko) Chrome/133.0.0.0 Safari/537.36","WebKit","Chrome","133.0.0.0","Windows","10.0","https://hz8g1ckzuq.cognition.run/","en-US,en;q=0.9","vvplyv3uy3nebdj","22","[""White""]","No","Male","2217908.3000000715","7469","","","{""product_choice"":""A""}","choice","cdt","repulsion_2","2","washing machines","null","null","null","null","null","null","2","30","40","20","100","90","100","Average lifespan","Energy savings","",""
"","","","","","choice_trial_setup","html-keyboard-response","86","2029702","0.0-5.0-0.1","29","1","2025-04-11 14:01:08","bb671e3ae32f654b8954ea4c4635f915","","Mozilla/5.0 (Windows NT 10.0; Win64; x64) AppleWebKit/537.36 (KHTML, like Gecko) Chrome/133.0.0.0 Safari/537.36","WebKit","Chrome","133.0.0.0","Windows","10.0","https://hz8g1ckzuq.cognition.run/","en-US,en;q=0.9","vvplyv3uy3nebdj","22","[""White""]","No","Male","2217908.3000000715","null","","<p></p>","null","choice","ctd","repulsion_2","1","washing machines","null","null","null","null","null","null","2","","","","","","","","","",""
"","","","","","choice_trial","survey-html-form","87","2032999","0.0-5.0-1.1","29","1","2025-04-11 14:01:08","bb671e3ae32f654b8954ea4c4635f915","","Mozilla/5.0 (Windows NT 10.0; Win64; x64) AppleWebKit/537.36 (KHTML, like Gecko) Chrome/133.0.0.0 Safari/537.36","WebKit","Chrome","133.0.0.0","Windows","10.0","https://hz8g1ckzuq.cognition.run/","en-US,en;q=0.9","vvplyv3uy3nebdj","22","[""White""]","No","Male","2217908.3000000715","3287","","","{""product_choice"":""A""}","choice","ctd","repulsion_2","1","washing machines","null","null","null","null","null","null","2","100","90","100","30","40","20","Average lifespan","Energy savings","",""
"","","","","","choice_trial_setup","html-keyboard-response","88","2033308","0.0-5.0-0.2","29","1","2025-04-11 14:01:08","bb671e3ae32f654b8954ea4c4635f915","","Mozilla/5.0 (Windows NT 10.0; Win64; x64) AppleWebKit/537.36 (KHTML, like Gecko) Chrome/133.0.0.0 Safari/537.36","WebKit","Chrome","133.0.0.0","Windows","10.0","https://hz8g1ckzuq.cognition.run/","en-US,en;q=0.9","vvplyv3uy3nebdj","22","[""White""]","No","Male","2217908.3000000715","null","","<p></p>","null","choice","tdc","attraction_2","1","washing machines","null","null","null","null","null","null","1","","","","","","","","","",""
"","","","","","choice_trial","survey-html-form","89","2036452","0.0-5.0-1.2","29","1","2025-04-11 14:01:08","bb671e3ae32f654b8954ea4c4635f915","","Mozilla/5.0 (Windows NT 10.0; Win64; x64) AppleWebKit/537.36 (KHTML, like Gecko) Chrome/133.0.0.0 Safari/537.36","WebKit","Chrome","133.0.0.0","Windows","10.0","https://hz8g1ckzuq.cognition.run/","en-US,en;q=0.9","vvplyv3uy3nebdj","22","[""White""]","No","Male","2217908.3000000715","3128","","","{""product_choice"":""A""}","choice","tdc","attraction_2","1","washing machines","null","null","null","null","null","null","1","60","50","60","50","60","40","Average lifespan","Energy savings","",""
"","","","","","choice_trial_setup","html-keyboard-response","90","2036757","0.0-5.0-0.3","29","1","2025-04-11 14:01:08","bb671e3ae32f654b8954ea4c4635f915","","Mozilla/5.0 (Windows NT 10.0; Win64; x64) AppleWebKit/537.36 (KHTML, like Gecko) Chrome/133.0.0.0 Safari/537.36","WebKit","Chrome","133.0.0.0","Windows","10.0","https://hz8g1ckzuq.cognition.run/","en-US,en;q=0.9","vvplyv3uy3nebdj","22","[""White""]","No","Male","2217908.3000000715","null","","<p></p>","null","choice","tdc","attraction_2","2","microwave ovens","null","null","null","null","null","null","1","","","","","","","","","",""
"","","","","","choice_trial","survey-html-form","91","2041516","0.0-5.0-1.3","29","1","2025-04-11 14:01:08","bb671e3ae32f654b8954ea4c4635f915","","Mozilla/5.0 (Windows NT 10.0; Win64; x64) AppleWebKit/537.36 (KHTML, like Gecko) Chrome/133.0.0.0 Safari/537.36","WebKit","Chrome","133.0.0.0","Windows","10.0","https://hz8g1ckzuq.cognition.run/","en-US,en;q=0.9","vvplyv3uy3nebdj","22","[""White""]","No","Male","2217908.3000000715","4750","","","{""product_choice"":""A""}","choice","tdc","attraction_2","2","microwave ovens","null","null","null","null","null","null","1","50","60","40","60","50","60","Warranty","Cooking power","",""
"","","","","","choice_trial_setup","html-keyboard-response","92","2041829","0.0-5.0-0.4","29","1","2025-04-11 14:01:08","bb671e3ae32f654b8954ea4c4635f915","","Mozilla/5.0 (Windows NT 10.0; Win64; x64) AppleWebKit/537.36 (KHTML, like Gecko) Chrome/133.0.0.0 Safari/537.36","WebKit","Chrome","133.0.0.0","Windows","10.0","https://hz8g1ckzuq.cognition.run/","en-US,en;q=0.9","vvplyv3uy3nebdj","22","[""White""]","No","Male","2217908.3000000715","null","","<p></p>","null","choice","cdt","repulsion_1","2","washing machines","null","null","null","null","null","null","2","","","","","","","","","",""
"","","","","","choice_trial","survey-html-form","93","2045568","0.0-5.0-1.4","29","1","2025-04-11 14:01:08","bb671e3ae32f654b8954ea4c4635f915","","Mozilla/5.0 (Windows NT 10.0; Win64; x64) AppleWebKit/537.36 (KHTML, like Gecko) Chrome/133.0.0.0 Safari/537.36","WebKit","Chrome","133.0.0.0","Windows","10.0","https://hz8g1ckzuq.cognition.run/","en-US,en;q=0.9","vvplyv3uy3nebdj","22","[""White""]","No","Male","2217908.3000000715","3725","","","{""product_choice"":""A""}","choice","cdt","repulsion_1","2","washing machines","null","null","null","null","null","null","2","30","40","25","100","90","100","Average lifespan","Energy savings","",""
"","","","","","choice_trial_setup","html-keyboard-response","94","2045879","0.0-5.0-0.5","29","1","2025-04-11 14:01:08","bb671e3ae32f654b8954ea4c4635f915","","Mozilla/5.0 (Windows NT 10.0; Win64; x64) AppleWebKit/537.36 (KHTML, like Gecko) Chrome/133.0.0.0 Safari/537.36","WebKit","Chrome","133.0.0.0","Windows","10.0","https://hz8g1ckzuq.cognition.run/","en-US,en;q=0.9","vvplyv3uy3nebdj","22","[""White""]","No","Male","2217908.3000000715","null","","<p></p>","null","choice","tdc","repulsion_1","2","laptops","null","null","null","null","null","null","1","","","","","","","","","",""
"","","","","","choice_trial","survey-html-form","95","2048504","0.0-5.0-1.5","29","1","2025-04-11 14:01:08","bb671e3ae32f654b8954ea4c4635f915","","Mozilla/5.0 (Windows NT 10.0; Win64; x64) AppleWebKit/537.36 (KHTML, like Gecko) Chrome/133.0.0.0 Safari/537.36","WebKit","Chrome","133.0.0.0","Windows","10.0","https://hz8g1ckzuq.cognition.run/","en-US,en;q=0.9","vvplyv3uy3nebdj","22","[""White""]","No","Male","2217908.3000000715","2612","","","{""product_choice"":""C""}","choice","tdc","repulsion_1","2","laptops","null","null","null","null","null","null","1","30","40","25","100","90","100","Processing speed","Memory (RAM)","",""
"","","","","","choice_trial_setup","html-keyboard-response","96","2048808","0.0-5.0-0.6","29","1","2025-04-11 14:01:08","bb671e3ae32f654b8954ea4c4635f915","","Mozilla/5.0 (Windows NT 10.0; Win64; x64) AppleWebKit/537.36 (KHTML, like Gecko) Chrome/133.0.0.0 Safari/537.36","WebKit","Chrome","133.0.0.0","Windows","10.0","https://hz8g1ckzuq.cognition.run/","en-US,en;q=0.9","vvplyv3uy3nebdj","22","[""White""]","No","Male","2217908.3000000715","null","","<p></p>","null","choice","dct","attraction_2","2","laptops","null","null","null","null","null","null","2","","","","","","","","","",""
"","","","","","choice_trial","survey-html-form","97","2053406","0.0-5.0-1.6","29","1","2025-04-11 14:01:08","bb671e3ae32f654b8954ea4c4635f915","","Mozilla/5.0 (Windows NT 10.0; Win64; x64) AppleWebKit/537.36 (KHTML, like Gecko) Chrome/133.0.0.0 Safari/537.36","WebKit","Chrome","133.0.0.0","Windows","10.0","https://hz8g1ckzuq.cognition.run/","en-US,en;q=0.9","vvplyv3uy3nebdj","22","[""White""]","No","Male","2217908.3000000715","4585","","","{""product_choice"":""A""}","choice","dct","attraction_2","2","laptops","null","null","null","null","null","null","2","50","60","40","60","50","60","Processing speed","Memory (RAM)","",""
"","","","","","choice_trial_setup","html-keyboard-response","98","2053715","0.0-5.0-0.7","29","1","2025-04-11 14:01:08","bb671e3ae32f654b8954ea4c4635f915","","Mozilla/5.0 (Windows NT 10.0; Win64; x64) AppleWebKit/537.36 (KHTML, like Gecko) Chrome/133.0.0.0 Safari/537.36","WebKit","Chrome","133.0.0.0","Windows","10.0","https://hz8g1ckzuq.cognition.run/","en-US,en;q=0.9","vvplyv3uy3nebdj","22","[""White""]","No","Male","2217908.3000000715","null","","<p></p>","null","choice","dct","repulsion_1","1","washing machines","null","null","null","null","null","null","1","","","","","","","","","",""
"","","","","","choice_trial","survey-html-form","99","2054728","0.0-5.0-1.7","29","1","2025-04-11 14:01:08","bb671e3ae32f654b8954ea4c4635f915","","Mozilla/5.0 (Windows NT 10.0; Win64; x64) AppleWebKit/537.36 (KHTML, like Gecko) Chrome/133.0.0.0 Safari/537.36","WebKit","Chrome","133.0.0.0","Windows","10.0","https://hz8g1ckzuq.cognition.run/","en-US,en;q=0.9","vvplyv3uy3nebdj","22","[""White""]","No","Male","2217908.3000000715","1007","","","{""product_choice"":""A""}","choice","dct","repulsion_1","1","washing machines","null","null","null","null","null","null","1","100","90","100","30","40","25","Average lifespan","Energy savings","",""
"","","","","","choice_trial_setup","html-keyboard-response","100","2055047","0.0-5.0-0.8","29","1","2025-04-11 14:01:08","bb671e3ae32f654b8954ea4c4635f915","","Mozilla/5.0 (Windows NT 10.0; Win64; x64) AppleWebKit/537.36 (KHTML, like Gecko) Chrome/133.0.0.0 Safari/537.36","WebKit","Chrome","133.0.0.0","Windows","10.0","https://hz8g1ckzuq.cognition.run/","en-US,en;q=0.9","vvplyv3uy3nebdj","22","[""White""]","No","Male","2217908.3000000715","null","","<p></p>","null","choice","cdt","repulsion_1","1","microwave ovens","null","null","null","null","null","null","2","","","","","","","","","",""
"","","","","","choice_trial","survey-html-form","101","2057367","0.0-5.0-1.8","29","1","2025-04-11 14:01:08","bb671e3ae32f654b8954ea4c4635f915","","Mozilla/5.0 (Windows NT 10.0; Win64; x64) AppleWebKit/537.36 (KHTML, like Gecko) Chrome/133.0.0.0 Safari/537.36","WebKit","Chrome","133.0.0.0","Windows","10.0","https://hz8g1ckzuq.cognition.run/","en-US,en;q=0.9","vvplyv3uy3nebdj","22","[""White""]","No","Male","2217908.3000000715","2309","","","{""product_choice"":""B""}","choice","cdt","repulsion_1","1","microwave ovens","null","null","null","null","null","null","2","100","90","100","30","40","25","Warranty","Cooking power","",""
"","","","","","choice_trial_setup","html-keyboard-response","102","2057696","0.0-5.0-0.9","29","1","2025-04-11 14:01:08","bb671e3ae32f654b8954ea4c4635f915","","Mozilla/5.0 (Windows NT 10.0; Win64; x64) AppleWebKit/537.36 (KHTML, like Gecko) Chrome/133.0.0.0 Safari/537.36","WebKit","Chrome","133.0.0.0","Windows","10.0","https://hz8g1ckzuq.cognition.run/","en-US,en;q=0.9","vvplyv3uy3nebdj","22","[""White""]","No","Male","2217908.3000000715","null","","<p></p>","null","choice","bww","catch","null","televisions","80","60","20","15","20","25","2","","","","","","","","","",""
"","","","","","choice_trial","survey-html-form","103","2060843","0.0-5.0-1.9","29","1","2025-04-11 14:01:08","bb671e3ae32f654b8954ea4c4635f915","","Mozilla/5.0 (Windows NT 10.0; Win64; x64) AppleWebKit/537.36 (KHTML, like Gecko) Chrome/133.0.0.0 Safari/537.36","WebKit","Chrome","133.0.0.0","Windows","10.0","https://hz8g1ckzuq.cognition.run/","en-US,en;q=0.9","vvplyv3uy3nebdj","22","[""White""]","No","Male","2217908.3000000715","3138","","","{""product_choice"":""A""}","choice","bww","catch","null","televisions","80","60","20","15","20","25","2","null","null","null","null","null","null","Screen size","Average lifespan","",""
"","","","","","choice_trial_setup","html-keyboard-response","104","2061150","0.0-5.0-0.10","29","1","2025-04-11 14:01:08","bb671e3ae32f654b8954ea4c4635f915","","Mozilla/5.0 (Windows NT 10.0; Win64; x64) AppleWebKit/537.36 (KHTML, like Gecko) Chrome/133.0.0.0 Safari/537.36","WebKit","Chrome","133.0.0.0","Windows","10.0","https://hz8g1ckzuq.cognition.run/","en-US,en;q=0.9","vvplyv3uy3nebdj","22","[""White""]","No","Male","2217908.3000000715","null","","<p></p>","null","choice","ctd","repulsion_1","2","microwave ovens","null","null","null","null","null","null","2","","","","","","","","","",""
"","","","","","choice_trial","survey-html-form","105","2064455","0.0-5.0-1.10","29","1","2025-04-11 14:01:08","bb671e3ae32f654b8954ea4c4635f915","","Mozilla/5.0 (Windows NT 10.0; Win64; x64) AppleWebKit/537.36 (KHTML, like Gecko) Chrome/133.0.0.0 Safari/537.36","WebKit","Chrome","133.0.0.0","Windows","10.0","https://hz8g1ckzuq.cognition.run/","en-US,en;q=0.9","vvplyv3uy3nebdj","22","[""White""]","No","Male","2217908.3000000715","3297","","","{""product_choice"":""A""}","choice","ctd","repulsion_1","2","microwave ovens","null","null","null","null","null","null","2","30","40","25","100","90","100","Warranty","Cooking power","",""
"","","","","","choice_trial_setup","html-keyboard-response","106","2064768","0.0-5.0-0.11","29","1","2025-04-11 14:01:08","bb671e3ae32f654b8954ea4c4635f915","","Mozilla/5.0 (Windows NT 10.0; Win64; x64) AppleWebKit/537.36 (KHTML, like Gecko) Chrome/133.0.0.0 Safari/537.36","WebKit","Chrome","133.0.0.0","Windows","10.0","https://hz8g1ckzuq.cognition.run/","en-US,en;q=0.9","vvplyv3uy3nebdj","22","[""White""]","No","Male","2217908.3000000715","null","","<p></p>","null","choice","wbw","catch","null","washing machines","85","50","15","25","30","50","2","","","","","","","","","",""
"","","","","","choice_trial","survey-html-form","107","2067351","0.0-5.0-1.11","29","1","2025-04-11 14:01:08","bb671e3ae32f654b8954ea4c4635f915","","Mozilla/5.0 (Windows NT 10.0; Win64; x64) AppleWebKit/537.36 (KHTML, like Gecko) Chrome/133.0.0.0 Safari/537.36","WebKit","Chrome","133.0.0.0","Windows","10.0","https://hz8g1ckzuq.cognition.run/","en-US,en;q=0.9","vvplyv3uy3nebdj","22","[""White""]","No","Male","2217908.3000000715","2572","","","{""product_choice"":""B""}","choice","wbw","catch","null","washing machines","85","50","15","25","30","50","2","null","null","null","null","null","null","Average lifespan","Energy savings","",""
"","","","","","choice_trial_setup","html-keyboard-response","108","2067666","0.0-5.0-0.12","29","1","2025-04-11 14:01:08","bb671e3ae32f654b8954ea4c4635f915","","Mozilla/5.0 (Windows NT 10.0; Win64; x64) AppleWebKit/537.36 (KHTML, like Gecko) Chrome/133.0.0.0 Safari/537.36","WebKit","Chrome","133.0.0.0","Windows","10.0","https://hz8g1ckzuq.cognition.run/","en-US,en;q=0.9","vvplyv3uy3nebdj","22","[""White""]","No","Male","2217908.3000000715","null","","<p></p>","null","choice","wwb","catch","null","laptops","85","85","50","5","20","25","1","","","","","","","","","",""
"","","","","","choice_trial","survey-html-form","109","2070292","0.0-5.0-1.12","29","1","2025-04-11 14:01:08","bb671e3ae32f654b8954ea4c4635f915","","Mozilla/5.0 (Windows NT 10.0; Win64; x64) AppleWebKit/537.36 (KHTML, like Gecko) Chrome/133.0.0.0 Safari/537.36","WebKit","Chrome","133.0.0.0","Windows","10.0","https://hz8g1ckzuq.cognition.run/","en-US,en;q=0.9","vvplyv3uy3nebdj","22","[""White""]","No","Male","2217908.3000000715","2612","","","{""product_choice"":""C""}","choice","wwb","catch","null","laptops","85","85","50","5","20","25","1","null","null","null","null","null","null","Processing speed","Memory (RAM)","",""
"","","","","","choice_trial_setup","html-keyboard-response","110","2070602","0.0-5.0-0.13","29","1","2025-04-11 14:01:08","bb671e3ae32f654b8954ea4c4635f915","","Mozilla/5.0 (Windows NT 10.0; Win64; x64) AppleWebKit/537.36 (KHTML, like Gecko) Chrome/133.0.0.0 Safari/537.36","WebKit","Chrome","133.0.0.0","Windows","10.0","https://hz8g1ckzuq.cognition.run/","en-US,en;q=0.9","vvplyv3uy3nebdj","22","[""White""]","No","Male","2217908.3000000715","null","","<p></p>","null","choice","ctd","repulsion_2","1","laptops","null","null","null","null","null","null","2","","","","","","","","","",""
"","","","","","choice_trial","survey-html-form","111","2077584","0.0-5.0-1.13","29","1","2025-04-11 14:01:08","bb671e3ae32f654b8954ea4c4635f915","","Mozilla/5.0 (Windows NT 10.0; Win64; x64) AppleWebKit/537.36 (KHTML, like Gecko) Chrome/133.0.0.0 Safari/537.36","WebKit","Chrome","133.0.0.0","Windows","10.0","https://hz8g1ckzuq.cognition.run/","en-US,en;q=0.9","vvplyv3uy3nebdj","22","[""White""]","No","Male","2217908.3000000715","6972","","","{""product_choice"":""A""}","choice","ctd","repulsion_2","1","laptops","null","null","null","null","null","null","2","100","90","100","30","40","20","Processing speed","Memory (RAM)","",""
"","","","","","choice_trial_setup","html-keyboard-response","112","2077895","0.0-5.0-0.14","29","1","2025-04-11 14:01:08","bb671e3ae32f654b8954ea4c4635f915","","Mozilla/5.0 (Windows NT 10.0; Win64; x64) AppleWebKit/537.36 (KHTML, like Gecko) Chrome/133.0.0.0 Safari/537.36","WebKit","Chrome","133.0.0.0","Windows","10.0","https://hz8g1ckzuq.cognition.run/","en-US,en;q=0.9","vvplyv3uy3nebdj","22","[""White""]","No","Male","2217908.3000000715","null","","<p></p>","null","choice","tcd","attraction_2","2","washing machines","null","null","null","null","null","null","2","","","","","","","","","",""
"","","","","","choice_trial","survey-html-form","113","2081761","0.0-5.0-1.14","29","1","2025-04-11 14:01:08","bb671e3ae32f654b8954ea4c4635f915","","Mozilla/5.0 (Windows NT 10.0; Win64; x64) AppleWebKit/537.36 (KHTML, like Gecko) Chrome/133.0.0.0 Safari/537.36","WebKit","Chrome","133.0.0.0","Windows","10.0","https://hz8g1ckzuq.cognition.run/","en-US,en;q=0.9","vvplyv3uy3nebdj","22","[""White""]","No","Male","2217908.3000000715","3846","","","{""product_choice"":""B""}","choice","tcd","attraction_2","2","washing machines","null","null","null","null","null","null","2","50","60","40","60","50","60","Average lifespan","Energy savings","",""
"","","","","","choice_trial_setup","html-keyboard-response","114","2082073","0.0-5.0-0.15","29","1","2025-04-11 14:01:08","bb671e3ae32f654b8954ea4c4635f915","","Mozilla/5.0 (Windows NT 10.0; Win64; x64) AppleWebKit/537.36 (KHTML, like Gecko) Chrome/133.0.0.0 Safari/537.36","WebKit","Chrome","133.0.0.0","Windows","10.0","https://hz8g1ckzuq.cognition.run/","en-US,en;q=0.9","vvplyv3uy3nebdj","22","[""White""]","No","Male","2217908.3000000715","null","","<p></p>","null","choice","tcd","repulsion_1","1","laptops","null","null","null","null","null","null","2","","","","","","","","","",""
"","","","","","choice_trial","survey-html-form","115","2085375","0.0-5.0-1.15","29","1","2025-04-11 14:01:08","bb671e3ae32f654b8954ea4c4635f915","","Mozilla/5.0 (Windows NT 10.0; Win64; x64) AppleWebKit/537.36 (KHTML, like Gecko) Chrome/133.0.0.0 Safari/537.36","WebKit","Chrome","133.0.0.0","Windows","10.0","https://hz8g1ckzuq.cognition.run/","en-US,en;q=0.9","vvplyv3uy3nebdj","22","[""White""]","No","Male","2217908.3000000715","3290","","","{""product_choice"":""B""}","choice","tcd","repulsion_1","1","laptops","null","null","null","null","null","null","2","100","90","100","30","40","25","Processing speed","Memory (RAM)","",""
"","","","","","choice_trial_setup","html-keyboard-response","116","2085684","0.0-5.0-0.16","29","1","2025-04-11 14:01:08","bb671e3ae32f654b8954ea4c4635f915","","Mozilla/5.0 (Windows NT 10.0; Win64; x64) AppleWebKit/537.36 (KHTML, like Gecko) Chrome/133.0.0.0 Safari/537.36","WebKit","Chrome","133.0.0.0","Windows","10.0","https://hz8g1ckzuq.cognition.run/","en-US,en;q=0.9","vvplyv3uy3nebdj","22","[""White""]","No","Male","2217908.3000000715","null","","<p></p>","null","choice","wbw","catch","null","microwave ovens","90","75","15","20","25","10","1","","","","","","","","","",""
"","","","","","choice_trial","survey-html-form","117","2087407","0.0-5.0-1.16","29","1","2025-04-11 14:01:08","bb671e3ae32f654b8954ea4c4635f915","","Mozilla/5.0 (Windows NT 10.0; Win64; x64) AppleWebKit/537.36 (KHTML, like Gecko) Chrome/133.0.0.0 Safari/537.36","WebKit","Chrome","133.0.0.0","Windows","10.0","https://hz8g1ckzuq.cognition.run/","en-US,en;q=0.9","vvplyv3uy3nebdj","22","[""White""]","No","Male","2217908.3000000715","1715","","","{""product_choice"":""B""}","choice","wbw","catch","null","microwave ovens","90","75","15","20","25","10","1","null","null","null","null","null","null","Warranty","Cooking power","",""
"","","","","","choice_trial_setup","html-keyboard-response","118","2087717","0.0-5.0-0.17","29","1","2025-04-11 14:01:08","bb671e3ae32f654b8954ea4c4635f915","","Mozilla/5.0 (Windows NT 10.0; Win64; x64) AppleWebKit/537.36 (KHTML, like Gecko) Chrome/133.0.0.0 Safari/537.36","WebKit","Chrome","133.0.0.0","Windows","10.0","https://hz8g1ckzuq.cognition.run/","en-US,en;q=0.9","vvplyv3uy3nebdj","22","[""White""]","No","Male","2217908.3000000715","null","","<p></p>","null","choice","cdt","repulsion_2","1","microwave ovens","null","null","null","null","null","null","2","","","","","","","","","",""
"","","","","","choice_trial","survey-html-form","119","2089557","0.0-5.0-1.17","29","1","2025-04-11 14:01:08","bb671e3ae32f654b8954ea4c4635f915","","Mozilla/5.0 (Windows NT 10.0; Win64; x64) AppleWebKit/537.36 (KHTML, like Gecko) Chrome/133.0.0.0 Safari/537.36","WebKit","Chrome","133.0.0.0","Windows","10.0","https://hz8g1ckzuq.cognition.run/","en-US,en;q=0.9","vvplyv3uy3nebdj","22","[""White""]","No","Male","2217908.3000000715","1827","","","{""product_choice"":""A""}","choice","cdt","repulsion_2","1","microwave ovens","null","null","null","null","null","null","2","100","90","100","30","40","20","Warranty","Cooking power","",""
"","","","","","choice_trial_setup","html-keyboard-response","120","2089865","0.0-5.0-0.18","29","1","2025-04-11 14:01:08","bb671e3ae32f654b8954ea4c4635f915","","Mozilla/5.0 (Windows NT 10.0; Win64; x64) AppleWebKit/537.36 (KHTML, like Gecko) Chrome/133.0.0.0 Safari/537.36","WebKit","Chrome","133.0.0.0","Windows","10.0","https://hz8g1ckzuq.cognition.run/","en-US,en;q=0.9","vvplyv3uy3nebdj","22","[""White""]","No","Male","2217908.3000000715","null","","<p></p>","null","choice","cdt","attraction_1","1","microwave ovens","null","null","null","null","null","null","1","","","","","","","","","",""
"","","","","","choice_trial","survey-html-form","121","2094547","0.0-5.0-1.18","29","1","2025-04-11 14:01:08","bb671e3ae32f654b8954ea4c4635f915","","Mozilla/5.0 (Windows NT 10.0; Win64; x64) AppleWebKit/537.36 (KHTML, like Gecko) Chrome/133.0.0.0 Safari/537.36","WebKit","Chrome","133.0.0.0","Windows","10.0","https://hz8g1ckzuq.cognition.run/","en-US,en;q=0.9","vvplyv3uy3nebdj","22","[""White""]","No","Male","2217908.3000000715","4673","","","{""product_choice"":""C""}","choice","cdt","attraction_1","1","microwave ovens","null","null","null","null","null","null","1","60","50","60","50","60","45","Warranty","Cooking power","",""
"","","","","","choice_trial_setup","html-keyboard-response","122","2094863","0.0-5.0-0.19","29","1","2025-04-11 14:01:08","bb671e3ae32f654b8954ea4c4635f915","","Mozilla/5.0 (Windows NT 10.0; Win64; x64) AppleWebKit/537.36 (KHTML, like Gecko) Chrome/133.0.0.0 Safari/537.36","WebKit","Chrome","133.0.0.0","Windows","10.0","https://hz8g1ckzuq.cognition.run/","en-US,en;q=0.9","vvplyv3uy3nebdj","22","[""White""]","No","Male","2217908.3000000715","null","","<p></p>","null","choice","tdc","attraction_1","2","microwave ovens","null","null","null","null","null","null","2","","","","","","","","","",""
"","","","","","choice_trial","survey-html-form","123","2096111","0.0-5.0-1.19","29","1","2025-04-11 14:01:08","bb671e3ae32f654b8954ea4c4635f915","","Mozilla/5.0 (Windows NT 10.0; Win64; x64) AppleWebKit/537.36 (KHTML, like Gecko) Chrome/133.0.0.0 Safari/537.36","WebKit","Chrome","133.0.0.0","Windows","10.0","https://hz8g1ckzuq.cognition.run/","en-US,en;q=0.9","vvplyv3uy3nebdj","22","[""White""]","No","Male","2217908.3000000715","1232","","","{""product_choice"":""A""}","choice","tdc","attraction_1","2","microwave ovens","null","null","null","null","null","null","2","50","60","45","60","50","60","Warranty","Cooking power","",""
"","","","","","choice_trial_setup","html-keyboard-response","124","2096425","0.0-5.0-0.20","29","1","2025-04-11 14:01:08","bb671e3ae32f654b8954ea4c4635f915","","Mozilla/5.0 (Windows NT 10.0; Win64; x64) AppleWebKit/537.36 (KHTML, like Gecko) Chrome/133.0.0.0 Safari/537.36","WebKit","Chrome","133.0.0.0","Windows","10.0","https://hz8g1ckzuq.cognition.run/","en-US,en;q=0.9","vvplyv3uy3nebdj","22","[""White""]","No","Male","2217908.3000000715","null","","<p></p>","null","choice","dtc","attraction_1","2","laptops","null","null","null","null","null","null","2","","","","","","","","","",""
"","","","","","choice_trial","survey-html-form","125","2097964","0.0-5.0-1.20","29","1","2025-04-11 14:01:08","bb671e3ae32f654b8954ea4c4635f915","","Mozilla/5.0 (Windows NT 10.0; Win64; x64) AppleWebKit/537.36 (KHTML, like Gecko) Chrome/133.0.0.0 Safari/537.36","WebKit","Chrome","133.0.0.0","Windows","10.0","https://hz8g1ckzuq.cognition.run/","en-US,en;q=0.9","vvplyv3uy3nebdj","22","[""White""]","No","Male","2217908.3000000715","1524","","","{""product_choice"":""C""}","choice","dtc","attraction_1","2","laptops","null","null","null","null","null","null","2","50","60","45","60","50","60","Processing speed","Memory (RAM)","",""
"","","","","","choice_trial_setup","html-keyboard-response","126","2098283","0.0-5.0-0.21","29","1","2025-04-11 14:01:08","bb671e3ae32f654b8954ea4c4635f915","","Mozilla/5.0 (Windows NT 10.0; Win64; x64) AppleWebKit/537.36 (KHTML, like Gecko) Chrome/133.0.0.0 Safari/537.36","WebKit","Chrome","133.0.0.0","Windows","10.0","https://hz8g1ckzuq.cognition.run/","en-US,en;q=0.9","vvplyv3uy3nebdj","22","[""White""]","No","Male","2217908.3000000715","null","","<p></p>","null","choice","tdc","attraction_1","2","washing machines","null","null","null","null","null","null","2","","","","","","","","","",""
"","","","","","choice_trial","survey-html-form","127","2100168","0.0-5.0-1.21","29","1","2025-04-11 14:01:08","bb671e3ae32f654b8954ea4c4635f915","","Mozilla/5.0 (Windows NT 10.0; Win64; x64) AppleWebKit/537.36 (KHTML, like Gecko) Chrome/133.0.0.0 Safari/537.36","WebKit","Chrome","133.0.0.0","Windows","10.0","https://hz8g1ckzuq.cognition.run/","en-US,en;q=0.9","vvplyv3uy3nebdj","22","[""White""]","No","Male","2217908.3000000715","1870","","","{""product_choice"":""A""}","choice","tdc","attraction_1","2","washing machines","null","null","null","null","null","null","2","50","60","45","60","50","60","Average lifespan","Energy savings","",""
"","","","","","choice_trial_setup","html-keyboard-response","128","2100477","0.0-5.0-0.22","29","1","2025-04-11 14:01:08","bb671e3ae32f654b8954ea4c4635f915","","Mozilla/5.0 (Windows NT 10.0; Win64; x64) AppleWebKit/537.36 (KHTML, like Gecko) Chrome/133.0.0.0 Safari/537.36","WebKit","Chrome","133.0.0.0","Windows","10.0","https://hz8g1ckzuq.cognition.run/","en-US,en;q=0.9","vvplyv3uy3nebdj","22","[""White""]","No","Male","2217908.3000000715","null","","<p></p>","null","choice","wbw","catch","null","microwave ovens","65","70","30","10","30","35","1","","","","","","","","","",""
"","","","","","choice_trial","survey-html-form","129","2103337","0.0-5.0-1.22","29","1","2025-04-11 14:01:08","bb671e3ae32f654b8954ea4c4635f915","","Mozilla/5.0 (Windows NT 10.0; Win64; x64) AppleWebKit/537.36 (KHTML, like Gecko) Chrome/133.0.0.0 Safari/537.36","WebKit","Chrome","133.0.0.0","Windows","10.0","https://hz8g1ckzuq.cognition.run/","en-US,en;q=0.9","vvplyv3uy3nebdj","22","[""White""]","No","Male","2217908.3000000715","2851","","","{""product_choice"":""B""}","choice","wbw","catch","null","microwave ovens","65","70","30","10","30","35","1","null","null","null","null","null","null","Warranty","Cooking power","",""
"","","","","","choice_trial_setup","html-keyboard-response","130","2103652","0.0-5.0-0.23","29","1","2025-04-11 14:01:08","bb671e3ae32f654b8954ea4c4635f915","","Mozilla/5.0 (Windows NT 10.0; Win64; x64) AppleWebKit/537.36 (KHTML, like Gecko) Chrome/133.0.0.0 Safari/537.36","WebKit","Chrome","133.0.0.0","Windows","10.0","https://hz8g1ckzuq.cognition.run/","en-US,en;q=0.9","vvplyv3uy3nebdj","22","[""White""]","No","Male","2217908.3000000715","null","","<p></p>","null","choice","tdc","attraction_2","1","laptops","null","null","null","null","null","null","1","","","","","","","","","",""
"","","","","","choice_trial","survey-html-form","131","2107962","0.0-5.0-1.23","29","1","2025-04-11 14:01:08","bb671e3ae32f654b8954ea4c4635f915","","Mozilla/5.0 (Windows NT 10.0; Win64; x64) AppleWebKit/537.36 (KHTML, like Gecko) Chrome/133.0.0.0 Safari/537.36","WebKit","Chrome","133.0.0.0","Windows","10.0","https://hz8g1ckzuq.cognition.run/","en-US,en;q=0.9","vvplyv3uy3nebdj","22","[""White""]","No","Male","2217908.3000000715","4298","","","{""product_choice"":""C""}","choice","tdc","attraction_2","1","laptops","null","null","null","null","null","null","1","60","50","60","50","60","40","Processing speed","Memory (RAM)","",""
"","","","","","choice_trial_setup","html-keyboard-response","132","2108269","0.0-5.0-0.24","29","1","2025-04-11 14:01:08","bb671e3ae32f654b8954ea4c4635f915","","Mozilla/5.0 (Windows NT 10.0; Win64; x64) AppleWebKit/537.36 (KHTML, like Gecko) Chrome/133.0.0.0 Safari/537.36","WebKit","Chrome","133.0.0.0","Windows","10.0","https://hz8g1ckzuq.cognition.run/","en-US,en;q=0.9","vvplyv3uy3nebdj","22","[""White""]","No","Male","2217908.3000000715","null","","<p></p>","null","choice","wwb","catch","null","laptops","85","55","40","45","30","5","1","","","","","","","","","",""
"","","","","","choice_trial","survey-html-form","133","2110193","0.0-5.0-1.24","29","1","2025-04-11 14:01:08","bb671e3ae32f654b8954ea4c4635f915","","Mozilla/5.0 (Windows NT 10.0; Win64; x64) AppleWebKit/537.36 (KHTML, like Gecko) Chrome/133.0.0.0 Safari/537.36","WebKit","Chrome","133.0.0.0","Windows","10.0","https://hz8g1ckzuq.cognition.run/","en-US,en;q=0.9","vvplyv3uy3nebdj","22","[""White""]","No","Male","2217908.3000000715","1910","","","{""product_choice"":""C""}","choice","wwb","catch","null","laptops","85","55","40","45","30","5","1","null","null","null","null","null","null","Processing speed","Memory (RAM)","",""
"","","","","","choice_trial_setup","html-keyboard-response","134","2110503","0.0-5.0-0.25","29","1","2025-04-11 14:01:08","bb671e3ae32f654b8954ea4c4635f915","","Mozilla/5.0 (Windows NT 10.0; Win64; x64) AppleWebKit/537.36 (KHTML, like Gecko) Chrome/133.0.0.0 Safari/537.36","WebKit","Chrome","133.0.0.0","Windows","10.0","https://hz8g1ckzuq.cognition.run/","en-US,en;q=0.9","vvplyv3uy3nebdj","22","[""White""]","No","Male","2217908.3000000715","null","","<p></p>","null","choice","cdt","attraction_2","1","televisions","null","null","null","null","null","null","2","","","","","","","","","",""
"","","","","","choice_trial","survey-html-form","135","2112987","0.0-5.0-1.25","29","1","2025-04-11 14:01:08","bb671e3ae32f654b8954ea4c4635f915","","Mozilla/5.0 (Windows NT 10.0; Win64; x64) AppleWebKit/537.36 (KHTML, like Gecko) Chrome/133.0.0.0 Safari/537.36","WebKit","Chrome","133.0.0.0","Windows","10.0","https://hz8g1ckzuq.cognition.run/","en-US,en;q=0.9","vvplyv3uy3nebdj","22","[""White""]","No","Male","2217908.3000000715","2474","","","{""product_choice"":""A""}","choice","cdt","attraction_2","1","televisions","null","null","null","null","null","null","2","60","50","60","50","60","40","Screen size","Average lifespan","",""
"","","","","","choice_trial_setup","html-keyboard-response","136","2113298","0.0-5.0-0.26","29","1","2025-04-11 14:01:08","bb671e3ae32f654b8954ea4c4635f915","","Mozilla/5.0 (Windows NT 10.0; Win64; x64) AppleWebKit/537.36 (KHTML, like Gecko) Chrome/133.0.0.0 Safari/537.36","WebKit","Chrome","133.0.0.0","Windows","10.0","https://hz8g1ckzuq.cognition.run/","en-US,en;q=0.9","vvplyv3uy3nebdj","22","[""White""]","No","Male","2217908.3000000715","null","","<p></p>","null","choice","cdt","attraction_1","2","televisions","null","null","null","null","null","null","2","","","","","","","","","",""
"","","","","","choice_trial","survey-html-form","137","2115469","0.0-5.0-1.26","29","1","2025-04-11 14:01:08","bb671e3ae32f654b8954ea4c4635f915","","Mozilla/5.0 (Windows NT 10.0; Win64; x64) AppleWebKit/537.36 (KHTML, like Gecko) Chrome/133.0.0.0 Safari/537.36","WebKit","Chrome","133.0.0.0","Windows","10.0","https://hz8g1ckzuq.cognition.run/","en-US,en;q=0.9","vvplyv3uy3nebdj","22","[""White""]","No","Male","2217908.3000000715","2159","","","{""product_choice"":""C""}","choice","cdt","attraction_1","2","televisions","null","null","null","null","null","null","2","50","60","45","60","50","60","Screen size","Average lifespan","",""
"","","","","","choice_trial_setup","html-keyboard-response","138","2115775","0.0-5.0-0.27","29","1","2025-04-11 14:01:08","bb671e3ae32f654b8954ea4c4635f915","","Mozilla/5.0 (Windows NT 10.0; Win64; x64) AppleWebKit/537.36 (KHTML, like Gecko) Chrome/133.0.0.0 Safari/537.36","WebKit","Chrome","133.0.0.0","Windows","10.0","https://hz8g1ckzuq.cognition.run/","en-US,en;q=0.9","vvplyv3uy3nebdj","22","[""White""]","No","Male","2217908.3000000715","null","","<p></p>","null","choice","bww","catch","null","televisions","50","85","50","35","25","15","1","","","","","","","","","",""
"","","","","","choice_trial","survey-html-form","139","2121451","0.0-5.0-1.27","29","1","2025-04-11 14:01:08","bb671e3ae32f654b8954ea4c4635f915","","Mozilla/5.0 (Windows NT 10.0; Win64; x64) AppleWebKit/537.36 (KHTML, like Gecko) Chrome/133.0.0.0 Safari/537.36","WebKit","Chrome","133.0.0.0","Windows","10.0","https://hz8g1ckzuq.cognition.run/","en-US,en;q=0.9","vvplyv3uy3nebdj","22","[""White""]","No","Male","2217908.3000000715","5660","","","{""product_choice"":""A""}","choice","bww","catch","null","televisions","50","85","50","35","25","15","1","null","null","null","null","null","null","Screen size","Average lifespan","",""
"","","","","","choice_trial_setup","html-keyboard-response","140","2121770","0.0-5.0-0.28","29","1","2025-04-11 14:01:08","bb671e3ae32f654b8954ea4c4635f915","","Mozilla/5.0 (Windows NT 10.0; Win64; x64) AppleWebKit/537.36 (KHTML, like Gecko) Chrome/133.0.0.0 Safari/537.36","WebKit","Chrome","133.0.0.0","Windows","10.0","https://hz8g1ckzuq.cognition.run/","en-US,en;q=0.9","vvplyv3uy3nebdj","22","[""White""]","No","Male","2217908.3000000715","null","","<p></p>","null","choice","tcd","attraction_2","1","microwave ovens","null","null","null","null","null","null","2","","","","","","","","","",""
"","","","","","choice_trial","survey-html-form","141","2124459","0.0-5.0-1.28","29","1","2025-04-11 14:01:08","bb671e3ae32f654b8954ea4c4635f915","","Mozilla/5.0 (Windows NT 10.0; Win64; x64) AppleWebKit/537.36 (KHTML, like Gecko) Chrome/133.0.0.0 Safari/537.36","WebKit","Chrome","133.0.0.0","Windows","10.0","https://hz8g1ckzuq.cognition.run/","en-US,en;q=0.9","vvplyv3uy3nebdj","22","[""White""]","No","Male","2217908.3000000715","2679","","","{""product_choice"":""A""}","choice","tcd","attraction_2","1","microwave ovens","null","null","null","null","null","null","2","60","50","60","50","60","40","Warranty","Cooking power","",""
"","","","","","choice_trial_setup","html-keyboard-response","142","2124769","0.0-5.0-0.29","29","1","2025-04-11 14:01:08","bb671e3ae32f654b8954ea4c4635f915","","Mozilla/5.0 (Windows NT 10.0; Win64; x64) AppleWebKit/537.36 (KHTML, like Gecko) Chrome/133.0.0.0 Safari/537.36","WebKit","Chrome","133.0.0.0","Windows","10.0","https://hz8g1ckzuq.cognition.run/","en-US,en;q=0.9","vvplyv3uy3nebdj","22","[""White""]","No","Male","2217908.3000000715","null","","<p></p>","null","choice","cdt","attraction_1","1","laptops","null","null","null","null","null","null","2","","","","","","","","","",""
"","","","","","choice_trial","survey-html-form","143","2126419","0.0-5.0-1.29","29","1","2025-04-11 14:01:08","bb671e3ae32f654b8954ea4c4635f915","","Mozilla/5.0 (Windows NT 10.0; Win64; x64) AppleWebKit/537.36 (KHTML, like Gecko) Chrome/133.0.0.0 Safari/537.36","WebKit","Chrome","133.0.0.0","Windows","10.0","https://hz8g1ckzuq.cognition.run/","en-US,en;q=0.9","vvplyv3uy3nebdj","22","[""White""]","No","Male","2217908.3000000715","1637","","","{""product_choice"":""B""}","choice","cdt","attraction_1","1","laptops","null","null","null","null","null","null","2","60","50","60","50","60","45","Processing speed","Memory (RAM)","",""
"","","","","","choice_trial_setup","html-keyboard-response","144","2126731","0.0-5.0-0.30","29","1","2025-04-11 14:01:08","bb671e3ae32f654b8954ea4c4635f915","","Mozilla/5.0 (Windows NT 10.0; Win64; x64) AppleWebKit/537.36 (KHTML, like Gecko) Chrome/133.0.0.0 Safari/537.36","WebKit","Chrome","133.0.0.0","Windows","10.0","https://hz8g1ckzuq.cognition.run/","en-US,en;q=0.9","vvplyv3uy3nebdj","22","[""White""]","No","Male","2217908.3000000715","null","","<p></p>","null","choice","cdt","repulsion_2","2","televisions","null","null","null","null","null","null","2","","","","","","","","","",""
"","","","","","choice_trial","survey-html-form","145","2127969","0.0-5.0-1.30","29","1","2025-04-11 14:01:08","bb671e3ae32f654b8954ea4c4635f915","","Mozilla/5.0 (Windows NT 10.0; Win64; x64) AppleWebKit/537.36 (KHTML, like Gecko) Chrome/133.0.0.0 Safari/537.36","WebKit","Chrome","133.0.0.0","Windows","10.0","https://hz8g1ckzuq.cognition.run/","en-US,en;q=0.9","vvplyv3uy3nebdj","22","[""White""]","No","Male","2217908.3000000715","1229","","","{""product_choice"":""C""}","choice","cdt","repulsion_2","2","televisions","null","null","null","null","null","null","2","30","40","20","100","90","100","Screen size","Average lifespan","",""
"","","","","","choice_trial_setup","html-keyboard-response","146","2128275","0.0-5.0-0.31","29","1","2025-04-11 14:01:08","bb671e3ae32f654b8954ea4c4635f915","","Mozilla/5.0 (Windows NT 10.0; Win64; x64) AppleWebKit/537.36 (KHTML, like Gecko) Chrome/133.0.0.0 Safari/537.36","WebKit","Chrome","133.0.0.0","Windows","10.0","https://hz8g1ckzuq.cognition.run/","en-US,en;q=0.9","vvplyv3uy3nebdj","22","[""White""]","No","Male","2217908.3000000715","null","","<p></p>","null","choice","tdc","repulsion_2","2","microwave ovens","null","null","null","null","null","null","1","","","","","","","","","",""
"","","","","","choice_trial","survey-html-form","147","2130768","0.0-5.0-1.31","29","1","2025-04-11 14:01:08","bb671e3ae32f654b8954ea4c4635f915","","Mozilla/5.0 (Windows NT 10.0; Win64; x64) AppleWebKit/537.36 (KHTML, like Gecko) Chrome/133.0.0.0 Safari/537.36","WebKit","Chrome","133.0.0.0","Windows","10.0","https://hz8g1ckzuq.cognition.run/","en-US,en;q=0.9","vvplyv3uy3nebdj","22","[""White""]","No","Male","2217908.3000000715","2480","","","{""product_choice"":""C""}","choice","tdc","repulsion_2","2","microwave ovens","null","null","null","null","null","null","1","30","40","20","100","90","100","Warranty","Cooking power","",""
"","","","","","choice_trial_setup","html-keyboard-response","148","2131077","0.0-5.0-0.32","29","1","2025-04-11 14:01:08","bb671e3ae32f654b8954ea4c4635f915","","Mozilla/5.0 (Windows NT 10.0; Win64; x64) AppleWebKit/537.36 (KHTML, like Gecko) Chrome/133.0.0.0 Safari/537.36","WebKit","Chrome","133.0.0.0","Windows","10.0","https://hz8g1ckzuq.cognition.run/","en-US,en;q=0.9","vvplyv3uy3nebdj","22","[""White""]","No","Male","2217908.3000000715","null","","<p></p>","null","choice","wwb","catch","null","washing machines","50","90","15","15","20","20","1","","","","","","","","","",""
"","","","","","choice_trial","survey-html-form","149","2135320","0.0-5.0-1.32","29","1","2025-04-11 14:01:08","bb671e3ae32f654b8954ea4c4635f915","","Mozilla/5.0 (Windows NT 10.0; Win64; x64) AppleWebKit/537.36 (KHTML, like Gecko) Chrome/133.0.0.0 Safari/537.36","WebKit","Chrome","133.0.0.0","Windows","10.0","https://hz8g1ckzuq.cognition.run/","en-US,en;q=0.9","vvplyv3uy3nebdj","22","[""White""]","No","Male","2217908.3000000715","4228","","","{""product_choice"":""C""}","choice","wwb","catch","null","washing machines","50","90","15","15","20","20","1","null","null","null","null","null","null","Average lifespan","Energy savings","",""
"","","","","","choice_trial_setup","html-keyboard-response","150","2135631","0.0-5.0-0.33","29","1","2025-04-11 14:01:08","bb671e3ae32f654b8954ea4c4635f915","","Mozilla/5.0 (Windows NT 10.0; Win64; x64) AppleWebKit/537.36 (KHTML, like Gecko) Chrome/133.0.0.0 Safari/537.36","WebKit","Chrome","133.0.0.0","Windows","10.0","https://hz8g1ckzuq.cognition.run/","en-US,en;q=0.9","vvplyv3uy3nebdj","22","[""White""]","No","Male","2217908.3000000715","null","","<p></p>","null","choice","dtc","attraction_1","1","televisions","null","null","null","null","null","null","1","","","","","","","","","",""
"","","","","","choice_trial","survey-html-form","151","2139057","0.0-5.0-1.33","29","1","2025-04-11 14:01:08","bb671e3ae32f654b8954ea4c4635f915","","Mozilla/5.0 (Windows NT 10.0; Win64; x64) AppleWebKit/537.36 (KHTML, like Gecko) Chrome/133.0.0.0 Safari/537.36","WebKit","Chrome","133.0.0.0","Windows","10.0","https://hz8g1ckzuq.cognition.run/","en-US,en;q=0.9","vvplyv3uy3nebdj","22","[""White""]","No","Male","2217908.3000000715","3417","","","{""product_choice"":""A""}","choice","dtc","attraction_1","1","televisions","null","null","null","null","null","null","1","60","50","60","50","60","45","Screen size","Average lifespan","",""
"","","","","","choice_trial_setup","html-keyboard-response","152","2139367","0.0-5.0-0.34","29","1","2025-04-11 14:01:08","bb671e3ae32f654b8954ea4c4635f915","","Mozilla/5.0 (Windows NT 10.0; Win64; x64) AppleWebKit/537.36 (KHTML, like Gecko) Chrome/133.0.0.0 Safari/537.36","WebKit","Chrome","133.0.0.0","Windows","10.0","https://hz8g1ckzuq.cognition.run/","en-US,en;q=0.9","vvplyv3uy3nebdj","22","[""White""]","No","Male","2217908.3000000715","null","","<p></p>","null","choice","cdt","attraction_2","2","televisions","null","null","null","null","null","null","1","","","","","","","","","",""
"","","","","","choice_trial","survey-html-form","153","2141312","0.0-5.0-1.34","29","1","2025-04-11 14:01:08","bb671e3ae32f654b8954ea4c4635f915","","Mozilla/5.0 (Windows NT 10.0; Win64; x64) AppleWebKit/537.36 (KHTML, like Gecko) Chrome/133.0.0.0 Safari/537.36","WebKit","Chrome","133.0.0.0","Windows","10.0","https://hz8g1ckzuq.cognition.run/","en-US,en;q=0.9","vvplyv3uy3nebdj","22","[""White""]","No","Male","2217908.3000000715","1937","","","{""product_choice"":""B""}","choice","cdt","attraction_2","2","televisions","null","null","null","null","null","null","1","50","60","40","60","50","60","Screen size","Average lifespan","",""
"","","","","","choice_trial_setup","html-keyboard-response","154","2141624","0.0-5.0-0.35","29","1","2025-04-11 14:01:08","bb671e3ae32f654b8954ea4c4635f915","","Mozilla/5.0 (Windows NT 10.0; Win64; x64) AppleWebKit/537.36 (KHTML, like Gecko) Chrome/133.0.0.0 Safari/537.36","WebKit","Chrome","133.0.0.0","Windows","10.0","https://hz8g1ckzuq.cognition.run/","en-US,en;q=0.9","vvplyv3uy3nebdj","22","[""White""]","No","Male","2217908.3000000715","null","","<p></p>","null","choice","dct","repulsion_2","1","televisions","null","null","null","null","null","null","1","","","","","","","","","",""
"","","","","","choice_trial","survey-html-form","155","2143664","0.0-5.0-1.35","29","1","2025-04-11 14:01:08","bb671e3ae32f654b8954ea4c4635f915","","Mozilla/5.0 (Windows NT 10.0; Win64; x64) AppleWebKit/537.36 (KHTML, like Gecko) Chrome/133.0.0.0 Safari/537.36","WebKit","Chrome","133.0.0.0","Windows","10.0","https://hz8g1ckzuq.cognition.run/","en-US,en;q=0.9","vvplyv3uy3nebdj","22","[""White""]","No","Male","2217908.3000000715","2023","","","{""product_choice"":""C""}","choice","dct","repulsion_2","1","televisions","null","null","null","null","null","null","1","100","90","100","30","40","20","Screen size","Average lifespan","",""
"","","","","","choice_trial_setup","html-keyboard-response","156","2143981","0.0-5.0-0.36","29","1","2025-04-11 14:01:08","bb671e3ae32f654b8954ea4c4635f915","","Mozilla/5.0 (Windows NT 10.0; Win64; x64) AppleWebKit/537.36 (KHTML, like Gecko) Chrome/133.0.0.0 Safari/537.36","WebKit","Chrome","133.0.0.0","Windows","10.0","https://hz8g1ckzuq.cognition.run/","en-US,en;q=0.9","vvplyv3uy3nebdj","22","[""White""]","No","Male","2217908.3000000715","null","","<p></p>","null","choice","tdc","repulsion_1","1","televisions","null","null","null","null","null","null","1","","","","","","","","","",""
"","","","","","choice_trial","survey-html-form","157","2147859","0.0-5.0-1.36","29","1","2025-04-11 14:01:08","bb671e3ae32f654b8954ea4c4635f915","","Mozilla/5.0 (Windows NT 10.0; Win64; x64) AppleWebKit/537.36 (KHTML, like Gecko) Chrome/133.0.0.0 Safari/537.36","WebKit","Chrome","133.0.0.0","Windows","10.0","https://hz8g1ckzuq.cognition.run/","en-US,en;q=0.9","vvplyv3uy3nebdj","22","[""White""]","No","Male","2217908.3000000715","3862","","","{""product_choice"":""C""}","choice","tdc","repulsion_1","1","televisions","null","null","null","null","null","null","1","100","90","100","30","40","25","Screen size","Average lifespan","",""
