"success","timeout","failed_images","failed_audio","failed_video","screen_id","trial_type","trial_index","time_elapsed","internal_node_id","run_id","condition","recorded_at","source_code_version","ip","user_agent","device","browser","browser_version","platform","platform_version","referer","accept_language","ppt_id","final_score","age","race","ethnicity","gender","exp_duration","rt","view_history","stimulus","response","phase","order","effect","t_high","category","d1_best","d2_best","d1_worst1","d2_worst1","d1_worst2","d2_worst2","first_dim","d1_t","d1_c","d1_d","d2_t","d2_c","d2_d","d1_name","d2_name","strategy_response","trialType","question_order"
"true","false","[]","[]","[]","img preload","preload","0","7929","0.0-0.0","3","1","2025-04-10 18:09:54","7bd189e8e4882776c700e1dae255cdf5","","Mozilla/5.0 (Windows NT 10.0; Win64; x64) AppleWebKit/537.36 (KHTML, like Gecko) Chrome/134.0.0.0 Safari/537.36","WebKit","Chrome","134.0.0.0","Windows","10.0","https://hz8g1ckzuq.cognition.run/","en-US,en;q=0.9","m97fuw721meks3f","","52","[""White""]","No","Male","1257514.2999999523","","","","","","","","","","","","","","","","","","","","","","","","","","",""
"true","","","","","","fullscreen","1","13367","0.0-1.0","3","1","2025-04-10 18:09:54","7bd189e8e4882776c700e1dae255cdf5","","Mozilla/5.0 (Windows NT 10.0; Win64; x64) AppleWebKit/537.36 (KHTML, like Gecko) Chrome/134.0.0.0 Safari/537.36","WebKit","Chrome","134.0.0.0","Windows","10.0","https://hz8g1ckzuq.cognition.run/","en-US,en;q=0.9","m97fuw721meks3f","","52","[""White""]","No","Male","1257514.2999999523","4430","","","","","","","","","","","","","","","","","","","","","","","","","",""
"","","","","","","instructions","2","60179","0.0-2.0","3","1","2025-04-10 18:09:54","7bd189e8e4882776c700e1dae255cdf5","","Mozilla/5.0 (Windows NT 10.0; Win64; x64) AppleWebKit/537.36 (KHTML, like Gecko) Chrome/134.0.0.0 Safari/537.36","WebKit","Chrome","134.0.0.0","Windows","10.0","https://hz8g1ckzuq.cognition.run/","en-US,en;q=0.9","m97fuw721meks3f","","52","[""White""]","No","Male","1257514.2999999523","46810","[{""page_index"":0,""viewing_time"":3161},{""page_index"":1,""viewing_time"":3093},{""page_index"":2,""viewing_time"":3228},{""page_index"":3,""viewing_time"":3584},{""page_index"":4,""viewing_time"":5631},{""page_index"":5,""viewing_time"":1102},{""page_index"":6,""viewing_time"":4009},{""page_index"":7,""viewing_time"":3409},{""page_index"":8,""viewing_time"":14045},{""page_index"":9,""viewing_time"":5546}]","","","","","","","","","","","","","","","","","","","","","","","","",""
"","","","","","rating_trial_setup","html-keyboard-response","3","60485","0.0-3.0-0.0","3","1","2025-04-10 18:09:54","7bd189e8e4882776c700e1dae255cdf5","","Mozilla/5.0 (Windows NT 10.0; Win64; x64) AppleWebKit/537.36 (KHTML, like Gecko) Chrome/134.0.0.0 Safari/537.36","WebKit","Chrome","134.0.0.0","Windows","10.0","https://hz8g1ckzuq.cognition.run/","en-US,en;q=0.9","m97fuw721meks3f","","52","[""White""]","No","Male","1257514.2999999523","null","","<p></p>","null","rating","ctd","repulsion_1","1","washing machines","null","null","null","null","null","null","1","","","","","","","","","","",""
"","","","","","rating_trial","survey-html-form","4","92091","0.0-3.0-1.0","3","1","2025-04-10 18:09:54","7bd189e8e4882776c700e1dae255cdf5","","Mozilla/5.0 (Windows NT 10.0; Win64; x64) AppleWebKit/537.36 (KHTML, like Gecko) Chrome/134.0.0.0 Safari/537.36","WebKit","Chrome","134.0.0.0","Windows","10.0","https://hz8g1ckzuq.cognition.run/","en-US,en;q=0.9","m97fuw721meks3f","","52","[""White""]","No","Male","1257514.2999999523","31599","","","{""price_1"":""500"",""price_2"":""600"",""price_3"":""550""}","rating","ctd","repulsion_1","1","washing machines","null","null","null","null","null","null","1","100","90","100","30","40","25","Average lifespan","Energy savings","","",""
"","","","","","rating_trial_setup","html-keyboard-response","5","92396","0.0-3.0-0.1","3","1","2025-04-10 18:09:54","7bd189e8e4882776c700e1dae255cdf5","","Mozilla/5.0 (Windows NT 10.0; Win64; x64) AppleWebKit/537.36 (KHTML, like Gecko) Chrome/134.0.0.0 Safari/537.36","WebKit","Chrome","134.0.0.0","Windows","10.0","https://hz8g1ckzuq.cognition.run/","en-US,en;q=0.9","m97fuw721meks3f","","52","[""White""]","No","Male","1257514.2999999523","null","","<p></p>","null","rating","dct","attraction_2","2","washing machines","null","null","null","null","null","null","1","","","","","","","","","","",""
"","","","","","rating_trial","survey-html-form","6","106343","0.0-3.0-1.1","3","1","2025-04-10 18:09:54","7bd189e8e4882776c700e1dae255cdf5","","Mozilla/5.0 (Windows NT 10.0; Win64; x64) AppleWebKit/537.36 (KHTML, like Gecko) Chrome/134.0.0.0 Safari/537.36","WebKit","Chrome","134.0.0.0","Windows","10.0","https://hz8g1ckzuq.cognition.run/","en-US,en;q=0.9","m97fuw721meks3f","","52","[""White""]","No","Male","1257514.2999999523","13943","","","{""price_1"":""400"",""price_2"":""500"",""price_3"":""500""}","rating","dct","attraction_2","2","washing machines","null","null","null","null","null","null","1","50","60","40","60","50","60","Average lifespan","Energy savings","","",""
"","","","","","rating_trial_setup","html-keyboard-response","7","106647","0.0-3.0-0.2","3","1","2025-04-10 18:09:54","7bd189e8e4882776c700e1dae255cdf5","","Mozilla/5.0 (Windows NT 10.0; Win64; x64) AppleWebKit/537.36 (KHTML, like Gecko) Chrome/134.0.0.0 Safari/537.36","WebKit","Chrome","134.0.0.0","Windows","10.0","https://hz8g1ckzuq.cognition.run/","en-US,en;q=0.9","m97fuw721meks3f","","52","[""White""]","No","Male","1257514.2999999523","null","","<p></p>","null","rating","tdc","attraction_1","1","laptops","null","null","null","null","null","null","2","","","","","","","","","","",""
"","","","","","rating_trial","survey-html-form","8","132829","0.0-3.0-1.2","3","1","2025-04-10 18:09:54","7bd189e8e4882776c700e1dae255cdf5","","Mozilla/5.0 (Windows NT 10.0; Win64; x64) AppleWebKit/537.36 (KHTML, like Gecko) Chrome/134.0.0.0 Safari/537.36","WebKit","Chrome","134.0.0.0","Windows","10.0","https://hz8g1ckzuq.cognition.run/","en-US,en;q=0.9","m97fuw721meks3f","","52","[""White""]","No","Male","1257514.2999999523","26178","","","{""price_1"":""1000"",""price_2"":""800"",""price_3"":""1000""}","rating","tdc","attraction_1","1","laptops","null","null","null","null","null","null","2","60","50","60","50","60","45","Processing speed","Memory (RAM)","","",""
"","","","","","rating_trial_setup","html-keyboard-response","9","133131","0.0-3.0-0.3","3","1","2025-04-10 18:09:54","7bd189e8e4882776c700e1dae255cdf5","","Mozilla/5.0 (Windows NT 10.0; Win64; x64) AppleWebKit/537.36 (KHTML, like Gecko) Chrome/134.0.0.0 Safari/537.36","WebKit","Chrome","134.0.0.0","Windows","10.0","https://hz8g1ckzuq.cognition.run/","en-US,en;q=0.9","m97fuw721meks3f","","52","[""White""]","No","Male","1257514.2999999523","null","","<p></p>","null","rating","cdt","repulsion_2","2","washing machines","null","null","null","null","null","null","2","","","","","","","","","","",""
"","","","","","rating_trial","survey-html-form","10","148892","0.0-3.0-1.3","3","1","2025-04-10 18:09:54","7bd189e8e4882776c700e1dae255cdf5","","Mozilla/5.0 (Windows NT 10.0; Win64; x64) AppleWebKit/537.36 (KHTML, like Gecko) Chrome/134.0.0.0 Safari/537.36","WebKit","Chrome","134.0.0.0","Windows","10.0","https://hz8g1ckzuq.cognition.run/","en-US,en;q=0.9","m97fuw721meks3f","","52","[""White""]","No","Male","1257514.2999999523","15756","","","{""price_1"":""750"",""price_2"":""700"",""price_3"":""800""}","rating","cdt","repulsion_2","2","washing machines","null","null","null","null","null","null","2","30","40","20","100","90","100","Average lifespan","Energy savings","","",""
"","","","","","rating_trial_setup","html-keyboard-response","11","149197","0.0-3.0-0.4","3","1","2025-04-10 18:09:54","7bd189e8e4882776c700e1dae255cdf5","","Mozilla/5.0 (Windows NT 10.0; Win64; x64) AppleWebKit/537.36 (KHTML, like Gecko) Chrome/134.0.0.0 Safari/537.36","WebKit","Chrome","134.0.0.0","Windows","10.0","https://hz8g1ckzuq.cognition.run/","en-US,en;q=0.9","m97fuw721meks3f","","52","[""White""]","No","Male","1257514.2999999523","null","","<p></p>","null","rating","wwb","catch","null","laptops","95","65","15","30","45","25","1","","","","","","","","","","",""
"","","","","","rating_trial","survey-html-form","12","221209","0.0-3.0-1.4","3","1","2025-04-10 18:09:54","7bd189e8e4882776c700e1dae255cdf5","","Mozilla/5.0 (Windows NT 10.0; Win64; x64) AppleWebKit/537.36 (KHTML, like Gecko) Chrome/134.0.0.0 Safari/537.36","WebKit","Chrome","134.0.0.0","Windows","10.0","https://hz8g1ckzuq.cognition.run/","en-US,en;q=0.9","m97fuw721meks3f","","52","[""White""]","No","Male","1257514.2999999523","72008","","","{""price_1"":""700"",""price_2"":""900"",""price_3"":""1200""}","rating","wwb","catch","null","laptops","95","65","15","30","45","25","1","null","null","null","null","null","null","Processing speed","Memory (RAM)","","",""
"","","","","","rating_trial_setup","html-keyboard-response","13","221515","0.0-3.0-0.5","3","1","2025-04-10 18:09:54","7bd189e8e4882776c700e1dae255cdf5","","Mozilla/5.0 (Windows NT 10.0; Win64; x64) AppleWebKit/537.36 (KHTML, like Gecko) Chrome/134.0.0.0 Safari/537.36","WebKit","Chrome","134.0.0.0","Windows","10.0","https://hz8g1ckzuq.cognition.run/","en-US,en;q=0.9","m97fuw721meks3f","","52","[""White""]","No","Male","1257514.2999999523","null","","<p></p>","null","rating","cdt","repulsion_1","1","televisions","null","null","null","null","null","null","1","","","","","","","","","","",""
"","","","","","rating_trial","survey-html-form","14","235784","0.0-3.0-1.5","3","1","2025-04-10 18:09:54","7bd189e8e4882776c700e1dae255cdf5","","Mozilla/5.0 (Windows NT 10.0; Win64; x64) AppleWebKit/537.36 (KHTML, like Gecko) Chrome/134.0.0.0 Safari/537.36","WebKit","Chrome","134.0.0.0","Windows","10.0","https://hz8g1ckzuq.cognition.run/","en-US,en;q=0.9","m97fuw721meks3f","","52","[""White""]","No","Male","1257514.2999999523","14265","","","{""price_1"":""500"",""price_2"":""600"",""price_3"":""650""}","rating","cdt","repulsion_1","1","televisions","null","null","null","null","null","null","1","100","90","100","30","40","25","Screen size","Average lifespan","","",""
"","","","","","rating_trial_setup","html-keyboard-response","15","236088","0.0-3.0-0.6","3","1","2025-04-10 18:09:54","7bd189e8e4882776c700e1dae255cdf5","","Mozilla/5.0 (Windows NT 10.0; Win64; x64) AppleWebKit/537.36 (KHTML, like Gecko) Chrome/134.0.0.0 Safari/537.36","WebKit","Chrome","134.0.0.0","Windows","10.0","https://hz8g1ckzuq.cognition.run/","en-US,en;q=0.9","m97fuw721meks3f","","52","[""White""]","No","Male","1257514.2999999523","null","","<p></p>","null","rating","tcd","repulsion_2","2","laptops","null","null","null","null","null","null","2","","","","","","","","","","",""
"","","","","","rating_trial","survey-html-form","16","268611","0.0-3.0-1.6","3","1","2025-04-10 18:09:54","7bd189e8e4882776c700e1dae255cdf5","","Mozilla/5.0 (Windows NT 10.0; Win64; x64) AppleWebKit/537.36 (KHTML, like Gecko) Chrome/134.0.0.0 Safari/537.36","WebKit","Chrome","134.0.0.0","Windows","10.0","https://hz8g1ckzuq.cognition.run/","en-US,en;q=0.9","m97fuw721meks3f","","52","[""White""]","No","Male","1257514.2999999523","32519","","","{""price_1"":""600"",""price_2"":""500"",""price_3"":""500""}","rating","tcd","repulsion_2","2","laptops","null","null","null","null","null","null","2","30","40","20","100","90","100","Processing speed","Memory (RAM)","","",""
"","","","","","rating_trial_setup","html-keyboard-response","17","268916","0.0-3.0-0.7","3","1","2025-04-10 18:09:54","7bd189e8e4882776c700e1dae255cdf5","","Mozilla/5.0 (Windows NT 10.0; Win64; x64) AppleWebKit/537.36 (KHTML, like Gecko) Chrome/134.0.0.0 Safari/537.36","WebKit","Chrome","134.0.0.0","Windows","10.0","https://hz8g1ckzuq.cognition.run/","en-US,en;q=0.9","m97fuw721meks3f","","52","[""White""]","No","Male","1257514.2999999523","null","","<p></p>","null","rating","tdc","repulsion_2","2","televisions","null","null","null","null","null","null","1","","","","","","","","","","",""
"","","","","","rating_trial","survey-html-form","18","327815","0.0-3.0-1.7","3","1","2025-04-10 18:09:54","7bd189e8e4882776c700e1dae255cdf5","","Mozilla/5.0 (Windows NT 10.0; Win64; x64) AppleWebKit/537.36 (KHTML, like Gecko) Chrome/134.0.0.0 Safari/537.36","WebKit","Chrome","134.0.0.0","Windows","10.0","https://hz8g1ckzuq.cognition.run/","en-US,en;q=0.9","m97fuw721meks3f","","52","[""White""]","No","Male","1257514.2999999523","58894","","","{""price_1"":""1000"",""price_2"":""900"",""price_3"":""900""}","rating","tdc","repulsion_2","2","televisions","null","null","null","null","null","null","1","30","40","20","100","90","100","Screen size","Average lifespan","","",""
"","","","","","rating_trial_setup","html-keyboard-response","19","328120","0.0-3.0-0.8","3","1","2025-04-10 18:09:54","7bd189e8e4882776c700e1dae255cdf5","","Mozilla/5.0 (Windows NT 10.0; Win64; x64) AppleWebKit/537.36 (KHTML, like Gecko) Chrome/134.0.0.0 Safari/537.36","WebKit","Chrome","134.0.0.0","Windows","10.0","https://hz8g1ckzuq.cognition.run/","en-US,en;q=0.9","m97fuw721meks3f","","52","[""White""]","No","Male","1257514.2999999523","null","","<p></p>","null","rating","wwb","catch","null","televisions","65","55","10","10","45","50","2","","","","","","","","","","",""
"","","","","","rating_trial","survey-html-form","20","427091","0.0-3.0-1.8","3","1","2025-04-10 18:09:54","7bd189e8e4882776c700e1dae255cdf5","","Mozilla/5.0 (Windows NT 10.0; Win64; x64) AppleWebKit/537.36 (KHTML, like Gecko) Chrome/134.0.0.0 Safari/537.36","WebKit","Chrome","134.0.0.0","Windows","10.0","https://hz8g1ckzuq.cognition.run/","en-US,en;q=0.9","m97fuw721meks3f","","52","[""White""]","No","Male","1257514.2999999523","98966","","","{""price_1"":""400"",""price_2"":""700"",""price_3"":""900""}","rating","wwb","catch","null","televisions","65","55","10","10","45","50","2","null","null","null","null","null","null","Screen size","Average lifespan","","",""
"","","","","","rating_trial_setup","html-keyboard-response","21","427395","0.0-3.0-0.9","3","1","2025-04-10 18:09:54","7bd189e8e4882776c700e1dae255cdf5","","Mozilla/5.0 (Windows NT 10.0; Win64; x64) AppleWebKit/537.36 (KHTML, like Gecko) Chrome/134.0.0.0 Safari/537.36","WebKit","Chrome","134.0.0.0","Windows","10.0","https://hz8g1ckzuq.cognition.run/","en-US,en;q=0.9","m97fuw721meks3f","","52","[""White""]","No","Male","1257514.2999999523","null","","<p></p>","null","rating","wbw","catch","null","televisions","50","65","50","25","40","25","2","","","","","","","","","","",""
"","","","","","rating_trial","survey-html-form","22","471515","0.0-3.0-1.9","3","1","2025-04-10 18:09:54","7bd189e8e4882776c700e1dae255cdf5","","Mozilla/5.0 (Windows NT 10.0; Win64; x64) AppleWebKit/537.36 (KHTML, like Gecko) Chrome/134.0.0.0 Safari/537.36","WebKit","Chrome","134.0.0.0","Windows","10.0","https://hz8g1ckzuq.cognition.run/","en-US,en;q=0.9","m97fuw721meks3f","","52","[""White""]","No","Male","1257514.2999999523","44114","","","{""price_1"":""500"",""price_2"":""600"",""price_3"":""700""}","rating","wbw","catch","null","televisions","50","65","50","25","40","25","2","null","null","null","null","null","null","Screen size","Average lifespan","","",""
"","","","","","rating_trial_setup","html-keyboard-response","23","471820","0.0-3.0-0.10","3","1","2025-04-10 18:09:54","7bd189e8e4882776c700e1dae255cdf5","","Mozilla/5.0 (Windows NT 10.0; Win64; x64) AppleWebKit/537.36 (KHTML, like Gecko) Chrome/134.0.0.0 Safari/537.36","WebKit","Chrome","134.0.0.0","Windows","10.0","https://hz8g1ckzuq.cognition.run/","en-US,en;q=0.9","m97fuw721meks3f","","52","[""White""]","No","Male","1257514.2999999523","null","","<p></p>","null","rating","tcd","repulsion_1","2","televisions","null","null","null","null","null","null","1","","","","","","","","","","",""
"","","","","","rating_trial","survey-html-form","24","480302","0.0-3.0-1.10","3","1","2025-04-10 18:09:54","7bd189e8e4882776c700e1dae255cdf5","","Mozilla/5.0 (Windows NT 10.0; Win64; x64) AppleWebKit/537.36 (KHTML, like Gecko) Chrome/134.0.0.0 Safari/537.36","WebKit","Chrome","134.0.0.0","Windows","10.0","https://hz8g1ckzuq.cognition.run/","en-US,en;q=0.9","m97fuw721meks3f","","52","[""White""]","No","Male","1257514.2999999523","8476","","","{""price_1"":""700"",""price_2"":""650"",""price_3"":""600""}","rating","tcd","repulsion_1","2","televisions","null","null","null","null","null","null","1","30","40","25","100","90","100","Screen size","Average lifespan","","",""
"","","","","","rating_trial_setup","html-keyboard-response","25","480607","0.0-3.0-0.11","3","1","2025-04-10 18:09:54","7bd189e8e4882776c700e1dae255cdf5","","Mozilla/5.0 (Windows NT 10.0; Win64; x64) AppleWebKit/537.36 (KHTML, like Gecko) Chrome/134.0.0.0 Safari/537.36","WebKit","Chrome","134.0.0.0","Windows","10.0","https://hz8g1ckzuq.cognition.run/","en-US,en;q=0.9","m97fuw721meks3f","","52","[""White""]","No","Male","1257514.2999999523","null","","<p></p>","null","rating","bww","catch","null","microwave ovens","50","65","35","50","40","40","1","","","","","","","","","","",""
"","","","","","rating_trial","survey-html-form","26","488834","0.0-3.0-1.11","3","1","2025-04-10 18:09:54","7bd189e8e4882776c700e1dae255cdf5","","Mozilla/5.0 (Windows NT 10.0; Win64; x64) AppleWebKit/537.36 (KHTML, like Gecko) Chrome/134.0.0.0 Safari/537.36","WebKit","Chrome","134.0.0.0","Windows","10.0","https://hz8g1ckzuq.cognition.run/","en-US,en;q=0.9","m97fuw721meks3f","","52","[""White""]","No","Male","1257514.2999999523","8221","","","{""price_1"":""600"",""price_2"":""700"",""price_3"":""400""}","rating","bww","catch","null","microwave ovens","50","65","35","50","40","40","1","null","null","null","null","null","null","Warranty","Cooking power","","",""
"","","","","","rating_trial_setup","html-keyboard-response","27","489139","0.0-3.0-0.12","3","1","2025-04-10 18:09:54","7bd189e8e4882776c700e1dae255cdf5","","Mozilla/5.0 (Windows NT 10.0; Win64; x64) AppleWebKit/537.36 (KHTML, like Gecko) Chrome/134.0.0.0 Safari/537.36","WebKit","Chrome","134.0.0.0","Windows","10.0","https://hz8g1ckzuq.cognition.run/","en-US,en;q=0.9","m97fuw721meks3f","","52","[""White""]","No","Male","1257514.2999999523","null","","<p></p>","null","rating","wbw","catch","null","laptops","55","70","50","15","20","35","2","","","","","","","","","","",""
"","","","","","rating_trial","survey-html-form","28","500304","0.0-3.0-1.12","3","1","2025-04-10 18:09:54","7bd189e8e4882776c700e1dae255cdf5","","Mozilla/5.0 (Windows NT 10.0; Win64; x64) AppleWebKit/537.36 (KHTML, like Gecko) Chrome/134.0.0.0 Safari/537.36","WebKit","Chrome","134.0.0.0","Windows","10.0","https://hz8g1ckzuq.cognition.run/","en-US,en;q=0.9","m97fuw721meks3f","","52","[""White""]","No","Male","1257514.2999999523","11160","","","{""price_1"":""400"",""price_2"":""700"",""price_3"":""400""}","rating","wbw","catch","null","laptops","55","70","50","15","20","35","2","null","null","null","null","null","null","Processing speed","Memory (RAM)","","",""
"","","","","","rating_trial_setup","html-keyboard-response","29","500607","0.0-3.0-0.13","3","1","2025-04-10 18:09:54","7bd189e8e4882776c700e1dae255cdf5","","Mozilla/5.0 (Windows NT 10.0; Win64; x64) AppleWebKit/537.36 (KHTML, like Gecko) Chrome/134.0.0.0 Safari/537.36","WebKit","Chrome","134.0.0.0","Windows","10.0","https://hz8g1ckzuq.cognition.run/","en-US,en;q=0.9","m97fuw721meks3f","","52","[""White""]","No","Male","1257514.2999999523","null","","<p></p>","null","rating","tdc","attraction_1","2","laptops","null","null","null","null","null","null","2","","","","","","","","","","",""
"","","","","","rating_trial","survey-html-form","30","511135","0.0-3.0-1.13","3","1","2025-04-10 18:09:54","7bd189e8e4882776c700e1dae255cdf5","","Mozilla/5.0 (Windows NT 10.0; Win64; x64) AppleWebKit/537.36 (KHTML, like Gecko) Chrome/134.0.0.0 Safari/537.36","WebKit","Chrome","134.0.0.0","Windows","10.0","https://hz8g1ckzuq.cognition.run/","en-US,en;q=0.9","m97fuw721meks3f","","52","[""White""]","No","Male","1257514.2999999523","10524","","","{""price_1"":""700"",""price_2"":""500"",""price_3"":""500""}","rating","tdc","attraction_1","2","laptops","null","null","null","null","null","null","2","50","60","45","60","50","60","Processing speed","Memory (RAM)","","",""
"","","","","","rating_trial_setup","html-keyboard-response","31","511441","0.0-3.0-0.14","3","1","2025-04-10 18:09:54","7bd189e8e4882776c700e1dae255cdf5","","Mozilla/5.0 (Windows NT 10.0; Win64; x64) AppleWebKit/537.36 (KHTML, like Gecko) Chrome/134.0.0.0 Safari/537.36","WebKit","Chrome","134.0.0.0","Windows","10.0","https://hz8g1ckzuq.cognition.run/","en-US,en;q=0.9","m97fuw721meks3f","","52","[""White""]","No","Male","1257514.2999999523","null","","<p></p>","null","rating","tcd","attraction_1","1","microwave ovens","null","null","null","null","null","null","2","","","","","","","","","","",""
"","","","","","rating_trial","survey-html-form","32","523850","0.0-3.0-1.14","3","1","2025-04-10 18:09:54","7bd189e8e4882776c700e1dae255cdf5","","Mozilla/5.0 (Windows NT 10.0; Win64; x64) AppleWebKit/537.36 (KHTML, like Gecko) Chrome/134.0.0.0 Safari/537.36","WebKit","Chrome","134.0.0.0","Windows","10.0","https://hz8g1ckzuq.cognition.run/","en-US,en;q=0.9","m97fuw721meks3f","","52","[""White""]","No","Male","1257514.2999999523","12404","","","{""price_1"":""600"",""price_2"":""600"",""price_3"":""500""}","rating","tcd","attraction_1","1","microwave ovens","null","null","null","null","null","null","2","60","50","60","50","60","45","Warranty","Cooking power","","",""
"","","","","","rating_trial_setup","html-keyboard-response","33","524156","0.0-3.0-0.15","3","1","2025-04-10 18:09:54","7bd189e8e4882776c700e1dae255cdf5","","Mozilla/5.0 (Windows NT 10.0; Win64; x64) AppleWebKit/537.36 (KHTML, like Gecko) Chrome/134.0.0.0 Safari/537.36","WebKit","Chrome","134.0.0.0","Windows","10.0","https://hz8g1ckzuq.cognition.run/","en-US,en;q=0.9","m97fuw721meks3f","","52","[""White""]","No","Male","1257514.2999999523","null","","<p></p>","null","rating","cdt","attraction_2","1","televisions","null","null","null","null","null","null","1","","","","","","","","","","",""
"","","","","","rating_trial","survey-html-form","34","532340","0.0-3.0-1.15","3","1","2025-04-10 18:09:54","7bd189e8e4882776c700e1dae255cdf5","","Mozilla/5.0 (Windows NT 10.0; Win64; x64) AppleWebKit/537.36 (KHTML, like Gecko) Chrome/134.0.0.0 Safari/537.36","WebKit","Chrome","134.0.0.0","Windows","10.0","https://hz8g1ckzuq.cognition.run/","en-US,en;q=0.9","m97fuw721meks3f","","52","[""White""]","No","Male","1257514.2999999523","8178","","","{""price_1"":""600"",""price_2"":""600"",""price_3"":""600""}","rating","cdt","attraction_2","1","televisions","null","null","null","null","null","null","1","60","50","60","50","60","40","Screen size","Average lifespan","","",""
"","","","","","rating_trial_setup","html-keyboard-response","35","532644","0.0-3.0-0.16","3","1","2025-04-10 18:09:54","7bd189e8e4882776c700e1dae255cdf5","","Mozilla/5.0 (Windows NT 10.0; Win64; x64) AppleWebKit/537.36 (KHTML, like Gecko) Chrome/134.0.0.0 Safari/537.36","WebKit","Chrome","134.0.0.0","Windows","10.0","https://hz8g1ckzuq.cognition.run/","en-US,en;q=0.9","m97fuw721meks3f","","52","[""White""]","No","Male","1257514.2999999523","null","","<p></p>","null","rating","ctd","repulsion_2","1","washing machines","null","null","null","null","null","null","1","","","","","","","","","","",""
"","","","","","rating_trial","survey-html-form","36","542883","0.0-3.0-1.16","3","1","2025-04-10 18:09:54","7bd189e8e4882776c700e1dae255cdf5","","Mozilla/5.0 (Windows NT 10.0; Win64; x64) AppleWebKit/537.36 (KHTML, like Gecko) Chrome/134.0.0.0 Safari/537.36","WebKit","Chrome","134.0.0.0","Windows","10.0","https://hz8g1ckzuq.cognition.run/","en-US,en;q=0.9","m97fuw721meks3f","","52","[""White""]","No","Male","1257514.2999999523","10234","","","{""price_1"":""600"",""price_2"":""800"",""price_3"":""700""}","rating","ctd","repulsion_2","1","washing machines","null","null","null","null","null","null","1","100","90","100","30","40","20","Average lifespan","Energy savings","","",""
"","","","","","rating_trial_setup","html-keyboard-response","37","543188","0.0-3.0-0.17","3","1","2025-04-10 18:09:54","7bd189e8e4882776c700e1dae255cdf5","","Mozilla/5.0 (Windows NT 10.0; Win64; x64) AppleWebKit/537.36 (KHTML, like Gecko) Chrome/134.0.0.0 Safari/537.36","WebKit","Chrome","134.0.0.0","Windows","10.0","https://hz8g1ckzuq.cognition.run/","en-US,en;q=0.9","m97fuw721meks3f","","52","[""White""]","No","Male","1257514.2999999523","null","","<p></p>","null","rating","wbw","catch","null","washing machines","85","50","35","35","35","50","1","","","","","","","","","","",""
"","","","","","rating_trial","survey-html-form","38","578673","0.0-3.0-1.17","3","1","2025-04-10 18:09:54","7bd189e8e4882776c700e1dae255cdf5","","Mozilla/5.0 (Windows NT 10.0; Win64; x64) AppleWebKit/537.36 (KHTML, like Gecko) Chrome/134.0.0.0 Safari/537.36","WebKit","Chrome","134.0.0.0","Windows","10.0","https://hz8g1ckzuq.cognition.run/","en-US,en;q=0.9","m97fuw721meks3f","","52","[""White""]","No","Male","1257514.2999999523","35480","","","{""price_1"":""400"",""price_2"":""700"",""price_3"":""450""}","rating","wbw","catch","null","washing machines","85","50","35","35","35","50","1","null","null","null","null","null","null","Average lifespan","Energy savings","","",""
"","","","","","rating_trial_setup","html-keyboard-response","39","578979","0.0-3.0-0.18","3","1","2025-04-10 18:09:54","7bd189e8e4882776c700e1dae255cdf5","","Mozilla/5.0 (Windows NT 10.0; Win64; x64) AppleWebKit/537.36 (KHTML, like Gecko) Chrome/134.0.0.0 Safari/537.36","WebKit","Chrome","134.0.0.0","Windows","10.0","https://hz8g1ckzuq.cognition.run/","en-US,en;q=0.9","m97fuw721meks3f","","52","[""White""]","No","Male","1257514.2999999523","null","","<p></p>","null","rating","tdc","attraction_1","2","washing machines","null","null","null","null","null","null","2","","","","","","","","","","",""
"","","","","","rating_trial","survey-html-form","40","587791","0.0-3.0-1.18","3","1","2025-04-10 18:09:54","7bd189e8e4882776c700e1dae255cdf5","","Mozilla/5.0 (Windows NT 10.0; Win64; x64) AppleWebKit/537.36 (KHTML, like Gecko) Chrome/134.0.0.0 Safari/537.36","WebKit","Chrome","134.0.0.0","Windows","10.0","https://hz8g1ckzuq.cognition.run/","en-US,en;q=0.9","m97fuw721meks3f","","52","[""White""]","No","Male","1257514.2999999523","8804","","","{""price_1"":""700"",""price_2"":""600"",""price_3"":""578""}","rating","tdc","attraction_1","2","washing machines","null","null","null","null","null","null","2","50","60","45","60","50","60","Average lifespan","Energy savings","","",""
"","","","","","rating_trial_setup","html-keyboard-response","41","588098","0.0-3.0-0.19","3","1","2025-04-10 18:09:54","7bd189e8e4882776c700e1dae255cdf5","","Mozilla/5.0 (Windows NT 10.0; Win64; x64) AppleWebKit/537.36 (KHTML, like Gecko) Chrome/134.0.0.0 Safari/537.36","WebKit","Chrome","134.0.0.0","Windows","10.0","https://hz8g1ckzuq.cognition.run/","en-US,en;q=0.9","m97fuw721meks3f","","52","[""White""]","No","Male","1257514.2999999523","null","","<p></p>","null","rating","dct","repulsion_2","1","televisions","null","null","null","null","null","null","2","","","","","","","","","","",""
"","","","","","rating_trial","survey-html-form","42","598571","0.0-3.0-1.19","3","1","2025-04-10 18:09:54","7bd189e8e4882776c700e1dae255cdf5","","Mozilla/5.0 (Windows NT 10.0; Win64; x64) AppleWebKit/537.36 (KHTML, like Gecko) Chrome/134.0.0.0 Safari/537.36","WebKit","Chrome","134.0.0.0","Windows","10.0","https://hz8g1ckzuq.cognition.run/","en-US,en;q=0.9","m97fuw721meks3f","","52","[""White""]","No","Male","1257514.2999999523","10467","","","{""price_1"":""486"",""price_2"":""897"",""price_3"":""675""}","rating","dct","repulsion_2","1","televisions","null","null","null","null","null","null","2","100","90","100","30","40","20","Screen size","Average lifespan","","",""
"","","","","","rating_trial_setup","html-keyboard-response","43","598878","0.0-3.0-0.20","3","1","2025-04-10 18:09:54","7bd189e8e4882776c700e1dae255cdf5","","Mozilla/5.0 (Windows NT 10.0; Win64; x64) AppleWebKit/537.36 (KHTML, like Gecko) Chrome/134.0.0.0 Safari/537.36","WebKit","Chrome","134.0.0.0","Windows","10.0","https://hz8g1ckzuq.cognition.run/","en-US,en;q=0.9","m97fuw721meks3f","","52","[""White""]","No","Male","1257514.2999999523","null","","<p></p>","null","rating","tdc","repulsion_2","2","microwave ovens","null","null","null","null","null","null","2","","","","","","","","","","",""
"","","","","","rating_trial","survey-html-form","44","606957","0.0-3.0-1.20","3","1","2025-04-10 18:09:54","7bd189e8e4882776c700e1dae255cdf5","","Mozilla/5.0 (Windows NT 10.0; Win64; x64) AppleWebKit/537.36 (KHTML, like Gecko) Chrome/134.0.0.0 Safari/537.36","WebKit","Chrome","134.0.0.0","Windows","10.0","https://hz8g1ckzuq.cognition.run/","en-US,en;q=0.9","m97fuw721meks3f","","52","[""White""]","No","Male","1257514.2999999523","8073","","","{""price_1"":""576"",""price_2"":""657"",""price_3"":""798""}","rating","tdc","repulsion_2","2","microwave ovens","null","null","null","null","null","null","2","30","40","20","100","90","100","Warranty","Cooking power","","",""
"","","","","","rating_trial_setup","html-keyboard-response","45","607263","0.0-3.0-0.21","3","1","2025-04-10 18:09:54","7bd189e8e4882776c700e1dae255cdf5","","Mozilla/5.0 (Windows NT 10.0; Win64; x64) AppleWebKit/537.36 (KHTML, like Gecko) Chrome/134.0.0.0 Safari/537.36","WebKit","Chrome","134.0.0.0","Windows","10.0","https://hz8g1ckzuq.cognition.run/","en-US,en;q=0.9","m97fuw721meks3f","","52","[""White""]","No","Male","1257514.2999999523","null","","<p></p>","null","rating","ctd","attraction_1","1","washing machines","null","null","null","null","null","null","1","","","","","","","","","","",""
"","","","","","rating_trial","survey-html-form","46","617294","0.0-3.0-1.21","3","1","2025-04-10 18:09:54","7bd189e8e4882776c700e1dae255cdf5","","Mozilla/5.0 (Windows NT 10.0; Win64; x64) AppleWebKit/537.36 (KHTML, like Gecko) Chrome/134.0.0.0 Safari/537.36","WebKit","Chrome","134.0.0.0","Windows","10.0","https://hz8g1ckzuq.cognition.run/","en-US,en;q=0.9","m97fuw721meks3f","","52","[""White""]","No","Male","1257514.2999999523","10025","","","{""price_1"":""587"",""price_2"":""498"",""price_3"":""878""}","rating","ctd","attraction_1","1","washing machines","null","null","null","null","null","null","1","60","50","60","50","60","45","Average lifespan","Energy savings","","",""
"","","","","","rating_trial_setup","html-keyboard-response","47","617600","0.0-3.0-0.22","3","1","2025-04-10 18:09:54","7bd189e8e4882776c700e1dae255cdf5","","Mozilla/5.0 (Windows NT 10.0; Win64; x64) AppleWebKit/537.36 (KHTML, like Gecko) Chrome/134.0.0.0 Safari/537.36","WebKit","Chrome","134.0.0.0","Windows","10.0","https://hz8g1ckzuq.cognition.run/","en-US,en;q=0.9","m97fuw721meks3f","","52","[""White""]","No","Male","1257514.2999999523","null","","<p></p>","null","rating","ctd","attraction_2","1","microwave ovens","null","null","null","null","null","null","1","","","","","","","","","","",""
"","","","","","rating_trial","survey-html-form","48","625515","0.0-3.0-1.22","3","1","2025-04-10 18:09:54","7bd189e8e4882776c700e1dae255cdf5","","Mozilla/5.0 (Windows NT 10.0; Win64; x64) AppleWebKit/537.36 (KHTML, like Gecko) Chrome/134.0.0.0 Safari/537.36","WebKit","Chrome","134.0.0.0","Windows","10.0","https://hz8g1ckzuq.cognition.run/","en-US,en;q=0.9","m97fuw721meks3f","","52","[""White""]","No","Male","1257514.2999999523","7908","","","{""price_1"":""689"",""price_2"":""876"",""price_3"":""987""}","rating","ctd","attraction_2","1","microwave ovens","null","null","null","null","null","null","1","60","50","60","50","60","40","Warranty","Cooking power","","",""
"","","","","","rating_trial_setup","html-keyboard-response","49","625822","0.0-3.0-0.23","3","1","2025-04-10 18:09:54","7bd189e8e4882776c700e1dae255cdf5","","Mozilla/5.0 (Windows NT 10.0; Win64; x64) AppleWebKit/537.36 (KHTML, like Gecko) Chrome/134.0.0.0 Safari/537.36","WebKit","Chrome","134.0.0.0","Windows","10.0","https://hz8g1ckzuq.cognition.run/","en-US,en;q=0.9","m97fuw721meks3f","","52","[""White""]","No","Male","1257514.2999999523","null","","<p></p>","null","rating","cdt","repulsion_1","1","microwave ovens","null","null","null","null","null","null","1","","","","","","","","","","",""
"","","","","","rating_trial","survey-html-form","50","632479","0.0-3.0-1.23","3","1","2025-04-10 18:09:54","7bd189e8e4882776c700e1dae255cdf5","","Mozilla/5.0 (Windows NT 10.0; Win64; x64) AppleWebKit/537.36 (KHTML, like Gecko) Chrome/134.0.0.0 Safari/537.36","WebKit","Chrome","134.0.0.0","Windows","10.0","https://hz8g1ckzuq.cognition.run/","en-US,en;q=0.9","m97fuw721meks3f","","52","[""White""]","No","Male","1257514.2999999523","6650","","","{""price_1"":""689"",""price_2"":""876"",""price_3"":""987""}","rating","cdt","repulsion_1","1","microwave ovens","null","null","null","null","null","null","1","100","90","100","30","40","25","Warranty","Cooking power","","",""
"","","","","","rating_trial_setup","html-keyboard-response","51","632787","0.0-3.0-0.24","3","1","2025-04-10 18:09:54","7bd189e8e4882776c700e1dae255cdf5","","Mozilla/5.0 (Windows NT 10.0; Win64; x64) AppleWebKit/537.36 (KHTML, like Gecko) Chrome/134.0.0.0 Safari/537.36","WebKit","Chrome","134.0.0.0","Windows","10.0","https://hz8g1ckzuq.cognition.run/","en-US,en;q=0.9","m97fuw721meks3f","","52","[""White""]","No","Male","1257514.2999999523","null","","<p></p>","null","rating","dct","attraction_1","1","televisions","null","null","null","null","null","null","1","","","","","","","","","","",""
"","","","","","rating_trial","survey-html-form","52","646313","0.0-3.0-1.24","3","1","2025-04-10 18:09:54","7bd189e8e4882776c700e1dae255cdf5","","Mozilla/5.0 (Windows NT 10.0; Win64; x64) AppleWebKit/537.36 (KHTML, like Gecko) Chrome/134.0.0.0 Safari/537.36","WebKit","Chrome","134.0.0.0","Windows","10.0","https://hz8g1ckzuq.cognition.run/","en-US,en;q=0.9","m97fuw721meks3f","","52","[""White""]","No","Male","1257514.2999999523","13519","","","{""price_1"":""689"",""price_2"":""686"",""price_3"":""967""}","rating","dct","attraction_1","1","televisions","null","null","null","null","null","null","1","60","50","60","50","60","45","Screen size","Average lifespan","","",""
"","","","","","rating_trial_setup","html-keyboard-response","53","646619","0.0-3.0-0.25","3","1","2025-04-10 18:09:54","7bd189e8e4882776c700e1dae255cdf5","","Mozilla/5.0 (Windows NT 10.0; Win64; x64) AppleWebKit/537.36 (KHTML, like Gecko) Chrome/134.0.0.0 Safari/537.36","WebKit","Chrome","134.0.0.0","Windows","10.0","https://hz8g1ckzuq.cognition.run/","en-US,en;q=0.9","m97fuw721meks3f","","52","[""White""]","No","Male","1257514.2999999523","null","","<p></p>","null","rating","dct","attraction_2","1","washing machines","null","null","null","null","null","null","1","","","","","","","","","","",""
"","","","","","rating_trial","survey-html-form","54","746548","0.0-3.0-1.25","3","1","2025-04-10 18:09:54","7bd189e8e4882776c700e1dae255cdf5","","Mozilla/5.0 (Windows NT 10.0; Win64; x64) AppleWebKit/537.36 (KHTML, like Gecko) Chrome/134.0.0.0 Safari/537.36","WebKit","Chrome","134.0.0.0","Windows","10.0","https://hz8g1ckzuq.cognition.run/","en-US,en;q=0.9","m97fuw721meks3f","","52","[""White""]","No","Male","1257514.2999999523","99922","","","{""price_1"":""795"",""price_2"":""976"",""price_3"":""689""}","rating","dct","attraction_2","1","washing machines","null","null","null","null","null","null","1","60","50","60","50","60","40","Average lifespan","Energy savings","","",""
"","","","","","rating_trial_setup","html-keyboard-response","55","746851","0.0-3.0-0.26","3","1","2025-04-10 18:09:54","7bd189e8e4882776c700e1dae255cdf5","","Mozilla/5.0 (Windows NT 10.0; Win64; x64) AppleWebKit/537.36 (KHTML, like Gecko) Chrome/134.0.0.0 Safari/537.36","WebKit","Chrome","134.0.0.0","Windows","10.0","https://hz8g1ckzuq.cognition.run/","en-US,en;q=0.9","m97fuw721meks3f","","52","[""White""]","No","Male","1257514.2999999523","null","","<p></p>","null","rating","ctd","repulsion_1","2","washing machines","null","null","null","null","null","null","1","","","","","","","","","","",""
"","","","","","rating_trial","survey-html-form","56","788056","0.0-3.0-1.26","3","1","2025-04-10 18:09:54","7bd189e8e4882776c700e1dae255cdf5","","Mozilla/5.0 (Windows NT 10.0; Win64; x64) AppleWebKit/537.36 (KHTML, like Gecko) Chrome/134.0.0.0 Safari/537.36","WebKit","Chrome","134.0.0.0","Windows","10.0","https://hz8g1ckzuq.cognition.run/","en-US,en;q=0.9","m97fuw721meks3f","","52","[""White""]","No","Male","1257514.2999999523","41198","","","{""price_1"":""585"",""price_2"":""876"",""price_3"":""987""}","rating","ctd","repulsion_1","2","washing machines","null","null","null","null","null","null","1","30","40","25","100","90","100","Average lifespan","Energy savings","","",""
"","","","","","rating_trial_setup","html-keyboard-response","57","788362","0.0-3.0-0.27","3","1","2025-04-10 18:09:54","7bd189e8e4882776c700e1dae255cdf5","","Mozilla/5.0 (Windows NT 10.0; Win64; x64) AppleWebKit/537.36 (KHTML, like Gecko) Chrome/134.0.0.0 Safari/537.36","WebKit","Chrome","134.0.0.0","Windows","10.0","https://hz8g1ckzuq.cognition.run/","en-US,en;q=0.9","m97fuw721meks3f","","52","[""White""]","No","Male","1257514.2999999523","null","","<p></p>","null","rating","dct","attraction_2","2","laptops","null","null","null","null","null","null","1","","","","","","","","","","",""
"","","","","","rating_trial","survey-html-form","58","801945","0.0-3.0-1.27","3","1","2025-04-10 18:09:54","7bd189e8e4882776c700e1dae255cdf5","","Mozilla/5.0 (Windows NT 10.0; Win64; x64) AppleWebKit/537.36 (KHTML, like Gecko) Chrome/134.0.0.0 Safari/537.36","WebKit","Chrome","134.0.0.0","Windows","10.0","https://hz8g1ckzuq.cognition.run/","en-US,en;q=0.9","m97fuw721meks3f","","52","[""White""]","No","Male","1257514.2999999523","13575","","","{""price_1"":""686"",""price_2"":""976"",""price_3"":""987""}","rating","dct","attraction_2","2","laptops","null","null","null","null","null","null","1","50","60","40","60","50","60","Processing speed","Memory (RAM)","","",""
"","","","","","rating_trial_setup","html-keyboard-response","59","802249","0.0-3.0-0.28","3","1","2025-04-10 18:09:54","7bd189e8e4882776c700e1dae255cdf5","","Mozilla/5.0 (Windows NT 10.0; Win64; x64) AppleWebKit/537.36 (KHTML, like Gecko) Chrome/134.0.0.0 Safari/537.36","WebKit","Chrome","134.0.0.0","Windows","10.0","https://hz8g1ckzuq.cognition.run/","en-US,en;q=0.9","m97fuw721meks3f","","52","[""White""]","No","Male","1257514.2999999523","null","","<p></p>","null","rating","dtc","repulsion_2","1","laptops","null","null","null","null","null","null","2","","","","","","","","","","",""
"","","","","","rating_trial","survey-html-form","60","813782","0.0-3.0-1.28","3","1","2025-04-10 18:09:54","7bd189e8e4882776c700e1dae255cdf5","","Mozilla/5.0 (Windows NT 10.0; Win64; x64) AppleWebKit/537.36 (KHTML, like Gecko) Chrome/134.0.0.0 Safari/537.36","WebKit","Chrome","134.0.0.0","Windows","10.0","https://hz8g1ckzuq.cognition.run/","en-US,en;q=0.9","m97fuw721meks3f","","52","[""White""]","No","Male","1257514.2999999523","11526","","","{""price_1"":""877"",""price_2"":""876"",""price_3"":""977""}","rating","dtc","repulsion_2","1","laptops","null","null","null","null","null","null","2","100","90","100","30","40","20","Processing speed","Memory (RAM)","","",""
"","","","","","rating_trial_setup","html-keyboard-response","61","814087","0.0-3.0-0.29","3","1","2025-04-10 18:09:54","7bd189e8e4882776c700e1dae255cdf5","","Mozilla/5.0 (Windows NT 10.0; Win64; x64) AppleWebKit/537.36 (KHTML, like Gecko) Chrome/134.0.0.0 Safari/537.36","WebKit","Chrome","134.0.0.0","Windows","10.0","https://hz8g1ckzuq.cognition.run/","en-US,en;q=0.9","m97fuw721meks3f","","52","[""White""]","No","Male","1257514.2999999523","null","","<p></p>","null","rating","tdc","attraction_2","2","televisions","null","null","null","null","null","null","2","","","","","","","","","","",""
"","","","","","rating_trial","survey-html-form","62","847009","0.0-3.0-1.29","3","1","2025-04-10 18:09:54","7bd189e8e4882776c700e1dae255cdf5","","Mozilla/5.0 (Windows NT 10.0; Win64; x64) AppleWebKit/537.36 (KHTML, like Gecko) Chrome/134.0.0.0 Safari/537.36","WebKit","Chrome","134.0.0.0","Windows","10.0","https://hz8g1ckzuq.cognition.run/","en-US,en;q=0.9","m97fuw721meks3f","","52","[""White""]","No","Male","1257514.2999999523","32914","","","{""price_1"":""798"",""price_2"":""86"",""price_3"":""697""}","rating","tdc","attraction_2","2","televisions","null","null","null","null","null","null","2","50","60","40","60","50","60","Screen size","Average lifespan","","",""
"","","","","","rating_trial_setup","html-keyboard-response","63","847312","0.0-3.0-0.30","3","1","2025-04-10 18:09:54","7bd189e8e4882776c700e1dae255cdf5","","Mozilla/5.0 (Windows NT 10.0; Win64; x64) AppleWebKit/537.36 (KHTML, like Gecko) Chrome/134.0.0.0 Safari/537.36","WebKit","Chrome","134.0.0.0","Windows","10.0","https://hz8g1ckzuq.cognition.run/","en-US,en;q=0.9","m97fuw721meks3f","","52","[""White""]","No","Male","1257514.2999999523","null","","<p></p>","null","rating","dtc","repulsion_1","2","laptops","null","null","null","null","null","null","2","","","","","","","","","","",""
"","","","","","rating_trial","survey-html-form","64","867493","0.0-3.0-1.30","3","1","2025-04-10 18:09:54","7bd189e8e4882776c700e1dae255cdf5","","Mozilla/5.0 (Windows NT 10.0; Win64; x64) AppleWebKit/537.36 (KHTML, like Gecko) Chrome/134.0.0.0 Safari/537.36","WebKit","Chrome","134.0.0.0","Windows","10.0","https://hz8g1ckzuq.cognition.run/","en-US,en;q=0.9","m97fuw721meks3f","","52","[""White""]","No","Male","1257514.2999999523","20175","","","{""price_1"":""867"",""price_2"":""970"",""price_3"":""809""}","rating","dtc","repulsion_1","2","laptops","null","null","null","null","null","null","2","30","40","25","100","90","100","Processing speed","Memory (RAM)","","",""
"","","","","","rating_trial_setup","html-keyboard-response","65","867801","0.0-3.0-0.31","3","1","2025-04-10 18:09:54","7bd189e8e4882776c700e1dae255cdf5","","Mozilla/5.0 (Windows NT 10.0; Win64; x64) AppleWebKit/537.36 (KHTML, like Gecko) Chrome/134.0.0.0 Safari/537.36","WebKit","Chrome","134.0.0.0","Windows","10.0","https://hz8g1ckzuq.cognition.run/","en-US,en;q=0.9","m97fuw721meks3f","","52","[""White""]","No","Male","1257514.2999999523","null","","<p></p>","null","rating","tdc","repulsion_1","1","laptops","null","null","null","null","null","null","2","","","","","","","","","","",""
"","","","","","rating_trial","survey-html-form","66","877195","0.0-3.0-1.31","3","1","2025-04-10 18:09:54","7bd189e8e4882776c700e1dae255cdf5","","Mozilla/5.0 (Windows NT 10.0; Win64; x64) AppleWebKit/537.36 (KHTML, like Gecko) Chrome/134.0.0.0 Safari/537.36","WebKit","Chrome","134.0.0.0","Windows","10.0","https://hz8g1ckzuq.cognition.run/","en-US,en;q=0.9","m97fuw721meks3f","","52","[""White""]","No","Male","1257514.2999999523","9386","","","{""price_1"":""789"",""price_2"":""679"",""price_3"":""386""}","rating","tdc","repulsion_1","1","laptops","null","null","null","null","null","null","2","100","90","100","30","40","25","Processing speed","Memory (RAM)","","",""
"","","","","","rating_trial_setup","html-keyboard-response","67","877498","0.0-3.0-0.32","3","1","2025-04-10 18:09:54","7bd189e8e4882776c700e1dae255cdf5","","Mozilla/5.0 (Windows NT 10.0; Win64; x64) AppleWebKit/537.36 (KHTML, like Gecko) Chrome/134.0.0.0 Safari/537.36","WebKit","Chrome","134.0.0.0","Windows","10.0","https://hz8g1ckzuq.cognition.run/","en-US,en;q=0.9","m97fuw721meks3f","","52","[""White""]","No","Male","1257514.2999999523","null","","<p></p>","null","rating","cdt","attraction_1","2","televisions","null","null","null","null","null","null","2","","","","","","","","","","",""
"","","","","","rating_trial","survey-html-form","68","937887","0.0-3.0-1.32","3","1","2025-04-10 18:09:54","7bd189e8e4882776c700e1dae255cdf5","","Mozilla/5.0 (Windows NT 10.0; Win64; x64) AppleWebKit/537.36 (KHTML, like Gecko) Chrome/134.0.0.0 Safari/537.36","WebKit","Chrome","134.0.0.0","Windows","10.0","https://hz8g1ckzuq.cognition.run/","en-US,en;q=0.9","m97fuw721meks3f","","52","[""White""]","No","Male","1257514.2999999523","60381","","","{""price_1"":""788"",""price_2"":""900"",""price_3"":""899""}","rating","cdt","attraction_1","2","televisions","null","null","null","null","null","null","2","50","60","45","60","50","60","Screen size","Average lifespan","","",""
"","","","","","rating_trial_setup","html-keyboard-response","69","938197","0.0-3.0-0.33","3","1","2025-04-10 18:09:54","7bd189e8e4882776c700e1dae255cdf5","","Mozilla/5.0 (Windows NT 10.0; Win64; x64) AppleWebKit/537.36 (KHTML, like Gecko) Chrome/134.0.0.0 Safari/537.36","WebKit","Chrome","134.0.0.0","Windows","10.0","https://hz8g1ckzuq.cognition.run/","en-US,en;q=0.9","m97fuw721meks3f","","52","[""White""]","No","Male","1257514.2999999523","null","","<p></p>","null","rating","wbw","catch","null","washing machines","95","50","35","50","25","20","2","","","","","","","","","","",""
"","","","","","rating_trial","survey-html-form","70","954983","0.0-3.0-1.33","3","1","2025-04-10 18:09:54","7bd189e8e4882776c700e1dae255cdf5","","Mozilla/5.0 (Windows NT 10.0; Win64; x64) AppleWebKit/537.36 (KHTML, like Gecko) Chrome/134.0.0.0 Safari/537.36","WebKit","Chrome","134.0.0.0","Windows","10.0","https://hz8g1ckzuq.cognition.run/","en-US,en;q=0.9","m97fuw721meks3f","","52","[""White""]","No","Male","1257514.2999999523","16777","","","{""price_1"":""988"",""price_2"":""790"",""price_3"":""988""}","rating","wbw","catch","null","washing machines","95","50","35","50","25","20","2","null","null","null","null","null","null","Average lifespan","Energy savings","","",""
"","","","","","rating_trial_setup","html-keyboard-response","71","955293","0.0-3.0-0.34","3","1","2025-04-10 18:09:54","7bd189e8e4882776c700e1dae255cdf5","","Mozilla/5.0 (Windows NT 10.0; Win64; x64) AppleWebKit/537.36 (KHTML, like Gecko) Chrome/134.0.0.0 Safari/537.36","WebKit","Chrome","134.0.0.0","Windows","10.0","https://hz8g1ckzuq.cognition.run/","en-US,en;q=0.9","m97fuw721meks3f","","52","[""White""]","No","Male","1257514.2999999523","null","","<p></p>","null","rating","tcd","attraction_2","2","microwave ovens","null","null","null","null","null","null","2","","","","","","","","","","",""
"","","","","","rating_trial","survey-html-form","72","993559","0.0-3.0-1.34","3","1","2025-04-10 18:09:54","7bd189e8e4882776c700e1dae255cdf5","","Mozilla/5.0 (Windows NT 10.0; Win64; x64) AppleWebKit/537.36 (KHTML, like Gecko) Chrome/134.0.0.0 Safari/537.36","WebKit","Chrome","134.0.0.0","Windows","10.0","https://hz8g1ckzuq.cognition.run/","en-US,en;q=0.9","m97fuw721meks3f","","52","[""White""]","No","Male","1257514.2999999523","38257","","","{""price_1"":""978"",""price_2"":""977"",""price_3"":""986""}","rating","tcd","attraction_2","2","microwave ovens","null","null","null","null","null","null","2","50","60","40","60","50","60","Warranty","Cooking power","","",""
"","","","","","rating_trial_setup","html-keyboard-response","73","993868","0.0-3.0-0.35","3","1","2025-04-10 18:09:54","7bd189e8e4882776c700e1dae255cdf5","","Mozilla/5.0 (Windows NT 10.0; Win64; x64) AppleWebKit/537.36 (KHTML, like Gecko) Chrome/134.0.0.0 Safari/537.36","WebKit","Chrome","134.0.0.0","Windows","10.0","https://hz8g1ckzuq.cognition.run/","en-US,en;q=0.9","m97fuw721meks3f","","52","[""White""]","No","Male","1257514.2999999523","null","","<p></p>","null","rating","tcd","repulsion_1","2","microwave ovens","null","null","null","null","null","null","2","","","","","","","","","","",""
"","","","","","rating_trial","survey-html-form","74","1010816","0.0-3.0-1.35","3","1","2025-04-10 18:09:54","7bd189e8e4882776c700e1dae255cdf5","","Mozilla/5.0 (Windows NT 10.0; Win64; x64) AppleWebKit/537.36 (KHTML, like Gecko) Chrome/134.0.0.0 Safari/537.36","WebKit","Chrome","134.0.0.0","Windows","10.0","https://hz8g1ckzuq.cognition.run/","en-US,en;q=0.9","m97fuw721meks3f","","52","[""White""]","No","Male","1257514.2999999523","16939","","","{""price_1"":""869"",""price_2"":""979"",""price_3"":""678""}","rating","tcd","repulsion_1","2","microwave ovens","null","null","null","null","null","null","2","30","40","25","100","90","100","Warranty","Cooking power","","",""
"","","","","","rating_trial_setup","html-keyboard-response","75","1011123","0.0-3.0-0.36","3","1","2025-04-10 18:09:54","7bd189e8e4882776c700e1dae255cdf5","","Mozilla/5.0 (Windows NT 10.0; Win64; x64) AppleWebKit/537.36 (KHTML, like Gecko) Chrome/134.0.0.0 Safari/537.36","WebKit","Chrome","134.0.0.0","Windows","10.0","https://hz8g1ckzuq.cognition.run/","en-US,en;q=0.9","m97fuw721meks3f","","52","[""White""]","No","Male","1257514.2999999523","null","","<p></p>","null","rating","tdc","attraction_1","2","microwave ovens","null","null","null","null","null","null","1","","","","","","","","","","",""
"","","","","","rating_trial","survey-html-form","76","1076863","0.0-3.0-1.36","3","1","2025-04-10 18:09:54","7bd189e8e4882776c700e1dae255cdf5","","Mozilla/5.0 (Windows NT 10.0; Win64; x64) AppleWebKit/537.36 (KHTML, like Gecko) Chrome/134.0.0.0 Safari/537.36","WebKit","Chrome","134.0.0.0","Windows","10.0","https://hz8g1ckzuq.cognition.run/","en-US,en;q=0.9","m97fuw721meks3f","","52","[""White""]","No","Male","1257514.2999999523","65730","","","{""price_1"":""789"",""price_2"":""768"",""price_3"":""678""}","rating","tdc","attraction_1","2","microwave ovens","null","null","null","null","null","null","1","50","60","45","60","50","60","Warranty","Cooking power","","",""
"","","","","","rating_trial_setup","html-keyboard-response","77","1077171","0.0-3.0-0.37","3","1","2025-04-10 18:09:54","7bd189e8e4882776c700e1dae255cdf5","","Mozilla/5.0 (Windows NT 10.0; Win64; x64) AppleWebKit/537.36 (KHTML, like Gecko) Chrome/134.0.0.0 Safari/537.36","WebKit","Chrome","134.0.0.0","Windows","10.0","https://hz8g1ckzuq.cognition.run/","en-US,en;q=0.9","m97fuw721meks3f","","52","[""White""]","No","Male","1257514.2999999523","null","","<p></p>","null","rating","wbw","catch","null","microwave ovens","55","50","10","15","5","5","1","","","","","","","","","","",""
"","","","","","rating_trial","survey-html-form","78","1083149","0.0-3.0-1.37","3","1","2025-04-10 18:09:54","7bd189e8e4882776c700e1dae255cdf5","","Mozilla/5.0 (Windows NT 10.0; Win64; x64) AppleWebKit/537.36 (KHTML, like Gecko) Chrome/134.0.0.0 Safari/537.36","WebKit","Chrome","134.0.0.0","Windows","10.0","https://hz8g1ckzuq.cognition.run/","en-US,en;q=0.9","m97fuw721meks3f","","52","[""White""]","No","Male","1257514.2999999523","5968","","","{""price_1"":""768"",""price_2"":""678"",""price_3"":""867""}","rating","wbw","catch","null","microwave ovens","55","50","10","15","5","5","1","null","null","null","null","null","null","Warranty","Cooking power","","",""
"","","","","","rating_trial_setup","html-keyboard-response","79","1083456","0.0-3.0-0.38","3","1","2025-04-10 18:09:54","7bd189e8e4882776c700e1dae255cdf5","","Mozilla/5.0 (Windows NT 10.0; Win64; x64) AppleWebKit/537.36 (KHTML, like Gecko) Chrome/134.0.0.0 Safari/537.36","WebKit","Chrome","134.0.0.0","Windows","10.0","https://hz8g1ckzuq.cognition.run/","en-US,en;q=0.9","m97fuw721meks3f","","52","[""White""]","No","Male","1257514.2999999523","null","","<p></p>","null","rating","dct","repulsion_2","1","microwave ovens","null","null","null","null","null","null","1","","","","","","","","","","",""
"","","","","","rating_trial","survey-html-form","80","1091281","0.0-3.0-1.38","3","1","2025-04-10 18:09:54","7bd189e8e4882776c700e1dae255cdf5","","Mozilla/5.0 (Windows NT 10.0; Win64; x64) AppleWebKit/537.36 (KHTML, like Gecko) Chrome/134.0.0.0 Safari/537.36","WebKit","Chrome","134.0.0.0","Windows","10.0","https://hz8g1ckzuq.cognition.run/","en-US,en;q=0.9","m97fuw721meks3f","","52","[""White""]","No","Male","1257514.2999999523","7817","","","{""price_1"":""678"",""price_2"":""767"",""price_3"":""568""}","rating","dct","repulsion_2","1","microwave ovens","null","null","null","null","null","null","1","100","90","100","30","40","20","Warranty","Cooking power","","",""
"","","","","","rating_trial_setup","html-keyboard-response","81","1091584","0.0-3.0-0.39","3","1","2025-04-10 18:09:54","7bd189e8e4882776c700e1dae255cdf5","","Mozilla/5.0 (Windows NT 10.0; Win64; x64) AppleWebKit/537.36 (KHTML, like Gecko) Chrome/134.0.0.0 Safari/537.36","WebKit","Chrome","134.0.0.0","Windows","10.0","https://hz8g1ckzuq.cognition.run/","en-US,en;q=0.9","m97fuw721meks3f","","52","[""White""]","No","Male","1257514.2999999523","null","","<p></p>","null","rating","ctd","attraction_2","1","laptops","null","null","null","null","null","null","1","","","","","","","","","","",""
"","","","","","rating_trial","survey-html-form","82","1098069","0.0-3.0-1.39","3","1","2025-04-10 18:09:54","7bd189e8e4882776c700e1dae255cdf5","","Mozilla/5.0 (Windows NT 10.0; Win64; x64) AppleWebKit/537.36 (KHTML, like Gecko) Chrome/134.0.0.0 Safari/537.36","WebKit","Chrome","134.0.0.0","Windows","10.0","https://hz8g1ckzuq.cognition.run/","en-US,en;q=0.9","m97fuw721meks3f","","52","[""White""]","No","Male","1257514.2999999523","6479","","","{""price_1"":""768"",""price_2"":""588"",""price_3"":""768""}","rating","ctd","attraction_2","1","laptops","null","null","null","null","null","null","1","60","50","60","50","60","40","Processing speed","Memory (RAM)","","",""
"","","","","","","instructions","83","1140000","0.0-4.0","3","1","2025-04-10 18:09:54","7bd189e8e4882776c700e1dae255cdf5","","Mozilla/5.0 (Windows NT 10.0; Win64; x64) AppleWebKit/537.36 (KHTML, like Gecko) Chrome/134.0.0.0 Safari/537.36","WebKit","Chrome","134.0.0.0","Windows","10.0","https://hz8g1ckzuq.cognition.run/","en-US,en;q=0.9","m97fuw721meks3f","","52","[""White""]","No","Male","1257514.2999999523","41923","[{""page_index"":0,""viewing_time"":4817},{""page_index"":1,""viewing_time"":2463},{""page_index"":2,""viewing_time"":3200},{""page_index"":3,""viewing_time"":4970},{""page_index"":4,""viewing_time"":6249},{""page_index"":5,""viewing_time"":2927},{""page_index"":6,""viewing_time"":11635},{""page_index"":7,""viewing_time"":5663}]","","","","","","","","","","","","","","","","","","","","","","","","",""
"","","","","","choice_trial_setup","html-keyboard-response","84","1140305","0.0-5.0-0.0","3","1","2025-04-10 18:09:54","7bd189e8e4882776c700e1dae255cdf5","","Mozilla/5.0 (Windows NT 10.0; Win64; x64) AppleWebKit/537.36 (KHTML, like Gecko) Chrome/134.0.0.0 Safari/537.36","WebKit","Chrome","134.0.0.0","Windows","10.0","https://hz8g1ckzuq.cognition.run/","en-US,en;q=0.9","m97fuw721meks3f","","52","[""White""]","No","Male","1257514.2999999523","null","","<p></p>","null","choice","wbw","catch","null","washing machines","50","65","35","25","40","50","1","","","","","","","","","","",""
"","","","","","choice_trial","survey-html-form","85","1144512","0.0-5.0-1.0","3","1","2025-04-10 18:09:54","7bd189e8e4882776c700e1dae255cdf5","","Mozilla/5.0 (Windows NT 10.0; Win64; x64) AppleWebKit/537.36 (KHTML, like Gecko) Chrome/134.0.0.0 Safari/537.36","WebKit","Chrome","134.0.0.0","Windows","10.0","https://hz8g1ckzuq.cognition.run/","en-US,en;q=0.9","m97fuw721meks3f","","52","[""White""]","No","Male","1257514.2999999523","4194","","","{""product_choice"":""B""}","choice","wbw","catch","null","washing machines","50","65","35","25","40","50","1","null","null","null","null","null","null","Average lifespan","Energy savings","","",""
"","","","","","choice_trial_setup","html-keyboard-response","86","1144819","0.0-5.0-0.1","3","1","2025-04-10 18:09:54","7bd189e8e4882776c700e1dae255cdf5","","Mozilla/5.0 (Windows NT 10.0; Win64; x64) AppleWebKit/537.36 (KHTML, like Gecko) Chrome/134.0.0.0 Safari/537.36","WebKit","Chrome","134.0.0.0","Windows","10.0","https://hz8g1ckzuq.cognition.run/","en-US,en;q=0.9","m97fuw721meks3f","","52","[""White""]","No","Male","1257514.2999999523","null","","<p></p>","null","choice","bww","catch","null","laptops","65","80","5","40","10","10","1","","","","","","","","","","",""
"","","","","","choice_trial","survey-html-form","87","1148389","0.0-5.0-1.1","3","1","2025-04-10 18:09:54","7bd189e8e4882776c700e1dae255cdf5","","Mozilla/5.0 (Windows NT 10.0; Win64; x64) AppleWebKit/537.36 (KHTML, like Gecko) Chrome/134.0.0.0 Safari/537.36","WebKit","Chrome","134.0.0.0","Windows","10.0","https://hz8g1ckzuq.cognition.run/","en-US,en;q=0.9","m97fuw721meks3f","","52","[""White""]","No","Male","1257514.2999999523","3563","","","{""product_choice"":""A""}","choice","bww","catch","null","laptops","65","80","5","40","10","10","1","null","null","null","null","null","null","Processing speed","Memory (RAM)","","",""
"","","","","","choice_trial_setup","html-keyboard-response","88","1148692","0.0-5.0-0.2","3","1","2025-04-10 18:09:54","7bd189e8e4882776c700e1dae255cdf5","","Mozilla/5.0 (Windows NT 10.0; Win64; x64) AppleWebKit/537.36 (KHTML, like Gecko) Chrome/134.0.0.0 Safari/537.36","WebKit","Chrome","134.0.0.0","Windows","10.0","https://hz8g1ckzuq.cognition.run/","en-US,en;q=0.9","m97fuw721meks3f","","52","[""White""]","No","Male","1257514.2999999523","null","","<p></p>","null","choice","ctd","repulsion_2","1","televisions","null","null","null","null","null","null","1","","","","","","","","","","",""
"","","","","","choice_trial","survey-html-form","89","1151050","0.0-5.0-1.2","3","1","2025-04-10 18:09:54","7bd189e8e4882776c700e1dae255cdf5","","Mozilla/5.0 (Windows NT 10.0; Win64; x64) AppleWebKit/537.36 (KHTML, like Gecko) Chrome/134.0.0.0 Safari/537.36","WebKit","Chrome","134.0.0.0","Windows","10.0","https://hz8g1ckzuq.cognition.run/","en-US,en;q=0.9","m97fuw721meks3f","","52","[""White""]","No","Male","1257514.2999999523","2348","","","{""product_choice"":""B""}","choice","ctd","repulsion_2","1","televisions","null","null","null","null","null","null","1","100","90","100","30","40","20","Screen size","Average lifespan","","",""
"","","","","","choice_trial_setup","html-keyboard-response","90","1151357","0.0-5.0-0.3","3","1","2025-04-10 18:09:54","7bd189e8e4882776c700e1dae255cdf5","","Mozilla/5.0 (Windows NT 10.0; Win64; x64) AppleWebKit/537.36 (KHTML, like Gecko) Chrome/134.0.0.0 Safari/537.36","WebKit","Chrome","134.0.0.0","Windows","10.0","https://hz8g1ckzuq.cognition.run/","en-US,en;q=0.9","m97fuw721meks3f","","52","[""White""]","No","Male","1257514.2999999523","null","","<p></p>","null","choice","tcd","attraction_1","2","microwave ovens","null","null","null","null","null","null","1","","","","","","","","","","",""
"","","","","","choice_trial","survey-html-form","91","1152447","0.0-5.0-1.3","3","1","2025-04-10 18:09:54","7bd189e8e4882776c700e1dae255cdf5","","Mozilla/5.0 (Windows NT 10.0; Win64; x64) AppleWebKit/537.36 (KHTML, like Gecko) Chrome/134.0.0.0 Safari/537.36","WebKit","Chrome","134.0.0.0","Windows","10.0","https://hz8g1ckzuq.cognition.run/","en-US,en;q=0.9","m97fuw721meks3f","","52","[""White""]","No","Male","1257514.2999999523","1080","","","{""product_choice"":""A""}","choice","tcd","attraction_1","2","microwave ovens","null","null","null","null","null","null","1","50","60","45","60","50","60","Warranty","Cooking power","","",""
"","","","","","choice_trial_setup","html-keyboard-response","92","1152754","0.0-5.0-0.4","3","1","2025-04-10 18:09:54","7bd189e8e4882776c700e1dae255cdf5","","Mozilla/5.0 (Windows NT 10.0; Win64; x64) AppleWebKit/537.36 (KHTML, like Gecko) Chrome/134.0.0.0 Safari/537.36","WebKit","Chrome","134.0.0.0","Windows","10.0","https://hz8g1ckzuq.cognition.run/","en-US,en;q=0.9","m97fuw721meks3f","","52","[""White""]","No","Male","1257514.2999999523","null","","<p></p>","null","choice","tcd","repulsion_1","1","televisions","null","null","null","null","null","null","2","","","","","","","","","","",""
"","","","","","choice_trial","survey-html-form","93","1153702","0.0-5.0-1.4","3","1","2025-04-10 18:09:54","7bd189e8e4882776c700e1dae255cdf5","","Mozilla/5.0 (Windows NT 10.0; Win64; x64) AppleWebKit/537.36 (KHTML, like Gecko) Chrome/134.0.0.0 Safari/537.36","WebKit","Chrome","134.0.0.0","Windows","10.0","https://hz8g1ckzuq.cognition.run/","en-US,en;q=0.9","m97fuw721meks3f","","52","[""White""]","No","Male","1257514.2999999523","939","","","{""product_choice"":""B""}","choice","tcd","repulsion_1","1","televisions","null","null","null","null","null","null","2","100","90","100","30","40","25","Screen size","Average lifespan","","",""
"","","","","","choice_trial_setup","html-keyboard-response","94","1154008","0.0-5.0-0.5","3","1","2025-04-10 18:09:54","7bd189e8e4882776c700e1dae255cdf5","","Mozilla/5.0 (Windows NT 10.0; Win64; x64) AppleWebKit/537.36 (KHTML, like Gecko) Chrome/134.0.0.0 Safari/537.36","WebKit","Chrome","134.0.0.0","Windows","10.0","https://hz8g1ckzuq.cognition.run/","en-US,en;q=0.9","m97fuw721meks3f","","52","[""White""]","No","Male","1257514.2999999523","null","","<p></p>","null","choice","cdt","repulsion_1","1","laptops","null","null","null","null","null","null","1","","","","","","","","","","",""
"","","","","","choice_trial","survey-html-form","95","1156306","0.0-5.0-1.5","3","1","2025-04-10 18:09:54","7bd189e8e4882776c700e1dae255cdf5","","Mozilla/5.0 (Windows NT 10.0; Win64; x64) AppleWebKit/537.36 (KHTML, like Gecko) Chrome/134.0.0.0 Safari/537.36","WebKit","Chrome","134.0.0.0","Windows","10.0","https://hz8g1ckzuq.cognition.run/","en-US,en;q=0.9","m97fuw721meks3f","","52","[""White""]","No","Male","1257514.2999999523","2287","","","{""product_choice"":""A""}","choice","cdt","repulsion_1","1","laptops","null","null","null","null","null","null","1","100","90","100","30","40","25","Processing speed","Memory (RAM)","","",""
"","","","","","choice_trial_setup","html-keyboard-response","96","1156613","0.0-5.0-0.6","3","1","2025-04-10 18:09:54","7bd189e8e4882776c700e1dae255cdf5","","Mozilla/5.0 (Windows NT 10.0; Win64; x64) AppleWebKit/537.36 (KHTML, like Gecko) Chrome/134.0.0.0 Safari/537.36","WebKit","Chrome","134.0.0.0","Windows","10.0","https://hz8g1ckzuq.cognition.run/","en-US,en;q=0.9","m97fuw721meks3f","","52","[""White""]","No","Male","1257514.2999999523","null","","<p></p>","null","choice","dtc","attraction_1","1","microwave ovens","null","null","null","null","null","null","1","","","","","","","","","","",""
"","","","","","choice_trial","survey-html-form","97","1157588","0.0-5.0-1.6","3","1","2025-04-10 18:09:54","7bd189e8e4882776c700e1dae255cdf5","","Mozilla/5.0 (Windows NT 10.0; Win64; x64) AppleWebKit/537.36 (KHTML, like Gecko) Chrome/134.0.0.0 Safari/537.36","WebKit","Chrome","134.0.0.0","Windows","10.0","https://hz8g1ckzuq.cognition.run/","en-US,en;q=0.9","m97fuw721meks3f","","52","[""White""]","No","Male","1257514.2999999523","966","","","{""product_choice"":""A""}","choice","dtc","attraction_1","1","microwave ovens","null","null","null","null","null","null","1","60","50","60","50","60","45","Warranty","Cooking power","","",""
"","","","","","choice_trial_setup","html-keyboard-response","98","1157899","0.0-5.0-0.7","3","1","2025-04-10 18:09:54","7bd189e8e4882776c700e1dae255cdf5","","Mozilla/5.0 (Windows NT 10.0; Win64; x64) AppleWebKit/537.36 (KHTML, like Gecko) Chrome/134.0.0.0 Safari/537.36","WebKit","Chrome","134.0.0.0","Windows","10.0","https://hz8g1ckzuq.cognition.run/","en-US,en;q=0.9","m97fuw721meks3f","","52","[""White""]","No","Male","1257514.2999999523","null","","<p></p>","null","choice","wbw","catch","null","laptops","55","65","20","40","20","10","1","","","","","","","","","","",""
"","","","","","choice_trial","survey-html-form","99","1159341","0.0-5.0-1.7","3","1","2025-04-10 18:09:54","7bd189e8e4882776c700e1dae255cdf5","","Mozilla/5.0 (Windows NT 10.0; Win64; x64) AppleWebKit/537.36 (KHTML, like Gecko) Chrome/134.0.0.0 Safari/537.36","WebKit","Chrome","134.0.0.0","Windows","10.0","https://hz8g1ckzuq.cognition.run/","en-US,en;q=0.9","m97fuw721meks3f","","52","[""White""]","No","Male","1257514.2999999523","1431","","","{""product_choice"":""C""}","choice","wbw","catch","null","laptops","55","65","20","40","20","10","1","null","null","null","null","null","null","Processing speed","Memory (RAM)","","",""
"","","","","","choice_trial_setup","html-keyboard-response","100","1159650","0.0-5.0-0.8","3","1","2025-04-10 18:09:54","7bd189e8e4882776c700e1dae255cdf5","","Mozilla/5.0 (Windows NT 10.0; Win64; x64) AppleWebKit/537.36 (KHTML, like Gecko) Chrome/134.0.0.0 Safari/537.36","WebKit","Chrome","134.0.0.0","Windows","10.0","https://hz8g1ckzuq.cognition.run/","en-US,en;q=0.9","m97fuw721meks3f","","52","[""White""]","No","Male","1257514.2999999523","null","","<p></p>","null","choice","cdt","repulsion_2","2","microwave ovens","null","null","null","null","null","null","1","","","","","","","","","","",""
"","","","","","choice_trial","survey-html-form","101","1160810","0.0-5.0-1.8","3","1","2025-04-10 18:09:54","7bd189e8e4882776c700e1dae255cdf5","","Mozilla/5.0 (Windows NT 10.0; Win64; x64) AppleWebKit/537.36 (KHTML, like Gecko) Chrome/134.0.0.0 Safari/537.36","WebKit","Chrome","134.0.0.0","Windows","10.0","https://hz8g1ckzuq.cognition.run/","en-US,en;q=0.9","m97fuw721meks3f","","52","[""White""]","No","Male","1257514.2999999523","1152","","","{""product_choice"":""B""}","choice","cdt","repulsion_2","2","microwave ovens","null","null","null","null","null","null","1","30","40","20","100","90","100","Warranty","Cooking power","","",""
"","","","","","choice_trial_setup","html-keyboard-response","102","1161120","0.0-5.0-0.9","3","1","2025-04-10 18:09:54","7bd189e8e4882776c700e1dae255cdf5","","Mozilla/5.0 (Windows NT 10.0; Win64; x64) AppleWebKit/537.36 (KHTML, like Gecko) Chrome/134.0.0.0 Safari/537.36","WebKit","Chrome","134.0.0.0","Windows","10.0","https://hz8g1ckzuq.cognition.run/","en-US,en;q=0.9","m97fuw721meks3f","","52","[""White""]","No","Male","1257514.2999999523","null","","<p></p>","null","choice","dct","attraction_2","1","washing machines","null","null","null","null","null","null","1","","","","","","","","","","",""
"","","","","","choice_trial","survey-html-form","103","1162360","0.0-5.0-1.9","3","1","2025-04-10 18:09:54","7bd189e8e4882776c700e1dae255cdf5","","Mozilla/5.0 (Windows NT 10.0; Win64; x64) AppleWebKit/537.36 (KHTML, like Gecko) Chrome/134.0.0.0 Safari/537.36","WebKit","Chrome","134.0.0.0","Windows","10.0","https://hz8g1ckzuq.cognition.run/","en-US,en;q=0.9","m97fuw721meks3f","","52","[""White""]","No","Male","1257514.2999999523","1230","","","{""product_choice"":""A""}","choice","dct","attraction_2","1","washing machines","null","null","null","null","null","null","1","60","50","60","50","60","40","Average lifespan","Energy savings","","",""
"","","","","","choice_trial_setup","html-keyboard-response","104","1162672","0.0-5.0-0.10","3","1","2025-04-10 18:09:54","7bd189e8e4882776c700e1dae255cdf5","","Mozilla/5.0 (Windows NT 10.0; Win64; x64) AppleWebKit/537.36 (KHTML, like Gecko) Chrome/134.0.0.0 Safari/537.36","WebKit","Chrome","134.0.0.0","Windows","10.0","https://hz8g1ckzuq.cognition.run/","en-US,en;q=0.9","m97fuw721meks3f","","52","[""White""]","No","Male","1257514.2999999523","null","","<p></p>","null","choice","dct","attraction_1","1","washing machines","null","null","null","null","null","null","1","","","","","","","","","","",""
"","","","","","choice_trial","survey-html-form","105","1163734","0.0-5.0-1.10","3","1","2025-04-10 18:09:54","7bd189e8e4882776c700e1dae255cdf5","","Mozilla/5.0 (Windows NT 10.0; Win64; x64) AppleWebKit/537.36 (KHTML, like Gecko) Chrome/134.0.0.0 Safari/537.36","WebKit","Chrome","134.0.0.0","Windows","10.0","https://hz8g1ckzuq.cognition.run/","en-US,en;q=0.9","m97fuw721meks3f","","52","[""White""]","No","Male","1257514.2999999523","1052","","","{""product_choice"":""A""}","choice","dct","attraction_1","1","washing machines","null","null","null","null","null","null","1","60","50","60","50","60","45","Average lifespan","Energy savings","","",""
"","","","","","choice_trial_setup","html-keyboard-response","106","1164045","0.0-5.0-0.11","3","1","2025-04-10 18:09:54","7bd189e8e4882776c700e1dae255cdf5","","Mozilla/5.0 (Windows NT 10.0; Win64; x64) AppleWebKit/537.36 (KHTML, like Gecko) Chrome/134.0.0.0 Safari/537.36","WebKit","Chrome","134.0.0.0","Windows","10.0","https://hz8g1ckzuq.cognition.run/","en-US,en;q=0.9","m97fuw721meks3f","","52","[""White""]","No","Male","1257514.2999999523","null","","<p></p>","null","choice","wwb","catch","null","washing machines","55","65","25","20","20","10","2","","","","","","","","","","",""
"","","","","","choice_trial","survey-html-form","107","1166313","0.0-5.0-1.11","3","1","2025-04-10 18:09:54","7bd189e8e4882776c700e1dae255cdf5","","Mozilla/5.0 (Windows NT 10.0; Win64; x64) AppleWebKit/537.36 (KHTML, like Gecko) Chrome/134.0.0.0 Safari/537.36","WebKit","Chrome","134.0.0.0","Windows","10.0","https://hz8g1ckzuq.cognition.run/","en-US,en;q=0.9","m97fuw721meks3f","","52","[""White""]","No","Male","1257514.2999999523","2259","","","{""product_choice"":""B""}","choice","wwb","catch","null","washing machines","55","65","25","20","20","10","2","null","null","null","null","null","null","Average lifespan","Energy savings","","",""
"","","","","","choice_trial_setup","html-keyboard-response","108","1166619","0.0-5.0-0.12","3","1","2025-04-10 18:09:54","7bd189e8e4882776c700e1dae255cdf5","","Mozilla/5.0 (Windows NT 10.0; Win64; x64) AppleWebKit/537.36 (KHTML, like Gecko) Chrome/134.0.0.0 Safari/537.36","WebKit","Chrome","134.0.0.0","Windows","10.0","https://hz8g1ckzuq.cognition.run/","en-US,en;q=0.9","m97fuw721meks3f","","52","[""White""]","No","Male","1257514.2999999523","null","","<p></p>","null","choice","tcd","attraction_2","2","televisions","null","null","null","null","null","null","2","","","","","","","","","","",""
"","","","","","choice_trial","survey-html-form","109","1167545","0.0-5.0-1.12","3","1","2025-04-10 18:09:54","7bd189e8e4882776c700e1dae255cdf5","","Mozilla/5.0 (Windows NT 10.0; Win64; x64) AppleWebKit/537.36 (KHTML, like Gecko) Chrome/134.0.0.0 Safari/537.36","WebKit","Chrome","134.0.0.0","Windows","10.0","https://hz8g1ckzuq.cognition.run/","en-US,en;q=0.9","m97fuw721meks3f","","52","[""White""]","No","Male","1257514.2999999523","915","","","{""product_choice"":""A""}","choice","tcd","attraction_2","2","televisions","null","null","null","null","null","null","2","50","60","40","60","50","60","Screen size","Average lifespan","","",""
"","","","","","choice_trial_setup","html-keyboard-response","110","1167851","0.0-5.0-0.13","3","1","2025-04-10 18:09:54","7bd189e8e4882776c700e1dae255cdf5","","Mozilla/5.0 (Windows NT 10.0; Win64; x64) AppleWebKit/537.36 (KHTML, like Gecko) Chrome/134.0.0.0 Safari/537.36","WebKit","Chrome","134.0.0.0","Windows","10.0","https://hz8g1ckzuq.cognition.run/","en-US,en;q=0.9","m97fuw721meks3f","","52","[""White""]","No","Male","1257514.2999999523","null","","<p></p>","null","choice","dct","repulsion_1","1","microwave ovens","null","null","null","null","null","null","2","","","","","","","","","","",""
"","","","","","choice_trial","survey-html-form","111","1168685","0.0-5.0-1.13","3","1","2025-04-10 18:09:54","7bd189e8e4882776c700e1dae255cdf5","","Mozilla/5.0 (Windows NT 10.0; Win64; x64) AppleWebKit/537.36 (KHTML, like Gecko) Chrome/134.0.0.0 Safari/537.36","WebKit","Chrome","134.0.0.0","Windows","10.0","https://hz8g1ckzuq.cognition.run/","en-US,en;q=0.9","m97fuw721meks3f","","52","[""White""]","No","Male","1257514.2999999523","826","","","{""product_choice"":""A""}","choice","dct","repulsion_1","1","microwave ovens","null","null","null","null","null","null","2","100","90","100","30","40","25","Warranty","Cooking power","","",""
"","","","","","choice_trial_setup","html-keyboard-response","112","1168995","0.0-5.0-0.14","3","1","2025-04-10 18:09:54","7bd189e8e4882776c700e1dae255cdf5","","Mozilla/5.0 (Windows NT 10.0; Win64; x64) AppleWebKit/537.36 (KHTML, like Gecko) Chrome/134.0.0.0 Safari/537.36","WebKit","Chrome","134.0.0.0","Windows","10.0","https://hz8g1ckzuq.cognition.run/","en-US,en;q=0.9","m97fuw721meks3f","","52","[""White""]","No","Male","1257514.2999999523","null","","<p></p>","null","choice","ctd","repulsion_2","1","washing machines","null","null","null","null","null","null","1","","","","","","","","","","",""
"","","","","","choice_trial","survey-html-form","113","1169879","0.0-5.0-1.14","3","1","2025-04-10 18:09:54","7bd189e8e4882776c700e1dae255cdf5","","Mozilla/5.0 (Windows NT 10.0; Win64; x64) AppleWebKit/537.36 (KHTML, like Gecko) Chrome/134.0.0.0 Safari/537.36","WebKit","Chrome","134.0.0.0","Windows","10.0","https://hz8g1ckzuq.cognition.run/","en-US,en;q=0.9","m97fuw721meks3f","","52","[""White""]","No","Male","1257514.2999999523","873","","","{""product_choice"":""A""}","choice","ctd","repulsion_2","1","washing machines","null","null","null","null","null","null","1","100","90","100","30","40","20","Average lifespan","Energy savings","","",""
"","","","","","choice_trial_setup","html-keyboard-response","114","1170189","0.0-5.0-0.15","3","1","2025-04-10 18:09:54","7bd189e8e4882776c700e1dae255cdf5","","Mozilla/5.0 (Windows NT 10.0; Win64; x64) AppleWebKit/537.36 (KHTML, like Gecko) Chrome/134.0.0.0 Safari/537.36","WebKit","Chrome","134.0.0.0","Windows","10.0","https://hz8g1ckzuq.cognition.run/","en-US,en;q=0.9","m97fuw721meks3f","","52","[""White""]","No","Male","1257514.2999999523","null","","<p></p>","null","choice","cdt","attraction_2","1","televisions","null","null","null","null","null","null","2","","","","","","","","","","",""
"","","","","","choice_trial","survey-html-form","115","1171160","0.0-5.0-1.15","3","1","2025-04-10 18:09:54","7bd189e8e4882776c700e1dae255cdf5","","Mozilla/5.0 (Windows NT 10.0; Win64; x64) AppleWebKit/537.36 (KHTML, like Gecko) Chrome/134.0.0.0 Safari/537.36","WebKit","Chrome","134.0.0.0","Windows","10.0","https://hz8g1ckzuq.cognition.run/","en-US,en;q=0.9","m97fuw721meks3f","","52","[""White""]","No","Male","1257514.2999999523","960","","","{""product_choice"":""B""}","choice","cdt","attraction_2","1","televisions","null","null","null","null","null","null","2","60","50","60","50","60","40","Screen size","Average lifespan","","",""
"","","","","","choice_trial_setup","html-keyboard-response","116","1171473","0.0-5.0-0.16","3","1","2025-04-10 18:09:54","7bd189e8e4882776c700e1dae255cdf5","","Mozilla/5.0 (Windows NT 10.0; Win64; x64) AppleWebKit/537.36 (KHTML, like Gecko) Chrome/134.0.0.0 Safari/537.36","WebKit","Chrome","134.0.0.0","Windows","10.0","https://hz8g1ckzuq.cognition.run/","en-US,en;q=0.9","m97fuw721meks3f","","52","[""White""]","No","Male","1257514.2999999523","null","","<p></p>","null","choice","cdt","attraction_2","2","laptops","null","null","null","null","null","null","2","","","","","","","","","","",""
"","","","","","choice_trial","survey-html-form","117","1172498","0.0-5.0-1.16","3","1","2025-04-10 18:09:54","7bd189e8e4882776c700e1dae255cdf5","","Mozilla/5.0 (Windows NT 10.0; Win64; x64) AppleWebKit/537.36 (KHTML, like Gecko) Chrome/134.0.0.0 Safari/537.36","WebKit","Chrome","134.0.0.0","Windows","10.0","https://hz8g1ckzuq.cognition.run/","en-US,en;q=0.9","m97fuw721meks3f","","52","[""White""]","No","Male","1257514.2999999523","1014","","","{""product_choice"":""A""}","choice","cdt","attraction_2","2","laptops","null","null","null","null","null","null","2","50","60","40","60","50","60","Processing speed","Memory (RAM)","","",""
"","","","","","choice_trial_setup","html-keyboard-response","118","1172808","0.0-5.0-0.17","3","1","2025-04-10 18:09:54","7bd189e8e4882776c700e1dae255cdf5","","Mozilla/5.0 (Windows NT 10.0; Win64; x64) AppleWebKit/537.36 (KHTML, like Gecko) Chrome/134.0.0.0 Safari/537.36","WebKit","Chrome","134.0.0.0","Windows","10.0","https://hz8g1ckzuq.cognition.run/","en-US,en;q=0.9","m97fuw721meks3f","","52","[""White""]","No","Male","1257514.2999999523","null","","<p></p>","null","choice","dct","repulsion_2","2","laptops","null","null","null","null","null","null","1","","","","","","","","","","",""
"","","","","","choice_trial","survey-html-form","119","1174049","0.0-5.0-1.17","3","1","2025-04-10 18:09:54","7bd189e8e4882776c700e1dae255cdf5","","Mozilla/5.0 (Windows NT 10.0; Win64; x64) AppleWebKit/537.36 (KHTML, like Gecko) Chrome/134.0.0.0 Safari/537.36","WebKit","Chrome","134.0.0.0","Windows","10.0","https://hz8g1ckzuq.cognition.run/","en-US,en;q=0.9","m97fuw721meks3f","","52","[""White""]","No","Male","1257514.2999999523","1228","","","{""product_choice"":""B""}","choice","dct","repulsion_2","2","laptops","null","null","null","null","null","null","1","30","40","20","100","90","100","Processing speed","Memory (RAM)","","",""
"","","","","","choice_trial_setup","html-keyboard-response","120","1174355","0.0-5.0-0.18","3","1","2025-04-10 18:09:54","7bd189e8e4882776c700e1dae255cdf5","","Mozilla/5.0 (Windows NT 10.0; Win64; x64) AppleWebKit/537.36 (KHTML, like Gecko) Chrome/134.0.0.0 Safari/537.36","WebKit","Chrome","134.0.0.0","Windows","10.0","https://hz8g1ckzuq.cognition.run/","en-US,en;q=0.9","m97fuw721meks3f","","52","[""White""]","No","Male","1257514.2999999523","null","","<p></p>","null","choice","ctd","attraction_2","1","microwave ovens","null","null","null","null","null","null","2","","","","","","","","","","",""
"","","","","","choice_trial","survey-html-form","121","1176656","0.0-5.0-1.18","3","1","2025-04-10 18:09:54","7bd189e8e4882776c700e1dae255cdf5","","Mozilla/5.0 (Windows NT 10.0; Win64; x64) AppleWebKit/537.36 (KHTML, like Gecko) Chrome/134.0.0.0 Safari/537.36","WebKit","Chrome","134.0.0.0","Windows","10.0","https://hz8g1ckzuq.cognition.run/","en-US,en;q=0.9","m97fuw721meks3f","","52","[""White""]","No","Male","1257514.2999999523","2289","","","{""product_choice"":""A""}","choice","ctd","attraction_2","1","microwave ovens","null","null","null","null","null","null","2","60","50","60","50","60","40","Warranty","Cooking power","","",""
"","","","","","choice_trial_setup","html-keyboard-response","122","1176967","0.0-5.0-0.19","3","1","2025-04-10 18:09:54","7bd189e8e4882776c700e1dae255cdf5","","Mozilla/5.0 (Windows NT 10.0; Win64; x64) AppleWebKit/537.36 (KHTML, like Gecko) Chrome/134.0.0.0 Safari/537.36","WebKit","Chrome","134.0.0.0","Windows","10.0","https://hz8g1ckzuq.cognition.run/","en-US,en;q=0.9","m97fuw721meks3f","","52","[""White""]","No","Male","1257514.2999999523","null","","<p></p>","null","choice","ctd","repulsion_2","2","televisions","null","null","null","null","null","null","1","","","","","","","","","","",""
"","","","","","choice_trial","survey-html-form","123","1178007","0.0-5.0-1.19","3","1","2025-04-10 18:09:54","7bd189e8e4882776c700e1dae255cdf5","","Mozilla/5.0 (Windows NT 10.0; Win64; x64) AppleWebKit/537.36 (KHTML, like Gecko) Chrome/134.0.0.0 Safari/537.36","WebKit","Chrome","134.0.0.0","Windows","10.0","https://hz8g1ckzuq.cognition.run/","en-US,en;q=0.9","m97fuw721meks3f","","52","[""White""]","No","Male","1257514.2999999523","1027","","","{""product_choice"":""A""}","choice","ctd","repulsion_2","2","televisions","null","null","null","null","null","null","1","30","40","20","100","90","100","Screen size","Average lifespan","","",""
"","","","","","choice_trial_setup","html-keyboard-response","124","1178317","0.0-5.0-0.20","3","1","2025-04-10 18:09:54","7bd189e8e4882776c700e1dae255cdf5","","Mozilla/5.0 (Windows NT 10.0; Win64; x64) AppleWebKit/537.36 (KHTML, like Gecko) Chrome/134.0.0.0 Safari/537.36","WebKit","Chrome","134.0.0.0","Windows","10.0","https://hz8g1ckzuq.cognition.run/","en-US,en;q=0.9","m97fuw721meks3f","","52","[""White""]","No","Male","1257514.2999999523","null","","<p></p>","null","choice","ctd","attraction_2","2","microwave ovens","null","null","null","null","null","null","2","","","","","","","","","","",""
"","","","","","choice_trial","survey-html-form","125","1179353","0.0-5.0-1.20","3","1","2025-04-10 18:09:54","7bd189e8e4882776c700e1dae255cdf5","","Mozilla/5.0 (Windows NT 10.0; Win64; x64) AppleWebKit/537.36 (KHTML, like Gecko) Chrome/134.0.0.0 Safari/537.36","WebKit","Chrome","134.0.0.0","Windows","10.0","https://hz8g1ckzuq.cognition.run/","en-US,en;q=0.9","m97fuw721meks3f","","52","[""White""]","No","Male","1257514.2999999523","1021","","","{""product_choice"":""A""}","choice","ctd","attraction_2","2","microwave ovens","null","null","null","null","null","null","2","50","60","40","60","50","60","Warranty","Cooking power","","",""
"","","","","","choice_trial_setup","html-keyboard-response","126","1179659","0.0-5.0-0.21","3","1","2025-04-10 18:09:54","7bd189e8e4882776c700e1dae255cdf5","","Mozilla/5.0 (Windows NT 10.0; Win64; x64) AppleWebKit/537.36 (KHTML, like Gecko) Chrome/134.0.0.0 Safari/537.36","WebKit","Chrome","134.0.0.0","Windows","10.0","https://hz8g1ckzuq.cognition.run/","en-US,en;q=0.9","m97fuw721meks3f","","52","[""White""]","No","Male","1257514.2999999523","null","","<p></p>","null","choice","ctd","repulsion_1","2","laptops","null","null","null","null","null","null","2","","","","","","","","","","",""
"","","","","","choice_trial","survey-html-form","127","1181642","0.0-5.0-1.21","3","1","2025-04-10 18:09:54","7bd189e8e4882776c700e1dae255cdf5","","Mozilla/5.0 (Windows NT 10.0; Win64; x64) AppleWebKit/537.36 (KHTML, like Gecko) Chrome/134.0.0.0 Safari/537.36","WebKit","Chrome","134.0.0.0","Windows","10.0","https://hz8g1ckzuq.cognition.run/","en-US,en;q=0.9","m97fuw721meks3f","","52","[""White""]","No","Male","1257514.2999999523","1971","","","{""product_choice"":""B""}","choice","ctd","repulsion_1","2","laptops","null","null","null","null","null","null","2","30","40","25","100","90","100","Processing speed","Memory (RAM)","","",""
"","","","","","choice_trial_setup","html-keyboard-response","128","1181949","0.0-5.0-0.22","3","1","2025-04-10 18:09:54","7bd189e8e4882776c700e1dae255cdf5","","Mozilla/5.0 (Windows NT 10.0; Win64; x64) AppleWebKit/537.36 (KHTML, like Gecko) Chrome/134.0.0.0 Safari/537.36","WebKit","Chrome","134.0.0.0","Windows","10.0","https://hz8g1ckzuq.cognition.run/","en-US,en;q=0.9","m97fuw721meks3f","","52","[""White""]","No","Male","1257514.2999999523","null","","<p></p>","null","choice","tcd","attraction_1","2","televisions","null","null","null","null","null","null","1","","","","","","","","","","",""
"","","","","","choice_trial","survey-html-form","129","1182896","0.0-5.0-1.22","3","1","2025-04-10 18:09:54","7bd189e8e4882776c700e1dae255cdf5","","Mozilla/5.0 (Windows NT 10.0; Win64; x64) AppleWebKit/537.36 (KHTML, like Gecko) Chrome/134.0.0.0 Safari/537.36","WebKit","Chrome","134.0.0.0","Windows","10.0","https://hz8g1ckzuq.cognition.run/","en-US,en;q=0.9","m97fuw721meks3f","","52","[""White""]","No","Male","1257514.2999999523","934","","","{""product_choice"":""B""}","choice","tcd","attraction_1","2","televisions","null","null","null","null","null","null","1","50","60","45","60","50","60","Screen size","Average lifespan","","",""
"","","","","","choice_trial_setup","html-keyboard-response","130","1183209","0.0-5.0-0.23","3","1","2025-04-10 18:09:54","7bd189e8e4882776c700e1dae255cdf5","","Mozilla/5.0 (Windows NT 10.0; Win64; x64) AppleWebKit/537.36 (KHTML, like Gecko) Chrome/134.0.0.0 Safari/537.36","WebKit","Chrome","134.0.0.0","Windows","10.0","https://hz8g1ckzuq.cognition.run/","en-US,en;q=0.9","m97fuw721meks3f","","52","[""White""]","No","Male","1257514.2999999523","null","","<p></p>","null","choice","dtc","attraction_1","1","laptops","null","null","null","null","null","null","2","","","","","","","","","","",""
"","","","","","choice_trial","survey-html-form","131","1184648","0.0-5.0-1.23","3","1","2025-04-10 18:09:54","7bd189e8e4882776c700e1dae255cdf5","","Mozilla/5.0 (Windows NT 10.0; Win64; x64) AppleWebKit/537.36 (KHTML, like Gecko) Chrome/134.0.0.0 Safari/537.36","WebKit","Chrome","134.0.0.0","Windows","10.0","https://hz8g1ckzuq.cognition.run/","en-US,en;q=0.9","m97fuw721meks3f","","52","[""White""]","No","Male","1257514.2999999523","1426","","","{""product_choice"":""B""}","choice","dtc","attraction_1","1","laptops","null","null","null","null","null","null","2","60","50","60","50","60","45","Processing speed","Memory (RAM)","","",""
"","","","","","choice_trial_setup","html-keyboard-response","132","1184960","0.0-5.0-0.24","3","1","2025-04-10 18:09:54","7bd189e8e4882776c700e1dae255cdf5","","Mozilla/5.0 (Windows NT 10.0; Win64; x64) AppleWebKit/537.36 (KHTML, like Gecko) Chrome/134.0.0.0 Safari/537.36","WebKit","Chrome","134.0.0.0","Windows","10.0","https://hz8g1ckzuq.cognition.run/","en-US,en;q=0.9","m97fuw721meks3f","","52","[""White""]","No","Male","1257514.2999999523","null","","<p></p>","null","choice","bww","catch","null","televisions","75","95","10","15","10","5","2","","","","","","","","","","",""
"","","","","","choice_trial","survey-html-form","133","1186411","0.0-5.0-1.24","3","1","2025-04-10 18:09:54","7bd189e8e4882776c700e1dae255cdf5","","Mozilla/5.0 (Windows NT 10.0; Win64; x64) AppleWebKit/537.36 (KHTML, like Gecko) Chrome/134.0.0.0 Safari/537.36","WebKit","Chrome","134.0.0.0","Windows","10.0","https://hz8g1ckzuq.cognition.run/","en-US,en;q=0.9","m97fuw721meks3f","","52","[""White""]","No","Male","1257514.2999999523","1438","","","{""product_choice"":""A""}","choice","bww","catch","null","televisions","75","95","10","15","10","5","2","null","null","null","null","null","null","Screen size","Average lifespan","","",""
"","","","","","choice_trial_setup","html-keyboard-response","134","1186717","0.0-5.0-0.25","3","1","2025-04-10 18:09:54","7bd189e8e4882776c700e1dae255cdf5","","Mozilla/5.0 (Windows NT 10.0; Win64; x64) AppleWebKit/537.36 (KHTML, like Gecko) Chrome/134.0.0.0 Safari/537.36","WebKit","Chrome","134.0.0.0","Windows","10.0","https://hz8g1ckzuq.cognition.run/","en-US,en;q=0.9","m97fuw721meks3f","","52","[""White""]","No","Male","1257514.2999999523","null","","<p></p>","null","choice","dtc","repulsion_2","1","laptops","null","null","null","null","null","null","2","","","","","","","","","","",""
"","","","","","choice_trial","survey-html-form","135","1187961","0.0-5.0-1.25","3","1","2025-04-10 18:09:54","7bd189e8e4882776c700e1dae255cdf5","","Mozilla/5.0 (Windows NT 10.0; Win64; x64) AppleWebKit/537.36 (KHTML, like Gecko) Chrome/134.0.0.0 Safari/537.36","WebKit","Chrome","134.0.0.0","Windows","10.0","https://hz8g1ckzuq.cognition.run/","en-US,en;q=0.9","m97fuw721meks3f","","52","[""White""]","No","Male","1257514.2999999523","1232","","","{""product_choice"":""A""}","choice","dtc","repulsion_2","1","laptops","null","null","null","null","null","null","2","100","90","100","30","40","20","Processing speed","Memory (RAM)","","",""
"","","","","","choice_trial_setup","html-keyboard-response","136","1188269","0.0-5.0-0.26","3","1","2025-04-10 18:09:54","7bd189e8e4882776c700e1dae255cdf5","","Mozilla/5.0 (Windows NT 10.0; Win64; x64) AppleWebKit/537.36 (KHTML, like Gecko) Chrome/134.0.0.0 Safari/537.36","WebKit","Chrome","134.0.0.0","Windows","10.0","https://hz8g1ckzuq.cognition.run/","en-US,en;q=0.9","m97fuw721meks3f","","52","[""White""]","No","Male","1257514.2999999523","null","","<p></p>","null","choice","dct","repulsion_1","1","washing machines","null","null","null","null","null","null","1","","","","","","","","","","",""
"","","","","","choice_trial","survey-html-form","137","1191519","0.0-5.0-1.26","3","1","2025-04-10 18:09:54","7bd189e8e4882776c700e1dae255cdf5","","Mozilla/5.0 (Windows NT 10.0; Win64; x64) AppleWebKit/537.36 (KHTML, like Gecko) Chrome/134.0.0.0 Safari/537.36","WebKit","Chrome","134.0.0.0","Windows","10.0","https://hz8g1ckzuq.cognition.run/","en-US,en;q=0.9","m97fuw721meks3f","","52","[""White""]","No","Male","1257514.2999999523","3237","","","{""product_choice"":""A""}","choice","dct","repulsion_1","1","washing machines","null","null","null","null","null","null","1","100","90","100","30","40","25","Average lifespan","Energy savings","","",""
"","","","","","choice_trial_setup","html-keyboard-response","138","1191833","0.0-5.0-0.27","3","1","2025-04-10 18:09:54","7bd189e8e4882776c700e1dae255cdf5","","Mozilla/5.0 (Windows NT 10.0; Win64; x64) AppleWebKit/537.36 (KHTML, like Gecko) Chrome/134.0.0.0 Safari/537.36","WebKit","Chrome","134.0.0.0","Windows","10.0","https://hz8g1ckzuq.cognition.run/","en-US,en;q=0.9","m97fuw721meks3f","","52","[""White""]","No","Male","1257514.2999999523","null","","<p></p>","null","choice","tdc","attraction_1","2","washing machines","null","null","null","null","null","null","2","","","","","","","","","","",""
"","","","","","choice_trial","survey-html-form","139","1192818","0.0-5.0-1.27","3","1","2025-04-10 18:09:54","7bd189e8e4882776c700e1dae255cdf5","","Mozilla/5.0 (Windows NT 10.0; Win64; x64) AppleWebKit/537.36 (KHTML, like Gecko) Chrome/134.0.0.0 Safari/537.36","WebKit","Chrome","134.0.0.0","Windows","10.0","https://hz8g1ckzuq.cognition.run/","en-US,en;q=0.9","m97fuw721meks3f","","52","[""White""]","No","Male","1257514.2999999523","976","","","{""product_choice"":""A""}","choice","tdc","attraction_1","2","washing machines","null","null","null","null","null","null","2","50","60","45","60","50","60","Average lifespan","Energy savings","","",""
"","","","","","choice_trial_setup","html-keyboard-response","140","1193129","0.0-5.0-0.28","3","1","2025-04-10 18:09:54","7bd189e8e4882776c700e1dae255cdf5","","Mozilla/5.0 (Windows NT 10.0; Win64; x64) AppleWebKit/537.36 (KHTML, like Gecko) Chrome/134.0.0.0 Safari/537.36","WebKit","Chrome","134.0.0.0","Windows","10.0","https://hz8g1ckzuq.cognition.run/","en-US,en;q=0.9","m97fuw721meks3f","","52","[""White""]","No","Male","1257514.2999999523","null","","<p></p>","null","choice","ctd","attraction_1","1","televisions","null","null","null","null","null","null","2","","","","","","","","","","",""
"","","","","","choice_trial","survey-html-form","141","1194325","0.0-5.0-1.28","3","1","2025-04-10 18:09:54","7bd189e8e4882776c700e1dae255cdf5","","Mozilla/5.0 (Windows NT 10.0; Win64; x64) AppleWebKit/537.36 (KHTML, like Gecko) Chrome/134.0.0.0 Safari/537.36","WebKit","Chrome","134.0.0.0","Windows","10.0","https://hz8g1ckzuq.cognition.run/","en-US,en;q=0.9","m97fuw721meks3f","","52","[""White""]","No","Male","1257514.2999999523","1182","","","{""product_choice"":""A""}","choice","ctd","attraction_1","1","televisions","null","null","null","null","null","null","2","60","50","60","50","60","45","Screen size","Average lifespan","","",""
"","","","","","choice_trial_setup","html-keyboard-response","142","1194639","0.0-5.0-0.29","3","1","2025-04-10 18:09:54","7bd189e8e4882776c700e1dae255cdf5","","Mozilla/5.0 (Windows NT 10.0; Win64; x64) AppleWebKit/537.36 (KHTML, like Gecko) Chrome/134.0.0.0 Safari/537.36","WebKit","Chrome","134.0.0.0","Windows","10.0","https://hz8g1ckzuq.cognition.run/","en-US,en;q=0.9","m97fuw721meks3f","","52","[""White""]","No","Male","1257514.2999999523","null","","<p></p>","null","choice","dtc","repulsion_2","1","microwave ovens","null","null","null","null","null","null","2","","","","","","","","","","",""
"","","","","","choice_trial","survey-html-form","143","1195819","0.0-5.0-1.29","3","1","2025-04-10 18:09:54","7bd189e8e4882776c700e1dae255cdf5","","Mozilla/5.0 (Windows NT 10.0; Win64; x64) AppleWebKit/537.36 (KHTML, like Gecko) Chrome/134.0.0.0 Safari/537.36","WebKit","Chrome","134.0.0.0","Windows","10.0","https://hz8g1ckzuq.cognition.run/","en-US,en;q=0.9","m97fuw721meks3f","","52","[""White""]","No","Male","1257514.2999999523","1167","","","{""product_choice"":""B""}","choice","dtc","repulsion_2","1","microwave ovens","null","null","null","null","null","null","2","100","90","100","30","40","20","Warranty","Cooking power","","",""
"","","","","","choice_trial_setup","html-keyboard-response","144","1196132","0.0-5.0-0.30","3","1","2025-04-10 18:09:54","7bd189e8e4882776c700e1dae255cdf5","","Mozilla/5.0 (Windows NT 10.0; Win64; x64) AppleWebKit/537.36 (KHTML, like Gecko) Chrome/134.0.0.0 Safari/537.36","WebKit","Chrome","134.0.0.0","Windows","10.0","https://hz8g1ckzuq.cognition.run/","en-US,en;q=0.9","m97fuw721meks3f","","52","[""White""]","No","Male","1257514.2999999523","null","","<p></p>","null","choice","wbw","catch","null","microwave ovens","70","85","10","15","15","15","1","","","","","","","","","","",""
"","","","","","choice_trial","survey-html-form","145","1197001","0.0-5.0-1.30","3","1","2025-04-10 18:09:54","7bd189e8e4882776c700e1dae255cdf5","","Mozilla/5.0 (Windows NT 10.0; Win64; x64) AppleWebKit/537.36 (KHTML, like Gecko) Chrome/134.0.0.0 Safari/537.36","WebKit","Chrome","134.0.0.0","Windows","10.0","https://hz8g1ckzuq.cognition.run/","en-US,en;q=0.9","m97fuw721meks3f","","52","[""White""]","No","Male","1257514.2999999523","855","","","{""product_choice"":""B""}","choice","wbw","catch","null","microwave ovens","70","85","10","15","15","15","1","null","null","null","null","null","null","Warranty","Cooking power","","",""
"","","","","","choice_trial_setup","html-keyboard-response","146","1197306","0.0-5.0-0.31","3","1","2025-04-10 18:09:54","7bd189e8e4882776c700e1dae255cdf5","","Mozilla/5.0 (Windows NT 10.0; Win64; x64) AppleWebKit/537.36 (KHTML, like Gecko) Chrome/134.0.0.0 Safari/537.36","WebKit","Chrome","134.0.0.0","Windows","10.0","https://hz8g1ckzuq.cognition.run/","en-US,en;q=0.9","m97fuw721meks3f","","52","[""White""]","No","Male","1257514.2999999523","null","","<p></p>","null","choice","wbw","catch","null","televisions","85","90","50","45","30","5","2","","","","","","","","","","",""
"","","","","","choice_trial","survey-html-form","147","1198186","0.0-5.0-1.31","3","1","2025-04-10 18:09:54","7bd189e8e4882776c700e1dae255cdf5","","Mozilla/5.0 (Windows NT 10.0; Win64; x64) AppleWebKit/537.36 (KHTML, like Gecko) Chrome/134.0.0.0 Safari/537.36","WebKit","Chrome","134.0.0.0","Windows","10.0","https://hz8g1ckzuq.cognition.run/","en-US,en;q=0.9","m97fuw721meks3f","","52","[""White""]","No","Male","1257514.2999999523","871","","","{""product_choice"":""B""}","choice","wbw","catch","null","televisions","85","90","50","45","30","5","2","null","null","null","null","null","null","Screen size","Average lifespan","","",""
"","","","","","choice_trial_setup","html-keyboard-response","148","1198497","0.0-5.0-0.32","3","1","2025-04-10 18:09:54","7bd189e8e4882776c700e1dae255cdf5","","Mozilla/5.0 (Windows NT 10.0; Win64; x64) AppleWebKit/537.36 (KHTML, like Gecko) Chrome/134.0.0.0 Safari/537.36","WebKit","Chrome","134.0.0.0","Windows","10.0","https://hz8g1ckzuq.cognition.run/","en-US,en;q=0.9","m97fuw721meks3f","","52","[""White""]","No","Male","1257514.2999999523","null","","<p></p>","null","choice","dct","repulsion_1","2","washing machines","null","null","null","null","null","null","1","","","","","","","","","","",""
"","","","","","choice_trial","survey-html-form","149","1199557","0.0-5.0-1.32","3","1","2025-04-10 18:09:54","7bd189e8e4882776c700e1dae255cdf5","","Mozilla/5.0 (Windows NT 10.0; Win64; x64) AppleWebKit/537.36 (KHTML, like Gecko) Chrome/134.0.0.0 Safari/537.36","WebKit","Chrome","134.0.0.0","Windows","10.0","https://hz8g1ckzuq.cognition.run/","en-US,en;q=0.9","m97fuw721meks3f","","52","[""White""]","No","Male","1257514.2999999523","1048","","","{""product_choice"":""B""}","choice","dct","repulsion_1","2","washing machines","null","null","null","null","null","null","1","30","40","25","100","90","100","Average lifespan","Energy savings","","",""
"","","","","","choice_trial_setup","html-keyboard-response","150","1199867","0.0-5.0-0.33","3","1","2025-04-10 18:09:54","7bd189e8e4882776c700e1dae255cdf5","","Mozilla/5.0 (Windows NT 10.0; Win64; x64) AppleWebKit/537.36 (KHTML, like Gecko) Chrome/134.0.0.0 Safari/537.36","WebKit","Chrome","134.0.0.0","Windows","10.0","https://hz8g1ckzuq.cognition.run/","en-US,en;q=0.9","m97fuw721meks3f","","52","[""White""]","No","Male","1257514.2999999523","null","","<p></p>","null","choice","dct","attraction_2","1","laptops","null","null","null","null","null","null","1","","","","","","","","","","",""
"","","","","","choice_trial","survey-html-form","151","1201050","0.0-5.0-1.33","3","1","2025-04-10 18:09:54","7bd189e8e4882776c700e1dae255cdf5","","Mozilla/5.0 (Windows NT 10.0; Win64; x64) AppleWebKit/537.36 (KHTML, like Gecko) Chrome/134.0.0.0 Safari/537.36","WebKit","Chrome","134.0.0.0","Windows","10.0","https://hz8g1ckzuq.cognition.run/","en-US,en;q=0.9","m97fuw721meks3f","","52","[""White""]","No","Male","1257514.2999999523","1168","","","{""product_choice"":""B""}","choice","dct","attraction_2","1","laptops","null","null","null","null","null","null","1","60","50","60","50","60","40","Processing speed","Memory (RAM)","","",""
"","","","","","choice_trial_setup","html-keyboard-response","152","1201362","0.0-5.0-0.34","3","1","2025-04-10 18:09:54","7bd189e8e4882776c700e1dae255cdf5","","Mozilla/5.0 (Windows NT 10.0; Win64; x64) AppleWebKit/537.36 (KHTML, like Gecko) Chrome/134.0.0.0 Safari/537.36","WebKit","Chrome","134.0.0.0","Windows","10.0","https://hz8g1ckzuq.cognition.run/","en-US,en;q=0.9","m97fuw721meks3f","","52","[""White""]","No","Male","1257514.2999999523","null","","<p></p>","null","choice","cdt","repulsion_1","2","televisions","null","null","null","null","null","null","2","","","","","","","","","","",""
"","","","","","choice_trial","survey-html-form","153","1202280","0.0-5.0-1.34","3","1","2025-04-10 18:09:54","7bd189e8e4882776c700e1dae255cdf5","","Mozilla/5.0 (Windows NT 10.0; Win64; x64) AppleWebKit/537.36 (KHTML, like Gecko) Chrome/134.0.0.0 Safari/537.36","WebKit","Chrome","134.0.0.0","Windows","10.0","https://hz8g1ckzuq.cognition.run/","en-US,en;q=0.9","m97fuw721meks3f","","52","[""White""]","No","Male","1257514.2999999523","910","","","{""product_choice"":""C""}","choice","cdt","repulsion_1","2","televisions","null","null","null","null","null","null","2","30","40","25","100","90","100","Screen size","Average lifespan","","",""
"","","","","","choice_trial_setup","html-keyboard-response","154","1202587","0.0-5.0-0.35","3","1","2025-04-10 18:09:54","7bd189e8e4882776c700e1dae255cdf5","","Mozilla/5.0 (Windows NT 10.0; Win64; x64) AppleWebKit/537.36 (KHTML, like Gecko) Chrome/134.0.0.0 Safari/537.36","WebKit","Chrome","134.0.0.0","Windows","10.0","https://hz8g1ckzuq.cognition.run/","en-US,en;q=0.9","m97fuw721meks3f","","52","[""White""]","No","Male","1257514.2999999523","null","","<p></p>","null","choice","bww","catch","null","microwave ovens","60","85","20","45","30","40","1","","","","","","","","","","",""
"","","","","","choice_trial","survey-html-form","155","1204012","0.0-5.0-1.35","3","1","2025-04-10 18:09:54","7bd189e8e4882776c700e1dae255cdf5","","Mozilla/5.0 (Windows NT 10.0; Win64; x64) AppleWebKit/537.36 (KHTML, like Gecko) Chrome/134.0.0.0 Safari/537.36","WebKit","Chrome","134.0.0.0","Windows","10.0","https://hz8g1ckzuq.cognition.run/","en-US,en;q=0.9","m97fuw721meks3f","","52","[""White""]","No","Male","1257514.2999999523","1416","","","{""product_choice"":""B""}","choice","bww","catch","null","microwave ovens","60","85","20","45","30","40","1","null","null","null","null","null","null","Warranty","Cooking power","","",""
"","","","","","choice_trial_setup","html-keyboard-response","156","1204319","0.0-5.0-0.36","3","1","2025-04-10 18:09:54","7bd189e8e4882776c700e1dae255cdf5","","Mozilla/5.0 (Windows NT 10.0; Win64; x64) AppleWebKit/537.36 (KHTML, like Gecko) Chrome/134.0.0.0 Safari/537.36","WebKit","Chrome","134.0.0.0","Windows","10.0","https://hz8g1ckzuq.cognition.run/","en-US,en;q=0.9","m97fuw721meks3f","","52","[""White""]","No","Male","1257514.2999999523","null","","<p></p>","null","choice","dtc","attraction_2","2","washing machines","null","null","null","null","null","null","2","","","","","","","","","","",""
