"success","timeout","failed_images","failed_audio","failed_video","screen_id","trial_type","trial_index","time_elapsed","internal_node_id","run_id","condition","recorded_at","source_code_version","ip","user_agent","device","browser","browser_version","platform","platform_version","referer","accept_language","ppt_id","age","race","ethnicity","gender","exp_duration","rt","view_history","stimulus","response","phase","order","effect","t_high","category","d1_best","d2_best","d1_worst1","d2_worst1","d1_worst2","d2_worst2","first_dim","d1_t","d1_c","d1_d","d2_t","d2_c","d2_d","d1_name","d2_name","strategy_response","question_order"
"true","false","[]","[]","[]","img preload","preload","0","125","0.0-0.0","32","1","2025-04-11 14:06:06","bb671e3ae32f654b8954ea4c4635f915","","Mozilla/5.0 (Macintosh; Intel Mac OS X 10_15_7) AppleWebKit/605.1.15 (KHTML, like Gecko) Version/16.2 Safari/605.1.15","Macintosh","Safari","16.2","OS X","10_15_7","https://hz8g1ckzuq.cognition.run/","en-US,en;q=0.9","zfhwypnv1mwx9gy","37","[""White""]","No","Female","1170174","","","","","","","","","","","","","","","","","","","","","","","","","",""
"true","","","","","","fullscreen","1","3160","0.0-1.0","32","1","2025-04-11 14:06:06","bb671e3ae32f654b8954ea4c4635f915","","Mozilla/5.0 (Macintosh; Intel Mac OS X 10_15_7) AppleWebKit/605.1.15 (KHTML, like Gecko) Version/16.2 Safari/605.1.15","Macintosh","Safari","16.2","OS X","10_15_7","https://hz8g1ckzuq.cognition.run/","en-US,en;q=0.9","zfhwypnv1mwx9gy","37","[""White""]","No","Female","1170174","2033","","","","","","","","","","","","","","","","","","","","","","","","",""
"","","","","","","instructions","2","73126","0.0-2.0","32","1","2025-04-11 14:06:06","bb671e3ae32f654b8954ea4c4635f915","","Mozilla/5.0 (Macintosh; Intel Mac OS X 10_15_7) AppleWebKit/605.1.15 (KHTML, like Gecko) Version/16.2 Safari/605.1.15","Macintosh","Safari","16.2","OS X","10_15_7","https://hz8g1ckzuq.cognition.run/","en-US,en;q=0.9","zfhwypnv1mwx9gy","37","[""White""]","No","Female","1170174","69965","[{""page_index"":0,""viewing_time"":1046},{""page_index"":1,""viewing_time"":2683},{""page_index"":2,""viewing_time"":3720},{""page_index"":3,""viewing_time"":4297},{""page_index"":4,""viewing_time"":5404},{""page_index"":5,""viewing_time"":4697},{""page_index"":6,""viewing_time"":10632},{""page_index"":7,""viewing_time"":23501},{""page_index"":8,""viewing_time"":6184},{""page_index"":9,""viewing_time"":7800}]","","","","","","","","","","","","","","","","","","","","","","","",""
"","","","","","rating_trial_setup","html-keyboard-response","3","73433","0.0-3.0-0.0","32","1","2025-04-11 14:06:06","bb671e3ae32f654b8954ea4c4635f915","","Mozilla/5.0 (Macintosh; Intel Mac OS X 10_15_7) AppleWebKit/605.1.15 (KHTML, like Gecko) Version/16.2 Safari/605.1.15","Macintosh","Safari","16.2","OS X","10_15_7","https://hz8g1ckzuq.cognition.run/","en-US,en;q=0.9","zfhwypnv1mwx9gy","37","[""White""]","No","Female","1170174","null","","<p></p>","null","rating","dct","attraction_2","2","televisions","null","null","null","null","null","null","1","","","","","","","","","",""
"","","","","","rating_trial","survey-html-form","4","100761","0.0-3.0-1.0","32","1","2025-04-11 14:06:06","bb671e3ae32f654b8954ea4c4635f915","","Mozilla/5.0 (Macintosh; Intel Mac OS X 10_15_7) AppleWebKit/605.1.15 (KHTML, like Gecko) Version/16.2 Safari/605.1.15","Macintosh","Safari","16.2","OS X","10_15_7","https://hz8g1ckzuq.cognition.run/","en-US,en;q=0.9","zfhwypnv1mwx9gy","37","[""White""]","No","Female","1170174","27323","","","{""price_1"":""200"",""price_2"":""300"",""price_3"":""250""}","rating","dct","attraction_2","2","televisions","null","null","null","null","null","null","1","50","60","40","60","50","60","Screen size","Average lifespan","",""
"","","","","","rating_trial_setup","html-keyboard-response","5","101065","0.0-3.0-0.1","32","1","2025-04-11 14:06:06","bb671e3ae32f654b8954ea4c4635f915","","Mozilla/5.0 (Macintosh; Intel Mac OS X 10_15_7) AppleWebKit/605.1.15 (KHTML, like Gecko) Version/16.2 Safari/605.1.15","Macintosh","Safari","16.2","OS X","10_15_7","https://hz8g1ckzuq.cognition.run/","en-US,en;q=0.9","zfhwypnv1mwx9gy","37","[""White""]","No","Female","1170174","null","","<p></p>","null","rating","dtc","attraction_1","1","laptops","null","null","null","null","null","null","1","","","","","","","","","",""
"","","","","","rating_trial","survey-html-form","6","121012","0.0-3.0-1.1","32","1","2025-04-11 14:06:06","bb671e3ae32f654b8954ea4c4635f915","","Mozilla/5.0 (Macintosh; Intel Mac OS X 10_15_7) AppleWebKit/605.1.15 (KHTML, like Gecko) Version/16.2 Safari/605.1.15","Macintosh","Safari","16.2","OS X","10_15_7","https://hz8g1ckzuq.cognition.run/","en-US,en;q=0.9","zfhwypnv1mwx9gy","37","[""White""]","No","Female","1170174","19943","","","{""price_1"":""350"",""price_2"":""400"",""price_3"":""500""}","rating","dtc","attraction_1","1","laptops","null","null","null","null","null","null","1","60","50","60","50","60","45","Processing speed","Memory (RAM)","",""
"","","","","","rating_trial_setup","html-keyboard-response","7","121317","0.0-3.0-0.2","32","1","2025-04-11 14:06:06","bb671e3ae32f654b8954ea4c4635f915","","Mozilla/5.0 (Macintosh; Intel Mac OS X 10_15_7) AppleWebKit/605.1.15 (KHTML, like Gecko) Version/16.2 Safari/605.1.15","Macintosh","Safari","16.2","OS X","10_15_7","https://hz8g1ckzuq.cognition.run/","en-US,en;q=0.9","zfhwypnv1mwx9gy","37","[""White""]","No","Female","1170174","null","","<p></p>","null","rating","wwb","catch","null","laptops","80","65","15","45","45","50","2","","","","","","","","","",""
"","","","","","rating_trial","survey-html-form","8","140694","0.0-3.0-1.2","32","1","2025-04-11 14:06:06","bb671e3ae32f654b8954ea4c4635f915","","Mozilla/5.0 (Macintosh; Intel Mac OS X 10_15_7) AppleWebKit/605.1.15 (KHTML, like Gecko) Version/16.2 Safari/605.1.15","Macintosh","Safari","16.2","OS X","10_15_7","https://hz8g1ckzuq.cognition.run/","en-US,en;q=0.9","zfhwypnv1mwx9gy","37","[""White""]","No","Female","1170174","19371","","","{""price_1"":""250"",""price_2"":""500"",""price_3"":""700""}","rating","wwb","catch","null","laptops","80","65","15","45","45","50","2","null","null","null","null","null","null","Processing speed","Memory (RAM)","",""
"","","","","","rating_trial_setup","html-keyboard-response","9","140997","0.0-3.0-0.3","32","1","2025-04-11 14:06:06","bb671e3ae32f654b8954ea4c4635f915","","Mozilla/5.0 (Macintosh; Intel Mac OS X 10_15_7) AppleWebKit/605.1.15 (KHTML, like Gecko) Version/16.2 Safari/605.1.15","Macintosh","Safari","16.2","OS X","10_15_7","https://hz8g1ckzuq.cognition.run/","en-US,en;q=0.9","zfhwypnv1mwx9gy","37","[""White""]","No","Female","1170174","null","","<p></p>","null","rating","wbw","catch","null","washing machines","60","85","50","25","50","15","1","","","","","","","","","",""
"","","","","","rating_trial","survey-html-form","10","164378","0.0-3.0-1.3","32","1","2025-04-11 14:06:06","bb671e3ae32f654b8954ea4c4635f915","","Mozilla/5.0 (Macintosh; Intel Mac OS X 10_15_7) AppleWebKit/605.1.15 (KHTML, like Gecko) Version/16.2 Safari/605.1.15","Macintosh","Safari","16.2","OS X","10_15_7","https://hz8g1ckzuq.cognition.run/","en-US,en;q=0.9","zfhwypnv1mwx9gy","37","[""White""]","No","Female","1170174","23377","","","{""price_1"":""375"",""price_2"":""500"",""price_3"":""350""}","rating","wbw","catch","null","washing machines","60","85","50","25","50","15","1","null","null","null","null","null","null","Average lifespan","Energy savings","",""
"","","","","","rating_trial_setup","html-keyboard-response","11","164681","0.0-3.0-0.4","32","1","2025-04-11 14:06:06","bb671e3ae32f654b8954ea4c4635f915","","Mozilla/5.0 (Macintosh; Intel Mac OS X 10_15_7) AppleWebKit/605.1.15 (KHTML, like Gecko) Version/16.2 Safari/605.1.15","Macintosh","Safari","16.2","OS X","10_15_7","https://hz8g1ckzuq.cognition.run/","en-US,en;q=0.9","zfhwypnv1mwx9gy","37","[""White""]","No","Female","1170174","null","","<p></p>","null","rating","bww","catch","null","televisions","55","75","45","50","45","30","1","","","","","","","","","",""
"","","","","","rating_trial","survey-html-form","12","188027","0.0-3.0-1.4","32","1","2025-04-11 14:06:06","bb671e3ae32f654b8954ea4c4635f915","","Mozilla/5.0 (Macintosh; Intel Mac OS X 10_15_7) AppleWebKit/605.1.15 (KHTML, like Gecko) Version/16.2 Safari/605.1.15","Macintosh","Safari","16.2","OS X","10_15_7","https://hz8g1ckzuq.cognition.run/","en-US,en;q=0.9","zfhwypnv1mwx9gy","37","[""White""]","No","Female","1170174","23343","","","{""price_1"":""300"",""price_2"":""250"",""price_3"":""200""}","rating","bww","catch","null","televisions","55","75","45","50","45","30","1","null","null","null","null","null","null","Screen size","Average lifespan","",""
"","","","","","rating_trial_setup","html-keyboard-response","13","188331","0.0-3.0-0.5","32","1","2025-04-11 14:06:06","bb671e3ae32f654b8954ea4c4635f915","","Mozilla/5.0 (Macintosh; Intel Mac OS X 10_15_7) AppleWebKit/605.1.15 (KHTML, like Gecko) Version/16.2 Safari/605.1.15","Macintosh","Safari","16.2","OS X","10_15_7","https://hz8g1ckzuq.cognition.run/","en-US,en;q=0.9","zfhwypnv1mwx9gy","37","[""White""]","No","Female","1170174","null","","<p></p>","null","rating","wbw","catch","null","laptops","50","50","50","20","45","20","2","","","","","","","","","",""
"","","","","","rating_trial","survey-html-form","14","206576","0.0-3.0-1.5","32","1","2025-04-11 14:06:06","bb671e3ae32f654b8954ea4c4635f915","","Mozilla/5.0 (Macintosh; Intel Mac OS X 10_15_7) AppleWebKit/605.1.15 (KHTML, like Gecko) Version/16.2 Safari/605.1.15","Macintosh","Safari","16.2","OS X","10_15_7","https://hz8g1ckzuq.cognition.run/","en-US,en;q=0.9","zfhwypnv1mwx9gy","37","[""White""]","No","Female","1170174","18241","","","{""price_1"":""200"",""price_2"":""275"",""price_3"":""175""}","rating","wbw","catch","null","laptops","50","50","50","20","45","20","2","null","null","null","null","null","null","Processing speed","Memory (RAM)","",""
"","","","","","rating_trial_setup","html-keyboard-response","15","206879","0.0-3.0-0.6","32","1","2025-04-11 14:06:06","bb671e3ae32f654b8954ea4c4635f915","","Mozilla/5.0 (Macintosh; Intel Mac OS X 10_15_7) AppleWebKit/605.1.15 (KHTML, like Gecko) Version/16.2 Safari/605.1.15","Macintosh","Safari","16.2","OS X","10_15_7","https://hz8g1ckzuq.cognition.run/","en-US,en;q=0.9","zfhwypnv1mwx9gy","37","[""White""]","No","Female","1170174","null","","<p></p>","null","rating","tdc","attraction_1","2","microwave ovens","null","null","null","null","null","null","1","","","","","","","","","",""
"","","","","","rating_trial","survey-html-form","16","222843","0.0-3.0-1.6","32","1","2025-04-11 14:06:06","bb671e3ae32f654b8954ea4c4635f915","","Mozilla/5.0 (Macintosh; Intel Mac OS X 10_15_7) AppleWebKit/605.1.15 (KHTML, like Gecko) Version/16.2 Safari/605.1.15","Macintosh","Safari","16.2","OS X","10_15_7","https://hz8g1ckzuq.cognition.run/","en-US,en;q=0.9","zfhwypnv1mwx9gy","37","[""White""]","No","Female","1170174","15958","","","{""price_1"":""70"",""price_2"":""50"",""price_3"":""80""}","rating","tdc","attraction_1","2","microwave ovens","null","null","null","null","null","null","1","50","60","45","60","50","60","Warranty","Cooking power","",""
"","","","","","rating_trial_setup","html-keyboard-response","17","223146","0.0-3.0-0.7","32","1","2025-04-11 14:06:06","bb671e3ae32f654b8954ea4c4635f915","","Mozilla/5.0 (Macintosh; Intel Mac OS X 10_15_7) AppleWebKit/605.1.15 (KHTML, like Gecko) Version/16.2 Safari/605.1.15","Macintosh","Safari","16.2","OS X","10_15_7","https://hz8g1ckzuq.cognition.run/","en-US,en;q=0.9","zfhwypnv1mwx9gy","37","[""White""]","No","Female","1170174","null","","<p></p>","null","rating","dtc","attraction_1","2","laptops","null","null","null","null","null","null","1","","","","","","","","","",""
"","","","","","rating_trial","survey-html-form","18","239209","0.0-3.0-1.7","32","1","2025-04-11 14:06:06","bb671e3ae32f654b8954ea4c4635f915","","Mozilla/5.0 (Macintosh; Intel Mac OS X 10_15_7) AppleWebKit/605.1.15 (KHTML, like Gecko) Version/16.2 Safari/605.1.15","Macintosh","Safari","16.2","OS X","10_15_7","https://hz8g1ckzuq.cognition.run/","en-US,en;q=0.9","zfhwypnv1mwx9gy","37","[""White""]","No","Female","1170174","16059","","","{""price_1"":""250"",""price_2"":""300"",""price_3"":""300""}","rating","dtc","attraction_1","2","laptops","null","null","null","null","null","null","1","50","60","45","60","50","60","Processing speed","Memory (RAM)","",""
"","","","","","rating_trial_setup","html-keyboard-response","19","239512","0.0-3.0-0.8","32","1","2025-04-11 14:06:06","bb671e3ae32f654b8954ea4c4635f915","","Mozilla/5.0 (Macintosh; Intel Mac OS X 10_15_7) AppleWebKit/605.1.15 (KHTML, like Gecko) Version/16.2 Safari/605.1.15","Macintosh","Safari","16.2","OS X","10_15_7","https://hz8g1ckzuq.cognition.run/","en-US,en;q=0.9","zfhwypnv1mwx9gy","37","[""White""]","No","Female","1170174","null","","<p></p>","null","rating","ctd","repulsion_1","1","washing machines","null","null","null","null","null","null","2","","","","","","","","","",""
"","","","","","rating_trial","survey-html-form","20","263492","0.0-3.0-1.8","32","1","2025-04-11 14:06:06","bb671e3ae32f654b8954ea4c4635f915","","Mozilla/5.0 (Macintosh; Intel Mac OS X 10_15_7) AppleWebKit/605.1.15 (KHTML, like Gecko) Version/16.2 Safari/605.1.15","Macintosh","Safari","16.2","OS X","10_15_7","https://hz8g1ckzuq.cognition.run/","en-US,en;q=0.9","zfhwypnv1mwx9gy","37","[""White""]","No","Female","1170174","23977","","","{""price_1"":""400"",""price_2"":""400"",""price_3"":""400""}","rating","ctd","repulsion_1","1","washing machines","null","null","null","null","null","null","2","100","90","100","30","40","25","Average lifespan","Energy savings","",""
"","","","","","rating_trial_setup","html-keyboard-response","21","263796","0.0-3.0-0.9","32","1","2025-04-11 14:06:06","bb671e3ae32f654b8954ea4c4635f915","","Mozilla/5.0 (Macintosh; Intel Mac OS X 10_15_7) AppleWebKit/605.1.15 (KHTML, like Gecko) Version/16.2 Safari/605.1.15","Macintosh","Safari","16.2","OS X","10_15_7","https://hz8g1ckzuq.cognition.run/","en-US,en;q=0.9","zfhwypnv1mwx9gy","37","[""White""]","No","Female","1170174","null","","<p></p>","null","rating","tcd","repulsion_1","2","washing machines","null","null","null","null","null","null","1","","","","","","","","","",""
"","","","","","rating_trial","survey-html-form","22","274726","0.0-3.0-1.9","32","1","2025-04-11 14:06:06","bb671e3ae32f654b8954ea4c4635f915","","Mozilla/5.0 (Macintosh; Intel Mac OS X 10_15_7) AppleWebKit/605.1.15 (KHTML, like Gecko) Version/16.2 Safari/605.1.15","Macintosh","Safari","16.2","OS X","10_15_7","https://hz8g1ckzuq.cognition.run/","en-US,en;q=0.9","zfhwypnv1mwx9gy","37","[""White""]","No","Female","1170174","10926","","","{""price_1"":""400"",""price_2"":""400"",""price_3"":""400""}","rating","tcd","repulsion_1","2","washing machines","null","null","null","null","null","null","1","30","40","25","100","90","100","Average lifespan","Energy savings","",""
"","","","","","rating_trial_setup","html-keyboard-response","23","275029","0.0-3.0-0.10","32","1","2025-04-11 14:06:06","bb671e3ae32f654b8954ea4c4635f915","","Mozilla/5.0 (Macintosh; Intel Mac OS X 10_15_7) AppleWebKit/605.1.15 (KHTML, like Gecko) Version/16.2 Safari/605.1.15","Macintosh","Safari","16.2","OS X","10_15_7","https://hz8g1ckzuq.cognition.run/","en-US,en;q=0.9","zfhwypnv1mwx9gy","37","[""White""]","No","Female","1170174","null","","<p></p>","null","rating","dtc","attraction_2","1","laptops","null","null","null","null","null","null","2","","","","","","","","","",""
"","","","","","rating_trial","survey-html-form","24","290975","0.0-3.0-1.10","32","1","2025-04-11 14:06:06","bb671e3ae32f654b8954ea4c4635f915","","Mozilla/5.0 (Macintosh; Intel Mac OS X 10_15_7) AppleWebKit/605.1.15 (KHTML, like Gecko) Version/16.2 Safari/605.1.15","Macintosh","Safari","16.2","OS X","10_15_7","https://hz8g1ckzuq.cognition.run/","en-US,en;q=0.9","zfhwypnv1mwx9gy","37","[""White""]","No","Female","1170174","15943","","","{""price_1"":""275"",""price_2"":""300"",""price_3"":""300""}","rating","dtc","attraction_2","1","laptops","null","null","null","null","null","null","2","60","50","60","50","60","40","Processing speed","Memory (RAM)","",""
"","","","","","rating_trial_setup","html-keyboard-response","25","291279","0.0-3.0-0.11","32","1","2025-04-11 14:06:06","bb671e3ae32f654b8954ea4c4635f915","","Mozilla/5.0 (Macintosh; Intel Mac OS X 10_15_7) AppleWebKit/605.1.15 (KHTML, like Gecko) Version/16.2 Safari/605.1.15","Macintosh","Safari","16.2","OS X","10_15_7","https://hz8g1ckzuq.cognition.run/","en-US,en;q=0.9","zfhwypnv1mwx9gy","37","[""White""]","No","Female","1170174","null","","<p></p>","null","rating","dct","repulsion_2","2","microwave ovens","null","null","null","null","null","null","2","","","","","","","","","",""
"","","","","","rating_trial","survey-html-form","26","308225","0.0-3.0-1.11","32","1","2025-04-11 14:06:06","bb671e3ae32f654b8954ea4c4635f915","","Mozilla/5.0 (Macintosh; Intel Mac OS X 10_15_7) AppleWebKit/605.1.15 (KHTML, like Gecko) Version/16.2 Safari/605.1.15","Macintosh","Safari","16.2","OS X","10_15_7","https://hz8g1ckzuq.cognition.run/","en-US,en;q=0.9","zfhwypnv1mwx9gy","37","[""White""]","No","Female","1170174","16942","","","{""price_1"":""80"",""price_2"":""75"",""price_3"":""90""}","rating","dct","repulsion_2","2","microwave ovens","null","null","null","null","null","null","2","30","40","20","100","90","100","Warranty","Cooking power","",""
"","","","","","rating_trial_setup","html-keyboard-response","27","308529","0.0-3.0-0.12","32","1","2025-04-11 14:06:06","bb671e3ae32f654b8954ea4c4635f915","","Mozilla/5.0 (Macintosh; Intel Mac OS X 10_15_7) AppleWebKit/605.1.15 (KHTML, like Gecko) Version/16.2 Safari/605.1.15","Macintosh","Safari","16.2","OS X","10_15_7","https://hz8g1ckzuq.cognition.run/","en-US,en;q=0.9","zfhwypnv1mwx9gy","37","[""White""]","No","Female","1170174","null","","<p></p>","null","rating","dtc","attraction_2","2","microwave ovens","null","null","null","null","null","null","2","","","","","","","","","",""
"","","","","","rating_trial","survey-html-form","28","323076","0.0-3.0-1.12","32","1","2025-04-11 14:06:06","bb671e3ae32f654b8954ea4c4635f915","","Mozilla/5.0 (Macintosh; Intel Mac OS X 10_15_7) AppleWebKit/605.1.15 (KHTML, like Gecko) Version/16.2 Safari/605.1.15","Macintosh","Safari","16.2","OS X","10_15_7","https://hz8g1ckzuq.cognition.run/","en-US,en;q=0.9","zfhwypnv1mwx9gy","37","[""White""]","No","Female","1170174","14543","","","{""price_1"":""90"",""price_2"":""90"",""price_3"":""75""}","rating","dtc","attraction_2","2","microwave ovens","null","null","null","null","null","null","2","50","60","40","60","50","60","Warranty","Cooking power","",""
"","","","","","rating_trial_setup","html-keyboard-response","29","323380","0.0-3.0-0.13","32","1","2025-04-11 14:06:06","bb671e3ae32f654b8954ea4c4635f915","","Mozilla/5.0 (Macintosh; Intel Mac OS X 10_15_7) AppleWebKit/605.1.15 (KHTML, like Gecko) Version/16.2 Safari/605.1.15","Macintosh","Safari","16.2","OS X","10_15_7","https://hz8g1ckzuq.cognition.run/","en-US,en;q=0.9","zfhwypnv1mwx9gy","37","[""White""]","No","Female","1170174","null","","<p></p>","null","rating","bww","catch","null","televisions","80","95","45","25","50","10","2","","","","","","","","","",""
"","","","","","rating_trial","survey-html-form","30","337143","0.0-3.0-1.13","32","1","2025-04-11 14:06:06","bb671e3ae32f654b8954ea4c4635f915","","Mozilla/5.0 (Macintosh; Intel Mac OS X 10_15_7) AppleWebKit/605.1.15 (KHTML, like Gecko) Version/16.2 Safari/605.1.15","Macintosh","Safari","16.2","OS X","10_15_7","https://hz8g1ckzuq.cognition.run/","en-US,en;q=0.9","zfhwypnv1mwx9gy","37","[""White""]","No","Female","1170174","13758","","","{""price_1"":""350"",""price_2"":""200"",""price_3"":""175""}","rating","bww","catch","null","televisions","80","95","45","25","50","10","2","null","null","null","null","null","null","Screen size","Average lifespan","",""
"","","","","","rating_trial_setup","html-keyboard-response","31","337447","0.0-3.0-0.14","32","1","2025-04-11 14:06:06","bb671e3ae32f654b8954ea4c4635f915","","Mozilla/5.0 (Macintosh; Intel Mac OS X 10_15_7) AppleWebKit/605.1.15 (KHTML, like Gecko) Version/16.2 Safari/605.1.15","Macintosh","Safari","16.2","OS X","10_15_7","https://hz8g1ckzuq.cognition.run/","en-US,en;q=0.9","zfhwypnv1mwx9gy","37","[""White""]","No","Female","1170174","null","","<p></p>","null","rating","cdt","repulsion_2","1","televisions","null","null","null","null","null","null","1","","","","","","","","","",""
"","","","","","rating_trial","survey-html-form","32","359909","0.0-3.0-1.14","32","1","2025-04-11 14:06:06","bb671e3ae32f654b8954ea4c4635f915","","Mozilla/5.0 (Macintosh; Intel Mac OS X 10_15_7) AppleWebKit/605.1.15 (KHTML, like Gecko) Version/16.2 Safari/605.1.15","Macintosh","Safari","16.2","OS X","10_15_7","https://hz8g1ckzuq.cognition.run/","en-US,en;q=0.9","zfhwypnv1mwx9gy","37","[""White""]","No","Female","1170174","22458","","","{""price_1"":""275"",""price_2"":""350"",""price_3"":""350""}","rating","cdt","repulsion_2","1","televisions","null","null","null","null","null","null","1","100","90","100","30","40","20","Screen size","Average lifespan","",""
"","","","","","rating_trial_setup","html-keyboard-response","33","360213","0.0-3.0-0.15","32","1","2025-04-11 14:06:06","bb671e3ae32f654b8954ea4c4635f915","","Mozilla/5.0 (Macintosh; Intel Mac OS X 10_15_7) AppleWebKit/605.1.15 (KHTML, like Gecko) Version/16.2 Safari/605.1.15","Macintosh","Safari","16.2","OS X","10_15_7","https://hz8g1ckzuq.cognition.run/","en-US,en;q=0.9","zfhwypnv1mwx9gy","37","[""White""]","No","Female","1170174","null","","<p></p>","null","rating","dtc","attraction_1","1","televisions","null","null","null","null","null","null","2","","","","","","","","","",""
"","","","","","rating_trial","survey-html-form","34","384641","0.0-3.0-1.15","32","1","2025-04-11 14:06:06","bb671e3ae32f654b8954ea4c4635f915","","Mozilla/5.0 (Macintosh; Intel Mac OS X 10_15_7) AppleWebKit/605.1.15 (KHTML, like Gecko) Version/16.2 Safari/605.1.15","Macintosh","Safari","16.2","OS X","10_15_7","https://hz8g1ckzuq.cognition.run/","en-US,en;q=0.9","zfhwypnv1mwx9gy","37","[""White""]","No","Female","1170174","24424","","","{""price_1"":""275"",""price_2"":""275"",""price_3"":""250""}","rating","dtc","attraction_1","1","televisions","null","null","null","null","null","null","2","60","50","60","50","60","45","Screen size","Average lifespan","",""
"","","","","","rating_trial_setup","html-keyboard-response","35","384944","0.0-3.0-0.16","32","1","2025-04-11 14:06:06","bb671e3ae32f654b8954ea4c4635f915","","Mozilla/5.0 (Macintosh; Intel Mac OS X 10_15_7) AppleWebKit/605.1.15 (KHTML, like Gecko) Version/16.2 Safari/605.1.15","Macintosh","Safari","16.2","OS X","10_15_7","https://hz8g1ckzuq.cognition.run/","en-US,en;q=0.9","zfhwypnv1mwx9gy","37","[""White""]","No","Female","1170174","null","","<p></p>","null","rating","cdt","attraction_2","1","microwave ovens","null","null","null","null","null","null","2","","","","","","","","","",""
"","","","","","rating_trial","survey-html-form","36","398242","0.0-3.0-1.16","32","1","2025-04-11 14:06:06","bb671e3ae32f654b8954ea4c4635f915","","Mozilla/5.0 (Macintosh; Intel Mac OS X 10_15_7) AppleWebKit/605.1.15 (KHTML, like Gecko) Version/16.2 Safari/605.1.15","Macintosh","Safari","16.2","OS X","10_15_7","https://hz8g1ckzuq.cognition.run/","en-US,en;q=0.9","zfhwypnv1mwx9gy","37","[""White""]","No","Female","1170174","13293","","","{""price_1"":""90"",""price_2"":""75"",""price_3"":""80""}","rating","cdt","attraction_2","1","microwave ovens","null","null","null","null","null","null","2","60","50","60","50","60","40","Warranty","Cooking power","",""
"","","","","","rating_trial_setup","html-keyboard-response","37","398544","0.0-3.0-0.17","32","1","2025-04-11 14:06:06","bb671e3ae32f654b8954ea4c4635f915","","Mozilla/5.0 (Macintosh; Intel Mac OS X 10_15_7) AppleWebKit/605.1.15 (KHTML, like Gecko) Version/16.2 Safari/605.1.15","Macintosh","Safari","16.2","OS X","10_15_7","https://hz8g1ckzuq.cognition.run/","en-US,en;q=0.9","zfhwypnv1mwx9gy","37","[""White""]","No","Female","1170174","null","","<p></p>","null","rating","tcd","repulsion_1","2","microwave ovens","null","null","null","null","null","null","2","","","","","","","","","",""
"","","","","","rating_trial","survey-html-form","38","414592","0.0-3.0-1.17","32","1","2025-04-11 14:06:06","bb671e3ae32f654b8954ea4c4635f915","","Mozilla/5.0 (Macintosh; Intel Mac OS X 10_15_7) AppleWebKit/605.1.15 (KHTML, like Gecko) Version/16.2 Safari/605.1.15","Macintosh","Safari","16.2","OS X","10_15_7","https://hz8g1ckzuq.cognition.run/","en-US,en;q=0.9","zfhwypnv1mwx9gy","37","[""White""]","No","Female","1170174","16043","","","{""price_1"":""100"",""price_2"":""85"",""price_3"":""90""}","rating","tcd","repulsion_1","2","microwave ovens","null","null","null","null","null","null","2","30","40","25","100","90","100","Warranty","Cooking power","",""
"","","","","","rating_trial_setup","html-keyboard-response","39","414898","0.0-3.0-0.18","32","1","2025-04-11 14:06:06","bb671e3ae32f654b8954ea4c4635f915","","Mozilla/5.0 (Macintosh; Intel Mac OS X 10_15_7) AppleWebKit/605.1.15 (KHTML, like Gecko) Version/16.2 Safari/605.1.15","Macintosh","Safari","16.2","OS X","10_15_7","https://hz8g1ckzuq.cognition.run/","en-US,en;q=0.9","zfhwypnv1mwx9gy","37","[""White""]","No","Female","1170174","null","","<p></p>","null","rating","ctd","repulsion_2","1","laptops","null","null","null","null","null","null","2","","","","","","","","","",""
"","","","","","rating_trial","survey-html-form","40","440825","0.0-3.0-1.18","32","1","2025-04-11 14:06:06","bb671e3ae32f654b8954ea4c4635f915","","Mozilla/5.0 (Macintosh; Intel Mac OS X 10_15_7) AppleWebKit/605.1.15 (KHTML, like Gecko) Version/16.2 Safari/605.1.15","Macintosh","Safari","16.2","OS X","10_15_7","https://hz8g1ckzuq.cognition.run/","en-US,en;q=0.9","zfhwypnv1mwx9gy","37","[""White""]","No","Female","1170174","25921","","","{""price_1"":""300"",""price_2"":""275"",""price_3"":""275""}","rating","ctd","repulsion_2","1","laptops","null","null","null","null","null","null","2","100","90","100","30","40","20","Processing speed","Memory (RAM)","",""
"","","","","","rating_trial_setup","html-keyboard-response","41","441130","0.0-3.0-0.19","32","1","2025-04-11 14:06:06","bb671e3ae32f654b8954ea4c4635f915","","Mozilla/5.0 (Macintosh; Intel Mac OS X 10_15_7) AppleWebKit/605.1.15 (KHTML, like Gecko) Version/16.2 Safari/605.1.15","Macintosh","Safari","16.2","OS X","10_15_7","https://hz8g1ckzuq.cognition.run/","en-US,en;q=0.9","zfhwypnv1mwx9gy","37","[""White""]","No","Female","1170174","null","","<p></p>","null","rating","tdc","repulsion_1","1","microwave ovens","null","null","null","null","null","null","2","","","","","","","","","",""
"","","","","","rating_trial","survey-html-form","42","456725","0.0-3.0-1.19","32","1","2025-04-11 14:06:06","bb671e3ae32f654b8954ea4c4635f915","","Mozilla/5.0 (Macintosh; Intel Mac OS X 10_15_7) AppleWebKit/605.1.15 (KHTML, like Gecko) Version/16.2 Safari/605.1.15","Macintosh","Safari","16.2","OS X","10_15_7","https://hz8g1ckzuq.cognition.run/","en-US,en;q=0.9","zfhwypnv1mwx9gy","37","[""White""]","No","Female","1170174","15590","","","{""price_1"":""75"",""price_2"":""60"",""price_3"":""80""}","rating","tdc","repulsion_1","1","microwave ovens","null","null","null","null","null","null","2","100","90","100","30","40","25","Warranty","Cooking power","",""
"","","","","","rating_trial_setup","html-keyboard-response","43","457029","0.0-3.0-0.20","32","1","2025-04-11 14:06:06","bb671e3ae32f654b8954ea4c4635f915","","Mozilla/5.0 (Macintosh; Intel Mac OS X 10_15_7) AppleWebKit/605.1.15 (KHTML, like Gecko) Version/16.2 Safari/605.1.15","Macintosh","Safari","16.2","OS X","10_15_7","https://hz8g1ckzuq.cognition.run/","en-US,en;q=0.9","zfhwypnv1mwx9gy","37","[""White""]","No","Female","1170174","null","","<p></p>","null","rating","tdc","repulsion_2","1","washing machines","null","null","null","null","null","null","1","","","","","","","","","",""
"","","","","","rating_trial","survey-html-form","44","475942","0.0-3.0-1.20","32","1","2025-04-11 14:06:06","bb671e3ae32f654b8954ea4c4635f915","","Mozilla/5.0 (Macintosh; Intel Mac OS X 10_15_7) AppleWebKit/605.1.15 (KHTML, like Gecko) Version/16.2 Safari/605.1.15","Macintosh","Safari","16.2","OS X","10_15_7","https://hz8g1ckzuq.cognition.run/","en-US,en;q=0.9","zfhwypnv1mwx9gy","37","[""White""]","No","Female","1170174","18907","","","{""price_1"":""375"",""price_2"":""350"",""price_3"":""400""}","rating","tdc","repulsion_2","1","washing machines","null","null","null","null","null","null","1","100","90","100","30","40","20","Average lifespan","Energy savings","",""
"","","","","","rating_trial_setup","html-keyboard-response","45","476246","0.0-3.0-0.21","32","1","2025-04-11 14:06:06","bb671e3ae32f654b8954ea4c4635f915","","Mozilla/5.0 (Macintosh; Intel Mac OS X 10_15_7) AppleWebKit/605.1.15 (KHTML, like Gecko) Version/16.2 Safari/605.1.15","Macintosh","Safari","16.2","OS X","10_15_7","https://hz8g1ckzuq.cognition.run/","en-US,en;q=0.9","zfhwypnv1mwx9gy","37","[""White""]","No","Female","1170174","null","","<p></p>","null","rating","bww","catch","null","washing machines","60","60","25","30","45","35","2","","","","","","","","","",""
"","","","","","rating_trial","survey-html-form","46","512458","0.0-3.0-1.21","32","1","2025-04-11 14:06:06","bb671e3ae32f654b8954ea4c4635f915","","Mozilla/5.0 (Macintosh; Intel Mac OS X 10_15_7) AppleWebKit/605.1.15 (KHTML, like Gecko) Version/16.2 Safari/605.1.15","Macintosh","Safari","16.2","OS X","10_15_7","https://hz8g1ckzuq.cognition.run/","en-US,en;q=0.9","zfhwypnv1mwx9gy","37","[""White""]","No","Female","1170174","36207","","","{""price_1"":""500"",""price_2"":""450"",""price_3"":""450""}","rating","bww","catch","null","washing machines","60","60","25","30","45","35","2","null","null","null","null","null","null","Average lifespan","Energy savings","",""
"","","","","","rating_trial_setup","html-keyboard-response","47","512763","0.0-3.0-0.22","32","1","2025-04-11 14:06:06","bb671e3ae32f654b8954ea4c4635f915","","Mozilla/5.0 (Macintosh; Intel Mac OS X 10_15_7) AppleWebKit/605.1.15 (KHTML, like Gecko) Version/16.2 Safari/605.1.15","Macintosh","Safari","16.2","OS X","10_15_7","https://hz8g1ckzuq.cognition.run/","en-US,en;q=0.9","zfhwypnv1mwx9gy","37","[""White""]","No","Female","1170174","null","","<p></p>","null","rating","tdc","attraction_2","2","laptops","null","null","null","null","null","null","2","","","","","","","","","",""
"","","","","","rating_trial","survey-html-form","48","526575","0.0-3.0-1.22","32","1","2025-04-11 14:06:06","bb671e3ae32f654b8954ea4c4635f915","","Mozilla/5.0 (Macintosh; Intel Mac OS X 10_15_7) AppleWebKit/605.1.15 (KHTML, like Gecko) Version/16.2 Safari/605.1.15","Macintosh","Safari","16.2","OS X","10_15_7","https://hz8g1ckzuq.cognition.run/","en-US,en;q=0.9","zfhwypnv1mwx9gy","37","[""White""]","No","Female","1170174","13808","","","{""price_1"":""275"",""price_2"":""275"",""price_3"":""300""}","rating","tdc","attraction_2","2","laptops","null","null","null","null","null","null","2","50","60","40","60","50","60","Processing speed","Memory (RAM)","",""
"","","","","","rating_trial_setup","html-keyboard-response","49","526879","0.0-3.0-0.23","32","1","2025-04-11 14:06:06","bb671e3ae32f654b8954ea4c4635f915","","Mozilla/5.0 (Macintosh; Intel Mac OS X 10_15_7) AppleWebKit/605.1.15 (KHTML, like Gecko) Version/16.2 Safari/605.1.15","Macintosh","Safari","16.2","OS X","10_15_7","https://hz8g1ckzuq.cognition.run/","en-US,en;q=0.9","zfhwypnv1mwx9gy","37","[""White""]","No","Female","1170174","null","","<p></p>","null","rating","tdc","repulsion_2","1","microwave ovens","null","null","null","null","null","null","1","","","","","","","","","",""
"","","","","","rating_trial","survey-html-form","50","541091","0.0-3.0-1.23","32","1","2025-04-11 14:06:06","bb671e3ae32f654b8954ea4c4635f915","","Mozilla/5.0 (Macintosh; Intel Mac OS X 10_15_7) AppleWebKit/605.1.15 (KHTML, like Gecko) Version/16.2 Safari/605.1.15","Macintosh","Safari","16.2","OS X","10_15_7","https://hz8g1ckzuq.cognition.run/","en-US,en;q=0.9","zfhwypnv1mwx9gy","37","[""White""]","No","Female","1170174","14207","","","{""price_1"":""80"",""price_2"":""75"",""price_3"":""90""}","rating","tdc","repulsion_2","1","microwave ovens","null","null","null","null","null","null","1","100","90","100","30","40","20","Warranty","Cooking power","",""
"","","","","","rating_trial_setup","html-keyboard-response","51","541395","0.0-3.0-0.24","32","1","2025-04-11 14:06:06","bb671e3ae32f654b8954ea4c4635f915","","Mozilla/5.0 (Macintosh; Intel Mac OS X 10_15_7) AppleWebKit/605.1.15 (KHTML, like Gecko) Version/16.2 Safari/605.1.15","Macintosh","Safari","16.2","OS X","10_15_7","https://hz8g1ckzuq.cognition.run/","en-US,en;q=0.9","zfhwypnv1mwx9gy","37","[""White""]","No","Female","1170174","null","","<p></p>","null","rating","tcd","repulsion_1","2","televisions","null","null","null","null","null","null","2","","","","","","","","","",""
"","","","","","rating_trial","survey-html-form","52","561092","0.0-3.0-1.24","32","1","2025-04-11 14:06:06","bb671e3ae32f654b8954ea4c4635f915","","Mozilla/5.0 (Macintosh; Intel Mac OS X 10_15_7) AppleWebKit/605.1.15 (KHTML, like Gecko) Version/16.2 Safari/605.1.15","Macintosh","Safari","16.2","OS X","10_15_7","https://hz8g1ckzuq.cognition.run/","en-US,en;q=0.9","zfhwypnv1mwx9gy","37","[""White""]","No","Female","1170174","19692","","","{""price_1"":""270"",""price_2"":""300"",""price_3"":""250""}","rating","tcd","repulsion_1","2","televisions","null","null","null","null","null","null","2","30","40","25","100","90","100","Screen size","Average lifespan","",""
"","","","","","rating_trial_setup","html-keyboard-response","53","561399","0.0-3.0-0.25","32","1","2025-04-11 14:06:06","bb671e3ae32f654b8954ea4c4635f915","","Mozilla/5.0 (Macintosh; Intel Mac OS X 10_15_7) AppleWebKit/605.1.15 (KHTML, like Gecko) Version/16.2 Safari/605.1.15","Macintosh","Safari","16.2","OS X","10_15_7","https://hz8g1ckzuq.cognition.run/","en-US,en;q=0.9","zfhwypnv1mwx9gy","37","[""White""]","No","Female","1170174","null","","<p></p>","null","rating","bww","catch","null","microwave ovens","95","50","15","5","5","40","1","","","","","","","","","",""
"","","","","","rating_trial","survey-html-form","54","579741","0.0-3.0-1.25","32","1","2025-04-11 14:06:06","bb671e3ae32f654b8954ea4c4635f915","","Mozilla/5.0 (Macintosh; Intel Mac OS X 10_15_7) AppleWebKit/605.1.15 (KHTML, like Gecko) Version/16.2 Safari/605.1.15","Macintosh","Safari","16.2","OS X","10_15_7","https://hz8g1ckzuq.cognition.run/","en-US,en;q=0.9","zfhwypnv1mwx9gy","37","[""White""]","No","Female","1170174","18335","","","{""price_1"":""70"",""price_2"":""40"",""price_3"":""60""}","rating","bww","catch","null","microwave ovens","95","50","15","5","5","40","1","null","null","null","null","null","null","Warranty","Cooking power","",""
"","","","","","rating_trial_setup","html-keyboard-response","55","580046","0.0-3.0-0.26","32","1","2025-04-11 14:06:06","bb671e3ae32f654b8954ea4c4635f915","","Mozilla/5.0 (Macintosh; Intel Mac OS X 10_15_7) AppleWebKit/605.1.15 (KHTML, like Gecko) Version/16.2 Safari/605.1.15","Macintosh","Safari","16.2","OS X","10_15_7","https://hz8g1ckzuq.cognition.run/","en-US,en;q=0.9","zfhwypnv1mwx9gy","37","[""White""]","No","Female","1170174","null","","<p></p>","null","rating","dct","repulsion_1","1","televisions","null","null","null","null","null","null","2","","","","","","","","","",""
"","","","","","rating_trial","survey-html-form","56","601425","0.0-3.0-1.26","32","1","2025-04-11 14:06:06","bb671e3ae32f654b8954ea4c4635f915","","Mozilla/5.0 (Macintosh; Intel Mac OS X 10_15_7) AppleWebKit/605.1.15 (KHTML, like Gecko) Version/16.2 Safari/605.1.15","Macintosh","Safari","16.2","OS X","10_15_7","https://hz8g1ckzuq.cognition.run/","en-US,en;q=0.9","zfhwypnv1mwx9gy","37","[""White""]","No","Female","1170174","21373","","","{""price_1"":""325"",""price_2"":""325"",""price_3"":""350""}","rating","dct","repulsion_1","1","televisions","null","null","null","null","null","null","2","100","90","100","30","40","25","Screen size","Average lifespan","",""
"","","","","","rating_trial_setup","html-keyboard-response","57","601730","0.0-3.0-0.27","32","1","2025-04-11 14:06:06","bb671e3ae32f654b8954ea4c4635f915","","Mozilla/5.0 (Macintosh; Intel Mac OS X 10_15_7) AppleWebKit/605.1.15 (KHTML, like Gecko) Version/16.2 Safari/605.1.15","Macintosh","Safari","16.2","OS X","10_15_7","https://hz8g1ckzuq.cognition.run/","en-US,en;q=0.9","zfhwypnv1mwx9gy","37","[""White""]","No","Female","1170174","null","","<p></p>","null","rating","cdt","repulsion_1","2","laptops","null","null","null","null","null","null","2","","","","","","","","","",""
"","","","","","rating_trial","survey-html-form","58","625708","0.0-3.0-1.27","32","1","2025-04-11 14:06:06","bb671e3ae32f654b8954ea4c4635f915","","Mozilla/5.0 (Macintosh; Intel Mac OS X 10_15_7) AppleWebKit/605.1.15 (KHTML, like Gecko) Version/16.2 Safari/605.1.15","Macintosh","Safari","16.2","OS X","10_15_7","https://hz8g1ckzuq.cognition.run/","en-US,en;q=0.9","zfhwypnv1mwx9gy","37","[""White""]","No","Female","1170174","23971","","","{""price_1"":""250"",""price_2"":""225"",""price_3"":""225""}","rating","cdt","repulsion_1","2","laptops","null","null","null","null","null","null","2","30","40","25","100","90","100","Processing speed","Memory (RAM)","",""
"","","","","","rating_trial_setup","html-keyboard-response","59","626012","0.0-3.0-0.28","32","1","2025-04-11 14:06:06","bb671e3ae32f654b8954ea4c4635f915","","Mozilla/5.0 (Macintosh; Intel Mac OS X 10_15_7) AppleWebKit/605.1.15 (KHTML, like Gecko) Version/16.2 Safari/605.1.15","Macintosh","Safari","16.2","OS X","10_15_7","https://hz8g1ckzuq.cognition.run/","en-US,en;q=0.9","zfhwypnv1mwx9gy","37","[""White""]","No","Female","1170174","null","","<p></p>","null","rating","tcd","repulsion_2","2","laptops","null","null","null","null","null","null","2","","","","","","","","","",""
"","","","","","rating_trial","survey-html-form","60","636292","0.0-3.0-1.28","32","1","2025-04-11 14:06:06","bb671e3ae32f654b8954ea4c4635f915","","Mozilla/5.0 (Macintosh; Intel Mac OS X 10_15_7) AppleWebKit/605.1.15 (KHTML, like Gecko) Version/16.2 Safari/605.1.15","Macintosh","Safari","16.2","OS X","10_15_7","https://hz8g1ckzuq.cognition.run/","en-US,en;q=0.9","zfhwypnv1mwx9gy","37","[""White""]","No","Female","1170174","10274","","","{""price_1"":""225"",""price_2"":""250"",""price_3"":""225""}","rating","tcd","repulsion_2","2","laptops","null","null","null","null","null","null","2","30","40","20","100","90","100","Processing speed","Memory (RAM)","",""
"","","","","","rating_trial_setup","html-keyboard-response","61","636598","0.0-3.0-0.29","32","1","2025-04-11 14:06:06","bb671e3ae32f654b8954ea4c4635f915","","Mozilla/5.0 (Macintosh; Intel Mac OS X 10_15_7) AppleWebKit/605.1.15 (KHTML, like Gecko) Version/16.2 Safari/605.1.15","Macintosh","Safari","16.2","OS X","10_15_7","https://hz8g1ckzuq.cognition.run/","en-US,en;q=0.9","zfhwypnv1mwx9gy","37","[""White""]","No","Female","1170174","null","","<p></p>","null","rating","tdc","attraction_2","1","televisions","null","null","null","null","null","null","1","","","","","","","","","",""
"","","","","","rating_trial","survey-html-form","62","656058","0.0-3.0-1.29","32","1","2025-04-11 14:06:06","bb671e3ae32f654b8954ea4c4635f915","","Mozilla/5.0 (Macintosh; Intel Mac OS X 10_15_7) AppleWebKit/605.1.15 (KHTML, like Gecko) Version/16.2 Safari/605.1.15","Macintosh","Safari","16.2","OS X","10_15_7","https://hz8g1ckzuq.cognition.run/","en-US,en;q=0.9","zfhwypnv1mwx9gy","37","[""White""]","No","Female","1170174","19453","","","{""price_1"":""300"",""price_2"":""275"",""price_3"":""250""}","rating","tdc","attraction_2","1","televisions","null","null","null","null","null","null","1","60","50","60","50","60","40","Screen size","Average lifespan","",""
"","","","","","rating_trial_setup","html-keyboard-response","63","656363","0.0-3.0-0.30","32","1","2025-04-11 14:06:06","bb671e3ae32f654b8954ea4c4635f915","","Mozilla/5.0 (Macintosh; Intel Mac OS X 10_15_7) AppleWebKit/605.1.15 (KHTML, like Gecko) Version/16.2 Safari/605.1.15","Macintosh","Safari","16.2","OS X","10_15_7","https://hz8g1ckzuq.cognition.run/","en-US,en;q=0.9","zfhwypnv1mwx9gy","37","[""White""]","No","Female","1170174","null","","<p></p>","null","rating","dct","repulsion_2","2","televisions","null","null","null","null","null","null","2","","","","","","","","","",""
"","","","","","rating_trial","survey-html-form","64","675757","0.0-3.0-1.30","32","1","2025-04-11 14:06:06","bb671e3ae32f654b8954ea4c4635f915","","Mozilla/5.0 (Macintosh; Intel Mac OS X 10_15_7) AppleWebKit/605.1.15 (KHTML, like Gecko) Version/16.2 Safari/605.1.15","Macintosh","Safari","16.2","OS X","10_15_7","https://hz8g1ckzuq.cognition.run/","en-US,en;q=0.9","zfhwypnv1mwx9gy","37","[""White""]","No","Female","1170174","19388","","","{""price_1"":""250"",""price_2"":""300"",""price_3"":""275""}","rating","dct","repulsion_2","2","televisions","null","null","null","null","null","null","2","30","40","20","100","90","100","Screen size","Average lifespan","",""
"","","","","","rating_trial_setup","html-keyboard-response","65","676062","0.0-3.0-0.31","32","1","2025-04-11 14:06:06","bb671e3ae32f654b8954ea4c4635f915","","Mozilla/5.0 (Macintosh; Intel Mac OS X 10_15_7) AppleWebKit/605.1.15 (KHTML, like Gecko) Version/16.2 Safari/605.1.15","Macintosh","Safari","16.2","OS X","10_15_7","https://hz8g1ckzuq.cognition.run/","en-US,en;q=0.9","zfhwypnv1mwx9gy","37","[""White""]","No","Female","1170174","null","","<p></p>","null","rating","dct","repulsion_2","2","washing machines","null","null","null","null","null","null","1","","","","","","","","","",""
"","","","","","rating_trial","survey-html-form","66","703741","0.0-3.0-1.31","32","1","2025-04-11 14:06:06","bb671e3ae32f654b8954ea4c4635f915","","Mozilla/5.0 (Macintosh; Intel Mac OS X 10_15_7) AppleWebKit/605.1.15 (KHTML, like Gecko) Version/16.2 Safari/605.1.15","Macintosh","Safari","16.2","OS X","10_15_7","https://hz8g1ckzuq.cognition.run/","en-US,en;q=0.9","zfhwypnv1mwx9gy","37","[""White""]","No","Female","1170174","27673","","","{""price_1"":""475"",""price_2"":""450"",""price_3"":""500""}","rating","dct","repulsion_2","2","washing machines","null","null","null","null","null","null","1","30","40","20","100","90","100","Average lifespan","Energy savings","",""
"","","","","","rating_trial_setup","html-keyboard-response","67","704047","0.0-3.0-0.32","32","1","2025-04-11 14:06:06","bb671e3ae32f654b8954ea4c4635f915","","Mozilla/5.0 (Macintosh; Intel Mac OS X 10_15_7) AppleWebKit/605.1.15 (KHTML, like Gecko) Version/16.2 Safari/605.1.15","Macintosh","Safari","16.2","OS X","10_15_7","https://hz8g1ckzuq.cognition.run/","en-US,en;q=0.9","zfhwypnv1mwx9gy","37","[""White""]","No","Female","1170174","null","","<p></p>","null","rating","wbw","catch","null","microwave ovens","60","60","50","45","40","35","2","","","","","","","","","",""
"","","","","","rating_trial","survey-html-form","68","716574","0.0-3.0-1.32","32","1","2025-04-11 14:06:06","bb671e3ae32f654b8954ea4c4635f915","","Mozilla/5.0 (Macintosh; Intel Mac OS X 10_15_7) AppleWebKit/605.1.15 (KHTML, like Gecko) Version/16.2 Safari/605.1.15","Macintosh","Safari","16.2","OS X","10_15_7","https://hz8g1ckzuq.cognition.run/","en-US,en;q=0.9","zfhwypnv1mwx9gy","37","[""White""]","No","Female","1170174","12519","","","{""price_1"":""80"",""price_2"":""90"",""price_3"":""70""}","rating","wbw","catch","null","microwave ovens","60","60","50","45","40","35","2","null","null","null","null","null","null","Warranty","Cooking power","",""
"","","","","","rating_trial_setup","html-keyboard-response","69","716879","0.0-3.0-0.33","32","1","2025-04-11 14:06:06","bb671e3ae32f654b8954ea4c4635f915","","Mozilla/5.0 (Macintosh; Intel Mac OS X 10_15_7) AppleWebKit/605.1.15 (KHTML, like Gecko) Version/16.2 Safari/605.1.15","Macintosh","Safari","16.2","OS X","10_15_7","https://hz8g1ckzuq.cognition.run/","en-US,en;q=0.9","zfhwypnv1mwx9gy","37","[""White""]","No","Female","1170174","null","","<p></p>","null","rating","dtc","repulsion_1","1","laptops","null","null","null","null","null","null","2","","","","","","","","","",""
"","","","","","rating_trial","survey-html-form","70","738525","0.0-3.0-1.33","32","1","2025-04-11 14:06:06","bb671e3ae32f654b8954ea4c4635f915","","Mozilla/5.0 (Macintosh; Intel Mac OS X 10_15_7) AppleWebKit/605.1.15 (KHTML, like Gecko) Version/16.2 Safari/605.1.15","Macintosh","Safari","16.2","OS X","10_15_7","https://hz8g1ckzuq.cognition.run/","en-US,en;q=0.9","zfhwypnv1mwx9gy","37","[""White""]","No","Female","1170174","21638","","","{""price_1"":""275"",""price_2"":""300"",""price_3"":""275""}","rating","dtc","repulsion_1","1","laptops","null","null","null","null","null","null","2","100","90","100","30","40","25","Processing speed","Memory (RAM)","",""
"","","","","","rating_trial_setup","html-keyboard-response","71","738830","0.0-3.0-0.34","32","1","2025-04-11 14:06:06","bb671e3ae32f654b8954ea4c4635f915","","Mozilla/5.0 (Macintosh; Intel Mac OS X 10_15_7) AppleWebKit/605.1.15 (KHTML, like Gecko) Version/16.2 Safari/605.1.15","Macintosh","Safari","16.2","OS X","10_15_7","https://hz8g1ckzuq.cognition.run/","en-US,en;q=0.9","zfhwypnv1mwx9gy","37","[""White""]","No","Female","1170174","null","","<p></p>","null","rating","ctd","attraction_2","2","washing machines","null","null","null","null","null","null","1","","","","","","","","","",""
"","","","","","rating_trial","survey-html-form","72","764190","0.0-3.0-1.34","32","1","2025-04-11 14:06:06","bb671e3ae32f654b8954ea4c4635f915","","Mozilla/5.0 (Macintosh; Intel Mac OS X 10_15_7) AppleWebKit/605.1.15 (KHTML, like Gecko) Version/16.2 Safari/605.1.15","Macintosh","Safari","16.2","OS X","10_15_7","https://hz8g1ckzuq.cognition.run/","en-US,en;q=0.9","zfhwypnv1mwx9gy","37","[""White""]","No","Female","1170174","25354","","","{""price_1"":""350"",""price_2"":""400"",""price_3"":""375""}","rating","ctd","attraction_2","2","washing machines","null","null","null","null","null","null","1","50","60","40","60","50","60","Average lifespan","Energy savings","",""
"","","","","","rating_trial_setup","html-keyboard-response","73","764495","0.0-3.0-0.35","32","1","2025-04-11 14:06:06","bb671e3ae32f654b8954ea4c4635f915","","Mozilla/5.0 (Macintosh; Intel Mac OS X 10_15_7) AppleWebKit/605.1.15 (KHTML, like Gecko) Version/16.2 Safari/605.1.15","Macintosh","Safari","16.2","OS X","10_15_7","https://hz8g1ckzuq.cognition.run/","en-US,en;q=0.9","zfhwypnv1mwx9gy","37","[""White""]","No","Female","1170174","null","","<p></p>","null","rating","ctd","attraction_1","1","microwave ovens","null","null","null","null","null","null","2","","","","","","","","","",""
"","","","","","rating_trial","survey-html-form","74","774357","0.0-3.0-1.35","32","1","2025-04-11 14:06:06","bb671e3ae32f654b8954ea4c4635f915","","Mozilla/5.0 (Macintosh; Intel Mac OS X 10_15_7) AppleWebKit/605.1.15 (KHTML, like Gecko) Version/16.2 Safari/605.1.15","Macintosh","Safari","16.2","OS X","10_15_7","https://hz8g1ckzuq.cognition.run/","en-US,en;q=0.9","zfhwypnv1mwx9gy","37","[""White""]","No","Female","1170174","9855","","","{""price_1"":""80"",""price_2"":""75"",""price_3"":""75""}","rating","ctd","attraction_1","1","microwave ovens","null","null","null","null","null","null","2","60","50","60","50","60","45","Warranty","Cooking power","",""
"","","","","","rating_trial_setup","html-keyboard-response","75","774663","0.0-3.0-0.36","32","1","2025-04-11 14:06:06","bb671e3ae32f654b8954ea4c4635f915","","Mozilla/5.0 (Macintosh; Intel Mac OS X 10_15_7) AppleWebKit/605.1.15 (KHTML, like Gecko) Version/16.2 Safari/605.1.15","Macintosh","Safari","16.2","OS X","10_15_7","https://hz8g1ckzuq.cognition.run/","en-US,en;q=0.9","zfhwypnv1mwx9gy","37","[""White""]","No","Female","1170174","null","","<p></p>","null","rating","tcd","attraction_1","1","washing machines","null","null","null","null","null","null","1","","","","","","","","","",""
"","","","","","rating_trial","survey-html-form","76","792658","0.0-3.0-1.36","32","1","2025-04-11 14:06:06","bb671e3ae32f654b8954ea4c4635f915","","Mozilla/5.0 (Macintosh; Intel Mac OS X 10_15_7) AppleWebKit/605.1.15 (KHTML, like Gecko) Version/16.2 Safari/605.1.15","Macintosh","Safari","16.2","OS X","10_15_7","https://hz8g1ckzuq.cognition.run/","en-US,en;q=0.9","zfhwypnv1mwx9gy","37","[""White""]","No","Female","1170174","17988","","","{""price_1"":""400"",""price_2"":""450"",""price_3"":""400""}","rating","tcd","attraction_1","1","washing machines","null","null","null","null","null","null","1","60","50","60","50","60","45","Average lifespan","Energy savings","",""
"","","","","","rating_trial_setup","html-keyboard-response","77","792965","0.0-3.0-0.37","32","1","2025-04-11 14:06:06","bb671e3ae32f654b8954ea4c4635f915","","Mozilla/5.0 (Macintosh; Intel Mac OS X 10_15_7) AppleWebKit/605.1.15 (KHTML, like Gecko) Version/16.2 Safari/605.1.15","Macintosh","Safari","16.2","OS X","10_15_7","https://hz8g1ckzuq.cognition.run/","en-US,en;q=0.9","zfhwypnv1mwx9gy","37","[""White""]","No","Female","1170174","null","","<p></p>","null","rating","cdt","attraction_1","2","televisions","null","null","null","null","null","null","2","","","","","","","","","",""
"","","","","","rating_trial","survey-html-form","78","808307","0.0-3.0-1.37","32","1","2025-04-11 14:06:06","bb671e3ae32f654b8954ea4c4635f915","","Mozilla/5.0 (Macintosh; Intel Mac OS X 10_15_7) AppleWebKit/605.1.15 (KHTML, like Gecko) Version/16.2 Safari/605.1.15","Macintosh","Safari","16.2","OS X","10_15_7","https://hz8g1ckzuq.cognition.run/","en-US,en;q=0.9","zfhwypnv1mwx9gy","37","[""White""]","No","Female","1170174","15335","","","{""price_1"":""250"",""price_2"":""230"",""price_3"":""240""}","rating","cdt","attraction_1","2","televisions","null","null","null","null","null","null","2","50","60","45","60","50","60","Screen size","Average lifespan","",""
"","","","","","rating_trial_setup","html-keyboard-response","79","808615","0.0-3.0-0.38","32","1","2025-04-11 14:06:06","bb671e3ae32f654b8954ea4c4635f915","","Mozilla/5.0 (Macintosh; Intel Mac OS X 10_15_7) AppleWebKit/605.1.15 (KHTML, like Gecko) Version/16.2 Safari/605.1.15","Macintosh","Safari","16.2","OS X","10_15_7","https://hz8g1ckzuq.cognition.run/","en-US,en;q=0.9","zfhwypnv1mwx9gy","37","[""White""]","No","Female","1170174","null","","<p></p>","null","rating","tcd","attraction_1","2","washing machines","null","null","null","null","null","null","1","","","","","","","","","",""
"","","","","","rating_trial","survey-html-form","80","830340","0.0-3.0-1.38","32","1","2025-04-11 14:06:06","bb671e3ae32f654b8954ea4c4635f915","","Mozilla/5.0 (Macintosh; Intel Mac OS X 10_15_7) AppleWebKit/605.1.15 (KHTML, like Gecko) Version/16.2 Safari/605.1.15","Macintosh","Safari","16.2","OS X","10_15_7","https://hz8g1ckzuq.cognition.run/","en-US,en;q=0.9","zfhwypnv1mwx9gy","37","[""White""]","No","Female","1170174","21722","","","{""price_1"":""475"",""price_2"":""425"",""price_3"":""450""}","rating","tcd","attraction_1","2","washing machines","null","null","null","null","null","null","1","50","60","45","60","50","60","Average lifespan","Energy savings","",""
"","","","","","rating_trial_setup","html-keyboard-response","81","830644","0.0-3.0-0.39","32","1","2025-04-11 14:06:06","bb671e3ae32f654b8954ea4c4635f915","","Mozilla/5.0 (Macintosh; Intel Mac OS X 10_15_7) AppleWebKit/605.1.15 (KHTML, like Gecko) Version/16.2 Safari/605.1.15","Macintosh","Safari","16.2","OS X","10_15_7","https://hz8g1ckzuq.cognition.run/","en-US,en;q=0.9","zfhwypnv1mwx9gy","37","[""White""]","No","Female","1170174","null","","<p></p>","null","rating","dtc","attraction_2","1","washing machines","null","null","null","null","null","null","1","","","","","","","","","",""
"","","","","","rating_trial","survey-html-form","82","854974","0.0-3.0-1.39","32","1","2025-04-11 14:06:06","bb671e3ae32f654b8954ea4c4635f915","","Mozilla/5.0 (Macintosh; Intel Mac OS X 10_15_7) AppleWebKit/605.1.15 (KHTML, like Gecko) Version/16.2 Safari/605.1.15","Macintosh","Safari","16.2","OS X","10_15_7","https://hz8g1ckzuq.cognition.run/","en-US,en;q=0.9","zfhwypnv1mwx9gy","37","[""White""]","No","Female","1170174","24323","","","{""price_1"":""350"",""price_2"":""375"",""price_3"":""400""}","rating","dtc","attraction_2","1","washing machines","null","null","null","null","null","null","1","60","50","60","50","60","40","Average lifespan","Energy savings","",""
"","","","","","","instructions","83","880954","0.0-4.0","32","1","2025-04-11 14:06:06","bb671e3ae32f654b8954ea4c4635f915","","Mozilla/5.0 (Macintosh; Intel Mac OS X 10_15_7) AppleWebKit/605.1.15 (KHTML, like Gecko) Version/16.2 Safari/605.1.15","Macintosh","Safari","16.2","OS X","10_15_7","https://hz8g1ckzuq.cognition.run/","en-US,en;q=0.9","zfhwypnv1mwx9gy","37","[""White""]","No","Female","1170174","25976","[{""page_index"":0,""viewing_time"":1943},{""page_index"":1,""viewing_time"":1370},{""page_index"":2,""viewing_time"":2298},{""page_index"":3,""viewing_time"":3749},{""page_index"":4,""viewing_time"":4933},{""page_index"":5,""viewing_time"":3882},{""page_index"":6,""viewing_time"":3969},{""page_index"":7,""viewing_time"":3832}]","","","","","","","","","","","","","","","","","","","","","","","",""
"","","","","","choice_trial_setup","html-keyboard-response","84","881265","0.0-5.0-0.0","32","1","2025-04-11 14:06:06","bb671e3ae32f654b8954ea4c4635f915","","Mozilla/5.0 (Macintosh; Intel Mac OS X 10_15_7) AppleWebKit/605.1.15 (KHTML, like Gecko) Version/16.2 Safari/605.1.15","Macintosh","Safari","16.2","OS X","10_15_7","https://hz8g1ckzuq.cognition.run/","en-US,en;q=0.9","zfhwypnv1mwx9gy","37","[""White""]","No","Female","1170174","null","","<p></p>","null","choice","dct","attraction_1","2","washing machines","null","null","null","null","null","null","1","","","","","","","","","",""
"","","","","","choice_trial","survey-html-form","85","885979","0.0-5.0-1.0","32","1","2025-04-11 14:06:06","bb671e3ae32f654b8954ea4c4635f915","","Mozilla/5.0 (Macintosh; Intel Mac OS X 10_15_7) AppleWebKit/605.1.15 (KHTML, like Gecko) Version/16.2 Safari/605.1.15","Macintosh","Safari","16.2","OS X","10_15_7","https://hz8g1ckzuq.cognition.run/","en-US,en;q=0.9","zfhwypnv1mwx9gy","37","[""White""]","No","Female","1170174","4708","","","{""product_choice"":""C""}","choice","dct","attraction_1","2","washing machines","null","null","null","null","null","null","1","50","60","45","60","50","60","Average lifespan","Energy savings","",""
"","","","","","choice_trial_setup","html-keyboard-response","86","886283","0.0-5.0-0.1","32","1","2025-04-11 14:06:06","bb671e3ae32f654b8954ea4c4635f915","","Mozilla/5.0 (Macintosh; Intel Mac OS X 10_15_7) AppleWebKit/605.1.15 (KHTML, like Gecko) Version/16.2 Safari/605.1.15","Macintosh","Safari","16.2","OS X","10_15_7","https://hz8g1ckzuq.cognition.run/","en-US,en;q=0.9","zfhwypnv1mwx9gy","37","[""White""]","No","Female","1170174","null","","<p></p>","null","choice","tdc","attraction_1","1","microwave ovens","null","null","null","null","null","null","1","","","","","","","","","",""
"","","","","","choice_trial","survey-html-form","87","889809","0.0-5.0-1.1","32","1","2025-04-11 14:06:06","bb671e3ae32f654b8954ea4c4635f915","","Mozilla/5.0 (Macintosh; Intel Mac OS X 10_15_7) AppleWebKit/605.1.15 (KHTML, like Gecko) Version/16.2 Safari/605.1.15","Macintosh","Safari","16.2","OS X","10_15_7","https://hz8g1ckzuq.cognition.run/","en-US,en;q=0.9","zfhwypnv1mwx9gy","37","[""White""]","No","Female","1170174","3518","","","{""product_choice"":""C""}","choice","tdc","attraction_1","1","microwave ovens","null","null","null","null","null","null","1","60","50","60","50","60","45","Warranty","Cooking power","",""
"","","","","","choice_trial_setup","html-keyboard-response","88","890113","0.0-5.0-0.2","32","1","2025-04-11 14:06:06","bb671e3ae32f654b8954ea4c4635f915","","Mozilla/5.0 (Macintosh; Intel Mac OS X 10_15_7) AppleWebKit/605.1.15 (KHTML, like Gecko) Version/16.2 Safari/605.1.15","Macintosh","Safari","16.2","OS X","10_15_7","https://hz8g1ckzuq.cognition.run/","en-US,en;q=0.9","zfhwypnv1mwx9gy","37","[""White""]","No","Female","1170174","null","","<p></p>","null","choice","tcd","repulsion_2","1","televisions","null","null","null","null","null","null","2","","","","","","","","","",""
"","","","","","choice_trial","survey-html-form","89","895008","0.0-5.0-1.2","32","1","2025-04-11 14:06:06","bb671e3ae32f654b8954ea4c4635f915","","Mozilla/5.0 (Macintosh; Intel Mac OS X 10_15_7) AppleWebKit/605.1.15 (KHTML, like Gecko) Version/16.2 Safari/605.1.15","Macintosh","Safari","16.2","OS X","10_15_7","https://hz8g1ckzuq.cognition.run/","en-US,en;q=0.9","zfhwypnv1mwx9gy","37","[""White""]","No","Female","1170174","4887","","","{""product_choice"":""A""}","choice","tcd","repulsion_2","1","televisions","null","null","null","null","null","null","2","100","90","100","30","40","20","Screen size","Average lifespan","",""
"","","","","","choice_trial_setup","html-keyboard-response","90","895314","0.0-5.0-0.3","32","1","2025-04-11 14:06:06","bb671e3ae32f654b8954ea4c4635f915","","Mozilla/5.0 (Macintosh; Intel Mac OS X 10_15_7) AppleWebKit/605.1.15 (KHTML, like Gecko) Version/16.2 Safari/605.1.15","Macintosh","Safari","16.2","OS X","10_15_7","https://hz8g1ckzuq.cognition.run/","en-US,en;q=0.9","zfhwypnv1mwx9gy","37","[""White""]","No","Female","1170174","null","","<p></p>","null","choice","bww","catch","null","microwave ovens","90","65","50","5","30","20","1","","","","","","","","","",""
"","","","","","choice_trial","survey-html-form","91","899107","0.0-5.0-1.3","32","1","2025-04-11 14:06:06","bb671e3ae32f654b8954ea4c4635f915","","Mozilla/5.0 (Macintosh; Intel Mac OS X 10_15_7) AppleWebKit/605.1.15 (KHTML, like Gecko) Version/16.2 Safari/605.1.15","Macintosh","Safari","16.2","OS X","10_15_7","https://hz8g1ckzuq.cognition.run/","en-US,en;q=0.9","zfhwypnv1mwx9gy","37","[""White""]","No","Female","1170174","3788","","","{""product_choice"":""A""}","choice","bww","catch","null","microwave ovens","90","65","50","5","30","20","1","null","null","null","null","null","null","Warranty","Cooking power","",""
"","","","","","choice_trial_setup","html-keyboard-response","92","899413","0.0-5.0-0.4","32","1","2025-04-11 14:06:06","bb671e3ae32f654b8954ea4c4635f915","","Mozilla/5.0 (Macintosh; Intel Mac OS X 10_15_7) AppleWebKit/605.1.15 (KHTML, like Gecko) Version/16.2 Safari/605.1.15","Macintosh","Safari","16.2","OS X","10_15_7","https://hz8g1ckzuq.cognition.run/","en-US,en;q=0.9","zfhwypnv1mwx9gy","37","[""White""]","No","Female","1170174","null","","<p></p>","null","choice","tcd","attraction_1","2","televisions","null","null","null","null","null","null","1","","","","","","","","","",""
"","","","","","choice_trial","survey-html-form","93","904094","0.0-5.0-1.4","32","1","2025-04-11 14:06:06","bb671e3ae32f654b8954ea4c4635f915","","Mozilla/5.0 (Macintosh; Intel Mac OS X 10_15_7) AppleWebKit/605.1.15 (KHTML, like Gecko) Version/16.2 Safari/605.1.15","Macintosh","Safari","16.2","OS X","10_15_7","https://hz8g1ckzuq.cognition.run/","en-US,en;q=0.9","zfhwypnv1mwx9gy","37","[""White""]","No","Female","1170174","4673","","","{""product_choice"":""B""}","choice","tcd","attraction_1","2","televisions","null","null","null","null","null","null","1","50","60","45","60","50","60","Screen size","Average lifespan","",""
"","","","","","choice_trial_setup","html-keyboard-response","94","904399","0.0-5.0-0.5","32","1","2025-04-11 14:06:06","bb671e3ae32f654b8954ea4c4635f915","","Mozilla/5.0 (Macintosh; Intel Mac OS X 10_15_7) AppleWebKit/605.1.15 (KHTML, like Gecko) Version/16.2 Safari/605.1.15","Macintosh","Safari","16.2","OS X","10_15_7","https://hz8g1ckzuq.cognition.run/","en-US,en;q=0.9","zfhwypnv1mwx9gy","37","[""White""]","No","Female","1170174","null","","<p></p>","null","choice","wwb","catch","null","televisions","60","95","20","10","45","30","2","","","","","","","","","",""
"","","","","","choice_trial","survey-html-form","95","907927","0.0-5.0-1.5","32","1","2025-04-11 14:06:06","bb671e3ae32f654b8954ea4c4635f915","","Mozilla/5.0 (Macintosh; Intel Mac OS X 10_15_7) AppleWebKit/605.1.15 (KHTML, like Gecko) Version/16.2 Safari/605.1.15","Macintosh","Safari","16.2","OS X","10_15_7","https://hz8g1ckzuq.cognition.run/","en-US,en;q=0.9","zfhwypnv1mwx9gy","37","[""White""]","No","Female","1170174","3522","","","{""product_choice"":""C""}","choice","wwb","catch","null","televisions","60","95","20","10","45","30","2","null","null","null","null","null","null","Screen size","Average lifespan","",""
"","","","","","choice_trial_setup","html-keyboard-response","96","908232","0.0-5.0-0.6","32","1","2025-04-11 14:06:06","bb671e3ae32f654b8954ea4c4635f915","","Mozilla/5.0 (Macintosh; Intel Mac OS X 10_15_7) AppleWebKit/605.1.15 (KHTML, like Gecko) Version/16.2 Safari/605.1.15","Macintosh","Safari","16.2","OS X","10_15_7","https://hz8g1ckzuq.cognition.run/","en-US,en;q=0.9","zfhwypnv1mwx9gy","37","[""White""]","No","Female","1170174","null","","<p></p>","null","choice","wwb","catch","null","microwave ovens","75","85","20","20","15","25","1","","","","","","","","","",""
"","","","","","choice_trial","survey-html-form","97","911510","0.0-5.0-1.6","32","1","2025-04-11 14:06:06","bb671e3ae32f654b8954ea4c4635f915","","Mozilla/5.0 (Macintosh; Intel Mac OS X 10_15_7) AppleWebKit/605.1.15 (KHTML, like Gecko) Version/16.2 Safari/605.1.15","Macintosh","Safari","16.2","OS X","10_15_7","https://hz8g1ckzuq.cognition.run/","en-US,en;q=0.9","zfhwypnv1mwx9gy","37","[""White""]","No","Female","1170174","3271","","","{""product_choice"":""C""}","choice","wwb","catch","null","microwave ovens","75","85","20","20","15","25","1","null","null","null","null","null","null","Warranty","Cooking power","",""
"","","","","","choice_trial_setup","html-keyboard-response","98","911815","0.0-5.0-0.7","32","1","2025-04-11 14:06:06","bb671e3ae32f654b8954ea4c4635f915","","Mozilla/5.0 (Macintosh; Intel Mac OS X 10_15_7) AppleWebKit/605.1.15 (KHTML, like Gecko) Version/16.2 Safari/605.1.15","Macintosh","Safari","16.2","OS X","10_15_7","https://hz8g1ckzuq.cognition.run/","en-US,en;q=0.9","zfhwypnv1mwx9gy","37","[""White""]","No","Female","1170174","null","","<p></p>","null","choice","dct","attraction_2","1","washing machines","null","null","null","null","null","null","2","","","","","","","","","",""
"","","","","","choice_trial","survey-html-form","99","917958","0.0-5.0-1.7","32","1","2025-04-11 14:06:06","bb671e3ae32f654b8954ea4c4635f915","","Mozilla/5.0 (Macintosh; Intel Mac OS X 10_15_7) AppleWebKit/605.1.15 (KHTML, like Gecko) Version/16.2 Safari/605.1.15","Macintosh","Safari","16.2","OS X","10_15_7","https://hz8g1ckzuq.cognition.run/","en-US,en;q=0.9","zfhwypnv1mwx9gy","37","[""White""]","No","Female","1170174","6135","","","{""product_choice"":""B""}","choice","dct","attraction_2","1","washing machines","null","null","null","null","null","null","2","60","50","60","50","60","40","Average lifespan","Energy savings","",""
"","","","","","choice_trial_setup","html-keyboard-response","100","918263","0.0-5.0-0.8","32","1","2025-04-11 14:06:06","bb671e3ae32f654b8954ea4c4635f915","","Mozilla/5.0 (Macintosh; Intel Mac OS X 10_15_7) AppleWebKit/605.1.15 (KHTML, like Gecko) Version/16.2 Safari/605.1.15","Macintosh","Safari","16.2","OS X","10_15_7","https://hz8g1ckzuq.cognition.run/","en-US,en;q=0.9","zfhwypnv1mwx9gy","37","[""White""]","No","Female","1170174","null","","<p></p>","null","choice","cdt","repulsion_2","1","washing machines","null","null","null","null","null","null","2","","","","","","","","","",""
"","","","","","choice_trial","survey-html-form","101","922091","0.0-5.0-1.8","32","1","2025-04-11 14:06:06","bb671e3ae32f654b8954ea4c4635f915","","Mozilla/5.0 (Macintosh; Intel Mac OS X 10_15_7) AppleWebKit/605.1.15 (KHTML, like Gecko) Version/16.2 Safari/605.1.15","Macintosh","Safari","16.2","OS X","10_15_7","https://hz8g1ckzuq.cognition.run/","en-US,en;q=0.9","zfhwypnv1mwx9gy","37","[""White""]","No","Female","1170174","3820","","","{""product_choice"":""A""}","choice","cdt","repulsion_2","1","washing machines","null","null","null","null","null","null","2","100","90","100","30","40","20","Average lifespan","Energy savings","",""
"","","","","","choice_trial_setup","html-keyboard-response","102","922397","0.0-5.0-0.9","32","1","2025-04-11 14:06:06","bb671e3ae32f654b8954ea4c4635f915","","Mozilla/5.0 (Macintosh; Intel Mac OS X 10_15_7) AppleWebKit/605.1.15 (KHTML, like Gecko) Version/16.2 Safari/605.1.15","Macintosh","Safari","16.2","OS X","10_15_7","https://hz8g1ckzuq.cognition.run/","en-US,en;q=0.9","zfhwypnv1mwx9gy","37","[""White""]","No","Female","1170174","null","","<p></p>","null","choice","dct","repulsion_1","1","laptops","null","null","null","null","null","null","2","","","","","","","","","",""
"","","","","","choice_trial","survey-html-form","103","927981","0.0-5.0-1.9","32","1","2025-04-11 14:06:06","bb671e3ae32f654b8954ea4c4635f915","","Mozilla/5.0 (Macintosh; Intel Mac OS X 10_15_7) AppleWebKit/605.1.15 (KHTML, like Gecko) Version/16.2 Safari/605.1.15","Macintosh","Safari","16.2","OS X","10_15_7","https://hz8g1ckzuq.cognition.run/","en-US,en;q=0.9","zfhwypnv1mwx9gy","37","[""White""]","No","Female","1170174","5574","","","{""product_choice"":""C""}","choice","dct","repulsion_1","1","laptops","null","null","null","null","null","null","2","100","90","100","30","40","25","Processing speed","Memory (RAM)","",""
"","","","","","choice_trial_setup","html-keyboard-response","104","928288","0.0-5.0-0.10","32","1","2025-04-11 14:06:06","bb671e3ae32f654b8954ea4c4635f915","","Mozilla/5.0 (Macintosh; Intel Mac OS X 10_15_7) AppleWebKit/605.1.15 (KHTML, like Gecko) Version/16.2 Safari/605.1.15","Macintosh","Safari","16.2","OS X","10_15_7","https://hz8g1ckzuq.cognition.run/","en-US,en;q=0.9","zfhwypnv1mwx9gy","37","[""White""]","No","Female","1170174","null","","<p></p>","null","choice","tdc","repulsion_2","2","laptops","null","null","null","null","null","null","2","","","","","","","","","",""
"","","","","","choice_trial","survey-html-form","105","932551","0.0-5.0-1.10","32","1","2025-04-11 14:06:06","bb671e3ae32f654b8954ea4c4635f915","","Mozilla/5.0 (Macintosh; Intel Mac OS X 10_15_7) AppleWebKit/605.1.15 (KHTML, like Gecko) Version/16.2 Safari/605.1.15","Macintosh","Safari","16.2","OS X","10_15_7","https://hz8g1ckzuq.cognition.run/","en-US,en;q=0.9","zfhwypnv1mwx9gy","37","[""White""]","No","Female","1170174","4253","","","{""product_choice"":""C""}","choice","tdc","repulsion_2","2","laptops","null","null","null","null","null","null","2","30","40","20","100","90","100","Processing speed","Memory (RAM)","",""
"","","","","","choice_trial_setup","html-keyboard-response","106","932857","0.0-5.0-0.11","32","1","2025-04-11 14:06:06","bb671e3ae32f654b8954ea4c4635f915","","Mozilla/5.0 (Macintosh; Intel Mac OS X 10_15_7) AppleWebKit/605.1.15 (KHTML, like Gecko) Version/16.2 Safari/605.1.15","Macintosh","Safari","16.2","OS X","10_15_7","https://hz8g1ckzuq.cognition.run/","en-US,en;q=0.9","zfhwypnv1mwx9gy","37","[""White""]","No","Female","1170174","null","","<p></p>","null","choice","tdc","attraction_2","1","laptops","null","null","null","null","null","null","1","","","","","","","","","",""
"","","","","","choice_trial","survey-html-form","107","937117","0.0-5.0-1.11","32","1","2025-04-11 14:06:06","bb671e3ae32f654b8954ea4c4635f915","","Mozilla/5.0 (Macintosh; Intel Mac OS X 10_15_7) AppleWebKit/605.1.15 (KHTML, like Gecko) Version/16.2 Safari/605.1.15","Macintosh","Safari","16.2","OS X","10_15_7","https://hz8g1ckzuq.cognition.run/","en-US,en;q=0.9","zfhwypnv1mwx9gy","37","[""White""]","No","Female","1170174","4251","","","{""product_choice"":""A""}","choice","tdc","attraction_2","1","laptops","null","null","null","null","null","null","1","60","50","60","50","60","40","Processing speed","Memory (RAM)","",""
"","","","","","choice_trial_setup","html-keyboard-response","108","937423","0.0-5.0-0.12","32","1","2025-04-11 14:06:06","bb671e3ae32f654b8954ea4c4635f915","","Mozilla/5.0 (Macintosh; Intel Mac OS X 10_15_7) AppleWebKit/605.1.15 (KHTML, like Gecko) Version/16.2 Safari/605.1.15","Macintosh","Safari","16.2","OS X","10_15_7","https://hz8g1ckzuq.cognition.run/","en-US,en;q=0.9","zfhwypnv1mwx9gy","37","[""White""]","No","Female","1170174","null","","<p></p>","null","choice","dct","attraction_2","2","laptops","null","null","null","null","null","null","1","","","","","","","","","",""
"","","","","","choice_trial","survey-html-form","109","950887","0.0-5.0-1.12","32","1","2025-04-11 14:06:06","bb671e3ae32f654b8954ea4c4635f915","","Mozilla/5.0 (Macintosh; Intel Mac OS X 10_15_7) AppleWebKit/605.1.15 (KHTML, like Gecko) Version/16.2 Safari/605.1.15","Macintosh","Safari","16.2","OS X","10_15_7","https://hz8g1ckzuq.cognition.run/","en-US,en;q=0.9","zfhwypnv1mwx9gy","37","[""White""]","No","Female","1170174","13453","","","{""product_choice"":""B""}","choice","dct","attraction_2","2","laptops","null","null","null","null","null","null","1","50","60","40","60","50","60","Processing speed","Memory (RAM)","",""
"","","","","","choice_trial_setup","html-keyboard-response","110","951193","0.0-5.0-0.13","32","1","2025-04-11 14:06:06","bb671e3ae32f654b8954ea4c4635f915","","Mozilla/5.0 (Macintosh; Intel Mac OS X 10_15_7) AppleWebKit/605.1.15 (KHTML, like Gecko) Version/16.2 Safari/605.1.15","Macintosh","Safari","16.2","OS X","10_15_7","https://hz8g1ckzuq.cognition.run/","en-US,en;q=0.9","zfhwypnv1mwx9gy","37","[""White""]","No","Female","1170174","null","","<p></p>","null","choice","ctd","repulsion_2","2","televisions","null","null","null","null","null","null","2","","","","","","","","","",""
"","","","","","choice_trial","survey-html-form","111","954187","0.0-5.0-1.13","32","1","2025-04-11 14:06:06","bb671e3ae32f654b8954ea4c4635f915","","Mozilla/5.0 (Macintosh; Intel Mac OS X 10_15_7) AppleWebKit/605.1.15 (KHTML, like Gecko) Version/16.2 Safari/605.1.15","Macintosh","Safari","16.2","OS X","10_15_7","https://hz8g1ckzuq.cognition.run/","en-US,en;q=0.9","zfhwypnv1mwx9gy","37","[""White""]","No","Female","1170174","2984","","","{""product_choice"":""A""}","choice","ctd","repulsion_2","2","televisions","null","null","null","null","null","null","2","30","40","20","100","90","100","Screen size","Average lifespan","",""
"","","","","","choice_trial_setup","html-keyboard-response","112","954493","0.0-5.0-0.14","32","1","2025-04-11 14:06:06","bb671e3ae32f654b8954ea4c4635f915","","Mozilla/5.0 (Macintosh; Intel Mac OS X 10_15_7) AppleWebKit/605.1.15 (KHTML, like Gecko) Version/16.2 Safari/605.1.15","Macintosh","Safari","16.2","OS X","10_15_7","https://hz8g1ckzuq.cognition.run/","en-US,en;q=0.9","zfhwypnv1mwx9gy","37","[""White""]","No","Female","1170174","null","","<p></p>","null","choice","dtc","repulsion_1","2","washing machines","null","null","null","null","null","null","1","","","","","","","","","",""
"","","","","","choice_trial","survey-html-form","113","958807","0.0-5.0-1.14","32","1","2025-04-11 14:06:06","bb671e3ae32f654b8954ea4c4635f915","","Mozilla/5.0 (Macintosh; Intel Mac OS X 10_15_7) AppleWebKit/605.1.15 (KHTML, like Gecko) Version/16.2 Safari/605.1.15","Macintosh","Safari","16.2","OS X","10_15_7","https://hz8g1ckzuq.cognition.run/","en-US,en;q=0.9","zfhwypnv1mwx9gy","37","[""White""]","No","Female","1170174","4306","","","{""product_choice"":""B""}","choice","dtc","repulsion_1","2","washing machines","null","null","null","null","null","null","1","30","40","25","100","90","100","Average lifespan","Energy savings","",""
"","","","","","choice_trial_setup","html-keyboard-response","114","959113","0.0-5.0-0.15","32","1","2025-04-11 14:06:06","bb671e3ae32f654b8954ea4c4635f915","","Mozilla/5.0 (Macintosh; Intel Mac OS X 10_15_7) AppleWebKit/605.1.15 (KHTML, like Gecko) Version/16.2 Safari/605.1.15","Macintosh","Safari","16.2","OS X","10_15_7","https://hz8g1ckzuq.cognition.run/","en-US,en;q=0.9","zfhwypnv1mwx9gy","37","[""White""]","No","Female","1170174","null","","<p></p>","null","choice","tdc","repulsion_2","2","washing machines","null","null","null","null","null","null","1","","","","","","","","","",""
"","","","","","choice_trial","survey-html-form","115","966688","0.0-5.0-1.15","32","1","2025-04-11 14:06:06","bb671e3ae32f654b8954ea4c4635f915","","Mozilla/5.0 (Macintosh; Intel Mac OS X 10_15_7) AppleWebKit/605.1.15 (KHTML, like Gecko) Version/16.2 Safari/605.1.15","Macintosh","Safari","16.2","OS X","10_15_7","https://hz8g1ckzuq.cognition.run/","en-US,en;q=0.9","zfhwypnv1mwx9gy","37","[""White""]","No","Female","1170174","7567","","","{""product_choice"":""A""}","choice","tdc","repulsion_2","2","washing machines","null","null","null","null","null","null","1","30","40","20","100","90","100","Average lifespan","Energy savings","",""
"","","","","","choice_trial_setup","html-keyboard-response","116","966994","0.0-5.0-0.16","32","1","2025-04-11 14:06:06","bb671e3ae32f654b8954ea4c4635f915","","Mozilla/5.0 (Macintosh; Intel Mac OS X 10_15_7) AppleWebKit/605.1.15 (KHTML, like Gecko) Version/16.2 Safari/605.1.15","Macintosh","Safari","16.2","OS X","10_15_7","https://hz8g1ckzuq.cognition.run/","en-US,en;q=0.9","zfhwypnv1mwx9gy","37","[""White""]","No","Female","1170174","null","","<p></p>","null","choice","tdc","attraction_2","2","washing machines","null","null","null","null","null","null","2","","","","","","","","","",""
"","","","","","choice_trial","survey-html-form","117","972406","0.0-5.0-1.16","32","1","2025-04-11 14:06:06","bb671e3ae32f654b8954ea4c4635f915","","Mozilla/5.0 (Macintosh; Intel Mac OS X 10_15_7) AppleWebKit/605.1.15 (KHTML, like Gecko) Version/16.2 Safari/605.1.15","Macintosh","Safari","16.2","OS X","10_15_7","https://hz8g1ckzuq.cognition.run/","en-US,en;q=0.9","zfhwypnv1mwx9gy","37","[""White""]","No","Female","1170174","5404","","","{""product_choice"":""A""}","choice","tdc","attraction_2","2","washing machines","null","null","null","null","null","null","2","50","60","40","60","50","60","Average lifespan","Energy savings","",""
"","","","","","choice_trial_setup","html-keyboard-response","118","972718","0.0-5.0-0.17","32","1","2025-04-11 14:06:06","bb671e3ae32f654b8954ea4c4635f915","","Mozilla/5.0 (Macintosh; Intel Mac OS X 10_15_7) AppleWebKit/605.1.15 (KHTML, like Gecko) Version/16.2 Safari/605.1.15","Macintosh","Safari","16.2","OS X","10_15_7","https://hz8g1ckzuq.cognition.run/","en-US,en;q=0.9","zfhwypnv1mwx9gy","37","[""White""]","No","Female","1170174","null","","<p></p>","null","choice","dtc","repulsion_1","2","laptops","null","null","null","null","null","null","1","","","","","","","","","",""
"","","","","","choice_trial","survey-html-form","119","976606","0.0-5.0-1.17","32","1","2025-04-11 14:06:06","bb671e3ae32f654b8954ea4c4635f915","","Mozilla/5.0 (Macintosh; Intel Mac OS X 10_15_7) AppleWebKit/605.1.15 (KHTML, like Gecko) Version/16.2 Safari/605.1.15","Macintosh","Safari","16.2","OS X","10_15_7","https://hz8g1ckzuq.cognition.run/","en-US,en;q=0.9","zfhwypnv1mwx9gy","37","[""White""]","No","Female","1170174","3882","","","{""product_choice"":""C""}","choice","dtc","repulsion_1","2","laptops","null","null","null","null","null","null","1","30","40","25","100","90","100","Processing speed","Memory (RAM)","",""
"","","","","","choice_trial_setup","html-keyboard-response","120","976916","0.0-5.0-0.18","32","1","2025-04-11 14:06:06","bb671e3ae32f654b8954ea4c4635f915","","Mozilla/5.0 (Macintosh; Intel Mac OS X 10_15_7) AppleWebKit/605.1.15 (KHTML, like Gecko) Version/16.2 Safari/605.1.15","Macintosh","Safari","16.2","OS X","10_15_7","https://hz8g1ckzuq.cognition.run/","en-US,en;q=0.9","zfhwypnv1mwx9gy","37","[""White""]","No","Female","1170174","null","","<p></p>","null","choice","dct","repulsion_1","2","microwave ovens","null","null","null","null","null","null","1","","","","","","","","","",""
"","","","","","choice_trial","survey-html-form","121","981389","0.0-5.0-1.18","32","1","2025-04-11 14:06:06","bb671e3ae32f654b8954ea4c4635f915","","Mozilla/5.0 (Macintosh; Intel Mac OS X 10_15_7) AppleWebKit/605.1.15 (KHTML, like Gecko) Version/16.2 Safari/605.1.15","Macintosh","Safari","16.2","OS X","10_15_7","https://hz8g1ckzuq.cognition.run/","en-US,en;q=0.9","zfhwypnv1mwx9gy","37","[""White""]","No","Female","1170174","4467","","","{""product_choice"":""C""}","choice","dct","repulsion_1","2","microwave ovens","null","null","null","null","null","null","1","30","40","25","100","90","100","Warranty","Cooking power","",""
"","","","","","choice_trial_setup","html-keyboard-response","122","981695","0.0-5.0-0.19","32","1","2025-04-11 14:06:06","bb671e3ae32f654b8954ea4c4635f915","","Mozilla/5.0 (Macintosh; Intel Mac OS X 10_15_7) AppleWebKit/605.1.15 (KHTML, like Gecko) Version/16.2 Safari/605.1.15","Macintosh","Safari","16.2","OS X","10_15_7","https://hz8g1ckzuq.cognition.run/","en-US,en;q=0.9","zfhwypnv1mwx9gy","37","[""White""]","No","Female","1170174","null","","<p></p>","null","choice","dtc","repulsion_1","1","washing machines","null","null","null","null","null","null","2","","","","","","","","","",""
"","","","","","choice_trial","survey-html-form","123","985605","0.0-5.0-1.19","32","1","2025-04-11 14:06:06","bb671e3ae32f654b8954ea4c4635f915","","Mozilla/5.0 (Macintosh; Intel Mac OS X 10_15_7) AppleWebKit/605.1.15 (KHTML, like Gecko) Version/16.2 Safari/605.1.15","Macintosh","Safari","16.2","OS X","10_15_7","https://hz8g1ckzuq.cognition.run/","en-US,en;q=0.9","zfhwypnv1mwx9gy","37","[""White""]","No","Female","1170174","3900","","","{""product_choice"":""C""}","choice","dtc","repulsion_1","1","washing machines","null","null","null","null","null","null","2","100","90","100","30","40","25","Average lifespan","Energy savings","",""
"","","","","","choice_trial_setup","html-keyboard-response","124","985911","0.0-5.0-0.20","32","1","2025-04-11 14:06:06","bb671e3ae32f654b8954ea4c4635f915","","Mozilla/5.0 (Macintosh; Intel Mac OS X 10_15_7) AppleWebKit/605.1.15 (KHTML, like Gecko) Version/16.2 Safari/605.1.15","Macintosh","Safari","16.2","OS X","10_15_7","https://hz8g1ckzuq.cognition.run/","en-US,en;q=0.9","zfhwypnv1mwx9gy","37","[""White""]","No","Female","1170174","null","","<p></p>","null","choice","cdt","attraction_2","2","microwave ovens","null","null","null","null","null","null","1","","","","","","","","","",""
"","","","","","choice_trial","survey-html-form","125","989825","0.0-5.0-1.20","32","1","2025-04-11 14:06:06","bb671e3ae32f654b8954ea4c4635f915","","Mozilla/5.0 (Macintosh; Intel Mac OS X 10_15_7) AppleWebKit/605.1.15 (KHTML, like Gecko) Version/16.2 Safari/605.1.15","Macintosh","Safari","16.2","OS X","10_15_7","https://hz8g1ckzuq.cognition.run/","en-US,en;q=0.9","zfhwypnv1mwx9gy","37","[""White""]","No","Female","1170174","3903","","","{""product_choice"":""C""}","choice","cdt","attraction_2","2","microwave ovens","null","null","null","null","null","null","1","50","60","40","60","50","60","Warranty","Cooking power","",""
"","","","","","choice_trial_setup","html-keyboard-response","126","990131","0.0-5.0-0.21","32","1","2025-04-11 14:06:06","bb671e3ae32f654b8954ea4c4635f915","","Mozilla/5.0 (Macintosh; Intel Mac OS X 10_15_7) AppleWebKit/605.1.15 (KHTML, like Gecko) Version/16.2 Safari/605.1.15","Macintosh","Safari","16.2","OS X","10_15_7","https://hz8g1ckzuq.cognition.run/","en-US,en;q=0.9","zfhwypnv1mwx9gy","37","[""White""]","No","Female","1170174","null","","<p></p>","null","choice","tcd","attraction_1","1","televisions","null","null","null","null","null","null","1","","","","","","","","","",""
"","","","","","choice_trial","survey-html-form","127","995324","0.0-5.0-1.21","32","1","2025-04-11 14:06:06","bb671e3ae32f654b8954ea4c4635f915","","Mozilla/5.0 (Macintosh; Intel Mac OS X 10_15_7) AppleWebKit/605.1.15 (KHTML, like Gecko) Version/16.2 Safari/605.1.15","Macintosh","Safari","16.2","OS X","10_15_7","https://hz8g1ckzuq.cognition.run/","en-US,en;q=0.9","zfhwypnv1mwx9gy","37","[""White""]","No","Female","1170174","5183","","","{""product_choice"":""A""}","choice","tcd","attraction_1","1","televisions","null","null","null","null","null","null","1","60","50","60","50","60","45","Screen size","Average lifespan","",""
"","","","","","choice_trial_setup","html-keyboard-response","128","995631","0.0-5.0-0.22","32","1","2025-04-11 14:06:06","bb671e3ae32f654b8954ea4c4635f915","","Mozilla/5.0 (Macintosh; Intel Mac OS X 10_15_7) AppleWebKit/605.1.15 (KHTML, like Gecko) Version/16.2 Safari/605.1.15","Macintosh","Safari","16.2","OS X","10_15_7","https://hz8g1ckzuq.cognition.run/","en-US,en;q=0.9","zfhwypnv1mwx9gy","37","[""White""]","No","Female","1170174","null","","<p></p>","null","choice","cdt","attraction_1","1","washing machines","null","null","null","null","null","null","2","","","","","","","","","",""
"","","","","","choice_trial","survey-html-form","129","1019939","0.0-5.0-1.22","32","1","2025-04-11 14:06:06","bb671e3ae32f654b8954ea4c4635f915","","Mozilla/5.0 (Macintosh; Intel Mac OS X 10_15_7) AppleWebKit/605.1.15 (KHTML, like Gecko) Version/16.2 Safari/605.1.15","Macintosh","Safari","16.2","OS X","10_15_7","https://hz8g1ckzuq.cognition.run/","en-US,en;q=0.9","zfhwypnv1mwx9gy","37","[""White""]","No","Female","1170174","24300","","","{""product_choice"":""A""}","choice","cdt","attraction_1","1","washing machines","null","null","null","null","null","null","2","60","50","60","50","60","45","Average lifespan","Energy savings","",""
"","","","","","choice_trial_setup","html-keyboard-response","130","1020251","0.0-5.0-0.23","32","1","2025-04-11 14:06:06","bb671e3ae32f654b8954ea4c4635f915","","Mozilla/5.0 (Macintosh; Intel Mac OS X 10_15_7) AppleWebKit/605.1.15 (KHTML, like Gecko) Version/16.2 Safari/605.1.15","Macintosh","Safari","16.2","OS X","10_15_7","https://hz8g1ckzuq.cognition.run/","en-US,en;q=0.9","zfhwypnv1mwx9gy","37","[""White""]","No","Female","1170174","null","","<p></p>","null","choice","ctd","repulsion_1","1","televisions","null","null","null","null","null","null","2","","","","","","","","","",""
"","","","","","choice_trial","survey-html-form","131","1025026","0.0-5.0-1.23","32","1","2025-04-11 14:06:06","bb671e3ae32f654b8954ea4c4635f915","","Mozilla/5.0 (Macintosh; Intel Mac OS X 10_15_7) AppleWebKit/605.1.15 (KHTML, like Gecko) Version/16.2 Safari/605.1.15","Macintosh","Safari","16.2","OS X","10_15_7","https://hz8g1ckzuq.cognition.run/","en-US,en;q=0.9","zfhwypnv1mwx9gy","37","[""White""]","No","Female","1170174","4764","","","{""product_choice"":""B""}","choice","ctd","repulsion_1","1","televisions","null","null","null","null","null","null","2","100","90","100","30","40","25","Screen size","Average lifespan","",""
"","","","","","choice_trial_setup","html-keyboard-response","132","1025332","0.0-5.0-0.24","32","1","2025-04-11 14:06:06","bb671e3ae32f654b8954ea4c4635f915","","Mozilla/5.0 (Macintosh; Intel Mac OS X 10_15_7) AppleWebKit/605.1.15 (KHTML, like Gecko) Version/16.2 Safari/605.1.15","Macintosh","Safari","16.2","OS X","10_15_7","https://hz8g1ckzuq.cognition.run/","en-US,en;q=0.9","zfhwypnv1mwx9gy","37","[""White""]","No","Female","1170174","null","","<p></p>","null","choice","ctd","repulsion_2","1","laptops","null","null","null","null","null","null","2","","","","","","","","","",""
"","","","","","choice_trial","survey-html-form","133","1028522","0.0-5.0-1.24","32","1","2025-04-11 14:06:06","bb671e3ae32f654b8954ea4c4635f915","","Mozilla/5.0 (Macintosh; Intel Mac OS X 10_15_7) AppleWebKit/605.1.15 (KHTML, like Gecko) Version/16.2 Safari/605.1.15","Macintosh","Safari","16.2","OS X","10_15_7","https://hz8g1ckzuq.cognition.run/","en-US,en;q=0.9","zfhwypnv1mwx9gy","37","[""White""]","No","Female","1170174","3181","","","{""product_choice"":""B""}","choice","ctd","repulsion_2","1","laptops","null","null","null","null","null","null","2","100","90","100","30","40","20","Processing speed","Memory (RAM)","",""
"","","","","","choice_trial_setup","html-keyboard-response","134","1028828","0.0-5.0-0.25","32","1","2025-04-11 14:06:06","bb671e3ae32f654b8954ea4c4635f915","","Mozilla/5.0 (Macintosh; Intel Mac OS X 10_15_7) AppleWebKit/605.1.15 (KHTML, like Gecko) Version/16.2 Safari/605.1.15","Macintosh","Safari","16.2","OS X","10_15_7","https://hz8g1ckzuq.cognition.run/","en-US,en;q=0.9","zfhwypnv1mwx9gy","37","[""White""]","No","Female","1170174","null","","<p></p>","null","choice","cdt","attraction_2","2","televisions","null","null","null","null","null","null","1","","","","","","","","","",""
"","","","","","choice_trial","survey-html-form","135","1032359","0.0-5.0-1.25","32","1","2025-04-11 14:06:06","bb671e3ae32f654b8954ea4c4635f915","","Mozilla/5.0 (Macintosh; Intel Mac OS X 10_15_7) AppleWebKit/605.1.15 (KHTML, like Gecko) Version/16.2 Safari/605.1.15","Macintosh","Safari","16.2","OS X","10_15_7","https://hz8g1ckzuq.cognition.run/","en-US,en;q=0.9","zfhwypnv1mwx9gy","37","[""White""]","No","Female","1170174","3524","","","{""product_choice"":""A""}","choice","cdt","attraction_2","2","televisions","null","null","null","null","null","null","1","50","60","40","60","50","60","Screen size","Average lifespan","",""
"","","","","","choice_trial_setup","html-keyboard-response","136","1032665","0.0-5.0-0.26","32","1","2025-04-11 14:06:06","bb671e3ae32f654b8954ea4c4635f915","","Mozilla/5.0 (Macintosh; Intel Mac OS X 10_15_7) AppleWebKit/605.1.15 (KHTML, like Gecko) Version/16.2 Safari/605.1.15","Macintosh","Safari","16.2","OS X","10_15_7","https://hz8g1ckzuq.cognition.run/","en-US,en;q=0.9","zfhwypnv1mwx9gy","37","[""White""]","No","Female","1170174","null","","<p></p>","null","choice","wwb","catch","null","televisions","65","85","10","15","45","15","1","","","","","","","","","",""
"","","","","","choice_trial","survey-html-form","137","1035559","0.0-5.0-1.26","32","1","2025-04-11 14:06:06","bb671e3ae32f654b8954ea4c4635f915","","Mozilla/5.0 (Macintosh; Intel Mac OS X 10_15_7) AppleWebKit/605.1.15 (KHTML, like Gecko) Version/16.2 Safari/605.1.15","Macintosh","Safari","16.2","OS X","10_15_7","https://hz8g1ckzuq.cognition.run/","en-US,en;q=0.9","zfhwypnv1mwx9gy","37","[""White""]","No","Female","1170174","2886","","","{""product_choice"":""C""}","choice","wwb","catch","null","televisions","65","85","10","15","45","15","1","null","null","null","null","null","null","Screen size","Average lifespan","",""
"","","","","","choice_trial_setup","html-keyboard-response","138","1035866","0.0-5.0-0.27","32","1","2025-04-11 14:06:06","bb671e3ae32f654b8954ea4c4635f915","","Mozilla/5.0 (Macintosh; Intel Mac OS X 10_15_7) AppleWebKit/605.1.15 (KHTML, like Gecko) Version/16.2 Safari/605.1.15","Macintosh","Safari","16.2","OS X","10_15_7","https://hz8g1ckzuq.cognition.run/","en-US,en;q=0.9","zfhwypnv1mwx9gy","37","[""White""]","No","Female","1170174","null","","<p></p>","null","choice","wwb","catch","null","laptops","65","65","10","10","50","20","2","","","","","","","","","",""
"","","","","","choice_trial","survey-html-form","139","1039426","0.0-5.0-1.27","32","1","2025-04-11 14:06:06","bb671e3ae32f654b8954ea4c4635f915","","Mozilla/5.0 (Macintosh; Intel Mac OS X 10_15_7) AppleWebKit/605.1.15 (KHTML, like Gecko) Version/16.2 Safari/605.1.15","Macintosh","Safari","16.2","OS X","10_15_7","https://hz8g1ckzuq.cognition.run/","en-US,en;q=0.9","zfhwypnv1mwx9gy","37","[""White""]","No","Female","1170174","3550","","","{""product_choice"":""C""}","choice","wwb","catch","null","laptops","65","65","10","10","50","20","2","null","null","null","null","null","null","Processing speed","Memory (RAM)","",""
"","","","","","choice_trial_setup","html-keyboard-response","140","1039732","0.0-5.0-0.28","32","1","2025-04-11 14:06:06","bb671e3ae32f654b8954ea4c4635f915","","Mozilla/5.0 (Macintosh; Intel Mac OS X 10_15_7) AppleWebKit/605.1.15 (KHTML, like Gecko) Version/16.2 Safari/605.1.15","Macintosh","Safari","16.2","OS X","10_15_7","https://hz8g1ckzuq.cognition.run/","en-US,en;q=0.9","zfhwypnv1mwx9gy","37","[""White""]","No","Female","1170174","null","","<p></p>","null","choice","cdt","repulsion_1","1","microwave ovens","null","null","null","null","null","null","1","","","","","","","","","",""
"","","","","","choice_trial","survey-html-form","141","1043292","0.0-5.0-1.28","32","1","2025-04-11 14:06:06","bb671e3ae32f654b8954ea4c4635f915","","Mozilla/5.0 (Macintosh; Intel Mac OS X 10_15_7) AppleWebKit/605.1.15 (KHTML, like Gecko) Version/16.2 Safari/605.1.15","Macintosh","Safari","16.2","OS X","10_15_7","https://hz8g1ckzuq.cognition.run/","en-US,en;q=0.9","zfhwypnv1mwx9gy","37","[""White""]","No","Female","1170174","3550","","","{""product_choice"":""A""}","choice","cdt","repulsion_1","1","microwave ovens","null","null","null","null","null","null","1","100","90","100","30","40","25","Warranty","Cooking power","",""
"","","","","","choice_trial_setup","html-keyboard-response","142","1043598","0.0-5.0-0.29","32","1","2025-04-11 14:06:06","bb671e3ae32f654b8954ea4c4635f915","","Mozilla/5.0 (Macintosh; Intel Mac OS X 10_15_7) AppleWebKit/605.1.15 (KHTML, like Gecko) Version/16.2 Safari/605.1.15","Macintosh","Safari","16.2","OS X","10_15_7","https://hz8g1ckzuq.cognition.run/","en-US,en;q=0.9","zfhwypnv1mwx9gy","37","[""White""]","No","Female","1170174","null","","<p></p>","null","choice","wwb","catch","null","washing machines","65","50","45","10","40","15","2","","","","","","","","","",""
"","","","","","choice_trial","survey-html-form","143","1047875","0.0-5.0-1.29","32","1","2025-04-11 14:06:06","bb671e3ae32f654b8954ea4c4635f915","","Mozilla/5.0 (Macintosh; Intel Mac OS X 10_15_7) AppleWebKit/605.1.15 (KHTML, like Gecko) Version/16.2 Safari/605.1.15","Macintosh","Safari","16.2","OS X","10_15_7","https://hz8g1ckzuq.cognition.run/","en-US,en;q=0.9","zfhwypnv1mwx9gy","37","[""White""]","No","Female","1170174","4267","","","{""product_choice"":""C""}","choice","wwb","catch","null","washing machines","65","50","45","10","40","15","2","null","null","null","null","null","null","Average lifespan","Energy savings","",""
"","","","","","choice_trial_setup","html-keyboard-response","144","1048181","0.0-5.0-0.30","32","1","2025-04-11 14:06:06","bb671e3ae32f654b8954ea4c4635f915","","Mozilla/5.0 (Macintosh; Intel Mac OS X 10_15_7) AppleWebKit/605.1.15 (KHTML, like Gecko) Version/16.2 Safari/605.1.15","Macintosh","Safari","16.2","OS X","10_15_7","https://hz8g1ckzuq.cognition.run/","en-US,en;q=0.9","zfhwypnv1mwx9gy","37","[""White""]","No","Female","1170174","null","","<p></p>","null","choice","dtc","attraction_1","2","laptops","null","null","null","null","null","null","2","","","","","","","","","",""
"","","","","","choice_trial","survey-html-form","145","1051141","0.0-5.0-1.30","32","1","2025-04-11 14:06:06","bb671e3ae32f654b8954ea4c4635f915","","Mozilla/5.0 (Macintosh; Intel Mac OS X 10_15_7) AppleWebKit/605.1.15 (KHTML, like Gecko) Version/16.2 Safari/605.1.15","Macintosh","Safari","16.2","OS X","10_15_7","https://hz8g1ckzuq.cognition.run/","en-US,en;q=0.9","zfhwypnv1mwx9gy","37","[""White""]","No","Female","1170174","2952","","","{""product_choice"":""C""}","choice","dtc","attraction_1","2","laptops","null","null","null","null","null","null","2","50","60","45","60","50","60","Processing speed","Memory (RAM)","",""
"","","","","","choice_trial_setup","html-keyboard-response","146","1051448","0.0-5.0-0.31","32","1","2025-04-11 14:06:06","bb671e3ae32f654b8954ea4c4635f915","","Mozilla/5.0 (Macintosh; Intel Mac OS X 10_15_7) AppleWebKit/605.1.15 (KHTML, like Gecko) Version/16.2 Safari/605.1.15","Macintosh","Safari","16.2","OS X","10_15_7","https://hz8g1ckzuq.cognition.run/","en-US,en;q=0.9","zfhwypnv1mwx9gy","37","[""White""]","No","Female","1170174","null","","<p></p>","null","choice","ctd","repulsion_1","2","televisions","null","null","null","null","null","null","2","","","","","","","","","",""
"","","","","","choice_trial","survey-html-form","147","1055376","0.0-5.0-1.31","32","1","2025-04-11 14:06:06","bb671e3ae32f654b8954ea4c4635f915","","Mozilla/5.0 (Macintosh; Intel Mac OS X 10_15_7) AppleWebKit/605.1.15 (KHTML, like Gecko) Version/16.2 Safari/605.1.15","Macintosh","Safari","16.2","OS X","10_15_7","https://hz8g1ckzuq.cognition.run/","en-US,en;q=0.9","zfhwypnv1mwx9gy","37","[""White""]","No","Female","1170174","3920","","","{""product_choice"":""A""}","choice","ctd","repulsion_1","2","televisions","null","null","null","null","null","null","2","30","40","25","100","90","100","Screen size","Average lifespan","",""
"","","","","","choice_trial_setup","html-keyboard-response","148","1055683","0.0-5.0-0.32","32","1","2025-04-11 14:06:06","bb671e3ae32f654b8954ea4c4635f915","","Mozilla/5.0 (Macintosh; Intel Mac OS X 10_15_7) AppleWebKit/605.1.15 (KHTML, like Gecko) Version/16.2 Safari/605.1.15","Macintosh","Safari","16.2","OS X","10_15_7","https://hz8g1ckzuq.cognition.run/","en-US,en;q=0.9","zfhwypnv1mwx9gy","37","[""White""]","No","Female","1170174","null","","<p></p>","null","choice","dtc","attraction_1","2","microwave ovens","null","null","null","null","null","null","1","","","","","","","","","",""
"","","","","","choice_trial","survey-html-form","149","1059072","0.0-5.0-1.32","32","1","2025-04-11 14:06:06","bb671e3ae32f654b8954ea4c4635f915","","Mozilla/5.0 (Macintosh; Intel Mac OS X 10_15_7) AppleWebKit/605.1.15 (KHTML, like Gecko) Version/16.2 Safari/605.1.15","Macintosh","Safari","16.2","OS X","10_15_7","https://hz8g1ckzuq.cognition.run/","en-US,en;q=0.9","zfhwypnv1mwx9gy","37","[""White""]","No","Female","1170174","3378","","","{""product_choice"":""B""}","choice","dtc","attraction_1","2","microwave ovens","null","null","null","null","null","null","1","50","60","45","60","50","60","Warranty","Cooking power","",""
"","","","","","choice_trial_setup","html-keyboard-response","150","1059380","0.0-5.0-0.33","32","1","2025-04-11 14:06:06","bb671e3ae32f654b8954ea4c4635f915","","Mozilla/5.0 (Macintosh; Intel Mac OS X 10_15_7) AppleWebKit/605.1.15 (KHTML, like Gecko) Version/16.2 Safari/605.1.15","Macintosh","Safari","16.2","OS X","10_15_7","https://hz8g1ckzuq.cognition.run/","en-US,en;q=0.9","zfhwypnv1mwx9gy","37","[""White""]","No","Female","1170174","null","","<p></p>","null","choice","dtc","attraction_2","1","televisions","null","null","null","null","null","null","2","","","","","","","","","",""
"","","","","","choice_trial","survey-html-form","151","1063872","0.0-5.0-1.33","32","1","2025-04-11 14:06:06","bb671e3ae32f654b8954ea4c4635f915","","Mozilla/5.0 (Macintosh; Intel Mac OS X 10_15_7) AppleWebKit/605.1.15 (KHTML, like Gecko) Version/16.2 Safari/605.1.15","Macintosh","Safari","16.2","OS X","10_15_7","https://hz8g1ckzuq.cognition.run/","en-US,en;q=0.9","zfhwypnv1mwx9gy","37","[""White""]","No","Female","1170174","4482","","","{""product_choice"":""B""}","choice","dtc","attraction_2","1","televisions","null","null","null","null","null","null","2","60","50","60","50","60","40","Screen size","Average lifespan","",""
"","","","","","choice_trial_setup","html-keyboard-response","152","1064178","0.0-5.0-0.34","32","1","2025-04-11 14:06:06","bb671e3ae32f654b8954ea4c4635f915","","Mozilla/5.0 (Macintosh; Intel Mac OS X 10_15_7) AppleWebKit/605.1.15 (KHTML, like Gecko) Version/16.2 Safari/605.1.15","Macintosh","Safari","16.2","OS X","10_15_7","https://hz8g1ckzuq.cognition.run/","en-US,en;q=0.9","zfhwypnv1mwx9gy","37","[""White""]","No","Female","1170174","null","","<p></p>","null","choice","wbw","catch","null","washing machines","75","85","35","20","25","25","2","","","","","","","","","",""
"","","","","","choice_trial","survey-html-form","153","1069339","0.0-5.0-1.34","32","1","2025-04-11 14:06:06","bb671e3ae32f654b8954ea4c4635f915","","Mozilla/5.0 (Macintosh; Intel Mac OS X 10_15_7) AppleWebKit/605.1.15 (KHTML, like Gecko) Version/16.2 Safari/605.1.15","Macintosh","Safari","16.2","OS X","10_15_7","https://hz8g1ckzuq.cognition.run/","en-US,en;q=0.9","zfhwypnv1mwx9gy","37","[""White""]","No","Female","1170174","5152","","","{""product_choice"":""B""}","choice","wbw","catch","null","washing machines","75","85","35","20","25","25","2","null","null","null","null","null","null","Average lifespan","Energy savings","",""
"","","","","","choice_trial_setup","html-keyboard-response","154","1069646","0.0-5.0-0.35","32","1","2025-04-11 14:06:06","bb671e3ae32f654b8954ea4c4635f915","","Mozilla/5.0 (Macintosh; Intel Mac OS X 10_15_7) AppleWebKit/605.1.15 (KHTML, like Gecko) Version/16.2 Safari/605.1.15","Macintosh","Safari","16.2","OS X","10_15_7","https://hz8g1ckzuq.cognition.run/","en-US,en;q=0.9","zfhwypnv1mwx9gy","37","[""White""]","No","Female","1170174","null","","<p></p>","null","choice","ctd","attraction_2","1","microwave ovens","null","null","null","null","null","null","2","","","","","","","","","",""
"","","","","","choice_trial","survey-html-form","155","1076472","0.0-5.0-1.35","32","1","2025-04-11 14:06:06","bb671e3ae32f654b8954ea4c4635f915","","Mozilla/5.0 (Macintosh; Intel Mac OS X 10_15_7) AppleWebKit/605.1.15 (KHTML, like Gecko) Version/16.2 Safari/605.1.15","Macintosh","Safari","16.2","OS X","10_15_7","https://hz8g1ckzuq.cognition.run/","en-US,en;q=0.9","zfhwypnv1mwx9gy","37","[""White""]","No","Female","1170174","6817","","","{""product_choice"":""A""}","choice","ctd","attraction_2","1","microwave ovens","null","null","null","null","null","null","2","60","50","60","50","60","40","Warranty","Cooking power","",""
"","","","","","choice_trial_setup","html-keyboard-response","156","1076780","0.0-5.0-0.36","32","1","2025-04-11 14:06:06","bb671e3ae32f654b8954ea4c4635f915","","Mozilla/5.0 (Macintosh; Intel Mac OS X 10_15_7) AppleWebKit/605.1.15 (KHTML, like Gecko) Version/16.2 Safari/605.1.15","Macintosh","Safari","16.2","OS X","10_15_7","https://hz8g1ckzuq.cognition.run/","en-US,en;q=0.9","zfhwypnv1mwx9gy","37","[""White""]","No","Female","1170174","null","","<p></p>","null","choice","bww","catch","null","laptops","80","65","45","25","15","35","1","","","","","","","","","",""
"","","","","","choice_trial","survey-html-form","157","1080841","0.0-5.0-1.36","32","1","2025-04-11 14:06:06","bb671e3ae32f654b8954ea4c4635f915","","Mozilla/5.0 (Macintosh; Intel Mac OS X 10_15_7) AppleWebKit/605.1.15 (KHTML, like Gecko) Version/16.2 Safari/605.1.15","Macintosh","Safari","16.2","OS X","10_15_7","https://hz8g1ckzuq.cognition.run/","en-US,en;q=0.9","zfhwypnv1mwx9gy","37","[""White""]","No","Female","1170174","4053","","","{""product_choice"":""A""}","choice","bww","catch","null","laptops","80","65","45","25","15","35","1","null","null","null","null","null","null","Processing speed","Memory (RAM)","",""
"","","","","","choice_trial_setup","html-keyboard-response","158","1081147","0.0-5.0-0.37","32","1","2025-04-11 14:06:06","bb671e3ae32f654b8954ea4c4635f915","","Mozilla/5.0 (Macintosh; Intel Mac OS X 10_15_7) AppleWebKit/605.1.15 (KHTML, like Gecko) Version/16.2 Safari/605.1.15","Macintosh","Safari","16.2","OS X","10_15_7","https://hz8g1ckzuq.cognition.run/","en-US,en;q=0.9","zfhwypnv1mwx9gy","37","[""White""]","No","Female","1170174","null","","<p></p>","null","choice","cdt","attraction_1","1","laptops","null","null","null","null","null","null","2","","","","","","","","","",""
"","","","","","choice_trial","survey-html-form","159","1084206","0.0-5.0-1.37","32","1","2025-04-11 14:06:06","bb671e3ae32f654b8954ea4c4635f915","","Mozilla/5.0 (Macintosh; Intel Mac OS X 10_15_7) AppleWebKit/605.1.15 (KHTML, like Gecko) Version/16.2 Safari/605.1.15","Macintosh","Safari","16.2","OS X","10_15_7","https://hz8g1ckzuq.cognition.run/","en-US,en;q=0.9","zfhwypnv1mwx9gy","37","[""White""]","No","Female","1170174","3049","","","{""product_choice"":""A""}","choice","cdt","attraction_1","1","laptops","null","null","null","null","null","null","2","60","50","60","50","60","45","Processing speed","Memory (RAM)","",""
