"success","timeout","failed_images","failed_audio","failed_video","screen_id","trial_type","trial_index","time_elapsed","internal_node_id","run_id","condition","recorded_at","source_code_version","ip","user_agent","device","browser","browser_version","platform","platform_version","referer","accept_language","ppt_id","age","race","ethnicity","gender","exp_duration","rt","view_history","stimulus","response","phase","order","effect","t_high","category","d1_best","d2_best","d1_worst1","d2_worst1","d1_worst2","d2_worst2","first_dim","d1_t","d1_c","d1_d","d2_t","d2_c","d2_d","d1_name","d2_name","strategy_response","question_order"
"true","false","[]","[]","[]","img preload","preload","0","3623","0.0-0.0","38","1","2025-04-11 14:11:07","bb671e3ae32f654b8954ea4c4635f915","","Mozilla/5.0 (Windows NT 10.0; Win64; x64) AppleWebKit/537.36 (KHTML, like Gecko) Chrome/129.0.0.0 Safari/537.36","WebKit","Chrome","129.0.0.0","Windows","10.0","https://hz8g1ckzuq.cognition.run/","en,en-US;q=0.9","cft4zdcjewqj2qr","35","[""White""]","No","Female","799240.200000003","","","","","","","","","","","","","","","","","","","","","","","","","",""
"true","","","","","","fullscreen","1","7128","0.0-1.0","38","1","2025-04-11 14:11:07","bb671e3ae32f654b8954ea4c4635f915","","Mozilla/5.0 (Windows NT 10.0; Win64; x64) AppleWebKit/537.36 (KHTML, like Gecko) Chrome/129.0.0.0 Safari/537.36","WebKit","Chrome","129.0.0.0","Windows","10.0","https://hz8g1ckzuq.cognition.run/","en,en-US;q=0.9","cft4zdcjewqj2qr","35","[""White""]","No","Female","799240.200000003","2491","","","","","","","","","","","","","","","","","","","","","","","","",""
"","","","","","","instructions","2","96737","0.0-2.0","38","1","2025-04-11 14:11:07","bb671e3ae32f654b8954ea4c4635f915","","Mozilla/5.0 (Windows NT 10.0; Win64; x64) AppleWebKit/537.36 (KHTML, like Gecko) Chrome/129.0.0.0 Safari/537.36","WebKit","Chrome","129.0.0.0","Windows","10.0","https://hz8g1ckzuq.cognition.run/","en,en-US;q=0.9","cft4zdcjewqj2qr","35","[""White""]","No","Female","799240.200000003","89606","[{""page_index"":0,""viewing_time"":2392},{""page_index"":1,""viewing_time"":4678},{""page_index"":2,""viewing_time"":1856},{""page_index"":3,""viewing_time"":1928},{""page_index"":4,""viewing_time"":38620},{""page_index"":5,""viewing_time"":10800},{""page_index"":6,""viewing_time"":8320},{""page_index"":7,""viewing_time"":5732},{""page_index"":8,""viewing_time"":13854},{""page_index"":9,""viewing_time"":1426}]","","","","","","","","","","","","","","","","","","","","","","","",""
"","","","","","rating_trial_setup","html-keyboard-response","3","97042","0.0-3.0-0.0","38","1","2025-04-11 14:11:07","bb671e3ae32f654b8954ea4c4635f915","","Mozilla/5.0 (Windows NT 10.0; Win64; x64) AppleWebKit/537.36 (KHTML, like Gecko) Chrome/129.0.0.0 Safari/537.36","WebKit","Chrome","129.0.0.0","Windows","10.0","https://hz8g1ckzuq.cognition.run/","en,en-US;q=0.9","cft4zdcjewqj2qr","35","[""White""]","No","Female","799240.200000003","null","","<p></p>","null","rating","dct","repulsion_2","2","televisions","null","null","null","null","null","null","1","","","","","","","","","",""
"","","","","","rating_trial","survey-html-form","4","123039","0.0-3.0-1.0","38","1","2025-04-11 14:11:07","bb671e3ae32f654b8954ea4c4635f915","","Mozilla/5.0 (Windows NT 10.0; Win64; x64) AppleWebKit/537.36 (KHTML, like Gecko) Chrome/129.0.0.0 Safari/537.36","WebKit","Chrome","129.0.0.0","Windows","10.0","https://hz8g1ckzuq.cognition.run/","en,en-US;q=0.9","cft4zdcjewqj2qr","35","[""White""]","No","Female","799240.200000003","25990","","","{""price_1"":""300"",""price_2"":""450"",""price_3"":""300""}","rating","dct","repulsion_2","2","televisions","null","null","null","null","null","null","1","30","40","20","100","90","100","Screen size","Average lifespan","",""
"","","","","","rating_trial_setup","html-keyboard-response","5","123341","0.0-3.0-0.1","38","1","2025-04-11 14:11:07","bb671e3ae32f654b8954ea4c4635f915","","Mozilla/5.0 (Windows NT 10.0; Win64; x64) AppleWebKit/537.36 (KHTML, like Gecko) Chrome/129.0.0.0 Safari/537.36","WebKit","Chrome","129.0.0.0","Windows","10.0","https://hz8g1ckzuq.cognition.run/","en,en-US;q=0.9","cft4zdcjewqj2qr","35","[""White""]","No","Female","799240.200000003","null","","<p></p>","null","rating","tcd","attraction_1","2","microwave ovens","null","null","null","null","null","null","1","","","","","","","","","",""
"","","","","","rating_trial","survey-html-form","6","135716","0.0-3.0-1.1","38","1","2025-04-11 14:11:07","bb671e3ae32f654b8954ea4c4635f915","","Mozilla/5.0 (Windows NT 10.0; Win64; x64) AppleWebKit/537.36 (KHTML, like Gecko) Chrome/129.0.0.0 Safari/537.36","WebKit","Chrome","129.0.0.0","Windows","10.0","https://hz8g1ckzuq.cognition.run/","en,en-US;q=0.9","cft4zdcjewqj2qr","35","[""White""]","No","Female","799240.200000003","12371","","","{""price_1"":""400"",""price_2"":""400"",""price_3"":""400""}","rating","tcd","attraction_1","2","microwave ovens","null","null","null","null","null","null","1","50","60","45","60","50","60","Warranty","Cooking power","",""
"","","","","","rating_trial_setup","html-keyboard-response","7","136019","0.0-3.0-0.2","38","1","2025-04-11 14:11:07","bb671e3ae32f654b8954ea4c4635f915","","Mozilla/5.0 (Windows NT 10.0; Win64; x64) AppleWebKit/537.36 (KHTML, like Gecko) Chrome/129.0.0.0 Safari/537.36","WebKit","Chrome","129.0.0.0","Windows","10.0","https://hz8g1ckzuq.cognition.run/","en,en-US;q=0.9","cft4zdcjewqj2qr","35","[""White""]","No","Female","799240.200000003","null","","<p></p>","null","rating","ctd","attraction_1","2","televisions","null","null","null","null","null","null","1","","","","","","","","","",""
"","","","","","rating_trial","survey-html-form","8","144549","0.0-3.0-1.2","38","1","2025-04-11 14:11:07","bb671e3ae32f654b8954ea4c4635f915","","Mozilla/5.0 (Windows NT 10.0; Win64; x64) AppleWebKit/537.36 (KHTML, like Gecko) Chrome/129.0.0.0 Safari/537.36","WebKit","Chrome","129.0.0.0","Windows","10.0","https://hz8g1ckzuq.cognition.run/","en,en-US;q=0.9","cft4zdcjewqj2qr","35","[""White""]","No","Female","799240.200000003","8524","","","{""price_1"":""350"",""price_2"":""300"",""price_3"":""400""}","rating","ctd","attraction_1","2","televisions","null","null","null","null","null","null","1","50","60","45","60","50","60","Screen size","Average lifespan","",""
"","","","","","rating_trial_setup","html-keyboard-response","9","144851","0.0-3.0-0.3","38","1","2025-04-11 14:11:07","bb671e3ae32f654b8954ea4c4635f915","","Mozilla/5.0 (Windows NT 10.0; Win64; x64) AppleWebKit/537.36 (KHTML, like Gecko) Chrome/129.0.0.0 Safari/537.36","WebKit","Chrome","129.0.0.0","Windows","10.0","https://hz8g1ckzuq.cognition.run/","en,en-US;q=0.9","cft4zdcjewqj2qr","35","[""White""]","No","Female","799240.200000003","null","","<p></p>","null","rating","tcd","attraction_2","1","microwave ovens","null","null","null","null","null","null","1","","","","","","","","","",""
"","","","","","rating_trial","survey-html-form","10","155110","0.0-3.0-1.3","38","1","2025-04-11 14:11:07","bb671e3ae32f654b8954ea4c4635f915","","Mozilla/5.0 (Windows NT 10.0; Win64; x64) AppleWebKit/537.36 (KHTML, like Gecko) Chrome/129.0.0.0 Safari/537.36","WebKit","Chrome","129.0.0.0","Windows","10.0","https://hz8g1ckzuq.cognition.run/","en,en-US;q=0.9","cft4zdcjewqj2qr","35","[""White""]","No","Female","799240.200000003","10256","","","{""price_1"":""400"",""price_2"":""400"",""price_3"":""300""}","rating","tcd","attraction_2","1","microwave ovens","null","null","null","null","null","null","1","60","50","60","50","60","40","Warranty","Cooking power","",""
"","","","","","rating_trial_setup","html-keyboard-response","11","155413","0.0-3.0-0.4","38","1","2025-04-11 14:11:07","bb671e3ae32f654b8954ea4c4635f915","","Mozilla/5.0 (Windows NT 10.0; Win64; x64) AppleWebKit/537.36 (KHTML, like Gecko) Chrome/129.0.0.0 Safari/537.36","WebKit","Chrome","129.0.0.0","Windows","10.0","https://hz8g1ckzuq.cognition.run/","en,en-US;q=0.9","cft4zdcjewqj2qr","35","[""White""]","No","Female","799240.200000003","null","","<p></p>","null","rating","cdt","repulsion_2","1","washing machines","null","null","null","null","null","null","2","","","","","","","","","",""
"","","","","","rating_trial","survey-html-form","12","163360","0.0-3.0-1.4","38","1","2025-04-11 14:11:07","bb671e3ae32f654b8954ea4c4635f915","","Mozilla/5.0 (Windows NT 10.0; Win64; x64) AppleWebKit/537.36 (KHTML, like Gecko) Chrome/129.0.0.0 Safari/537.36","WebKit","Chrome","129.0.0.0","Windows","10.0","https://hz8g1ckzuq.cognition.run/","en,en-US;q=0.9","cft4zdcjewqj2qr","35","[""White""]","No","Female","799240.200000003","7943","","","{""price_1"":""300"",""price_2"":""400"",""price_3"":""300""}","rating","cdt","repulsion_2","1","washing machines","null","null","null","null","null","null","2","100","90","100","30","40","20","Average lifespan","Energy savings","",""
"","","","","","rating_trial_setup","html-keyboard-response","13","163662","0.0-3.0-0.5","38","1","2025-04-11 14:11:07","bb671e3ae32f654b8954ea4c4635f915","","Mozilla/5.0 (Windows NT 10.0; Win64; x64) AppleWebKit/537.36 (KHTML, like Gecko) Chrome/129.0.0.0 Safari/537.36","WebKit","Chrome","129.0.0.0","Windows","10.0","https://hz8g1ckzuq.cognition.run/","en,en-US;q=0.9","cft4zdcjewqj2qr","35","[""White""]","No","Female","799240.200000003","null","","<p></p>","null","rating","tcd","attraction_2","2","microwave ovens","null","null","null","null","null","null","2","","","","","","","","","",""
"","","","","","rating_trial","survey-html-form","14","172130","0.0-3.0-1.5","38","1","2025-04-11 14:11:07","bb671e3ae32f654b8954ea4c4635f915","","Mozilla/5.0 (Windows NT 10.0; Win64; x64) AppleWebKit/537.36 (KHTML, like Gecko) Chrome/129.0.0.0 Safari/537.36","WebKit","Chrome","129.0.0.0","Windows","10.0","https://hz8g1ckzuq.cognition.run/","en,en-US;q=0.9","cft4zdcjewqj2qr","35","[""White""]","No","Female","799240.200000003","8463","","","{""price_1"":""200"",""price_2"":""300"",""price_3"":""400""}","rating","tcd","attraction_2","2","microwave ovens","null","null","null","null","null","null","2","50","60","40","60","50","60","Warranty","Cooking power","",""
"","","","","","rating_trial_setup","html-keyboard-response","15","172433","0.0-3.0-0.6","38","1","2025-04-11 14:11:07","bb671e3ae32f654b8954ea4c4635f915","","Mozilla/5.0 (Windows NT 10.0; Win64; x64) AppleWebKit/537.36 (KHTML, like Gecko) Chrome/129.0.0.0 Safari/537.36","WebKit","Chrome","129.0.0.0","Windows","10.0","https://hz8g1ckzuq.cognition.run/","en,en-US;q=0.9","cft4zdcjewqj2qr","35","[""White""]","No","Female","799240.200000003","null","","<p></p>","null","rating","bww","catch","null","laptops","65","65","10","35","20","5","2","","","","","","","","","",""
"","","","","","rating_trial","survey-html-form","16","179849","0.0-3.0-1.6","38","1","2025-04-11 14:11:07","bb671e3ae32f654b8954ea4c4635f915","","Mozilla/5.0 (Windows NT 10.0; Win64; x64) AppleWebKit/537.36 (KHTML, like Gecko) Chrome/129.0.0.0 Safari/537.36","WebKit","Chrome","129.0.0.0","Windows","10.0","https://hz8g1ckzuq.cognition.run/","en,en-US;q=0.9","cft4zdcjewqj2qr","35","[""White""]","No","Female","799240.200000003","7412","","","{""price_1"":""400"",""price_2"":""300"",""price_3"":""300""}","rating","bww","catch","null","laptops","65","65","10","35","20","5","2","null","null","null","null","null","null","Processing speed","Memory (RAM)","",""
"","","","","","rating_trial_setup","html-keyboard-response","17","180152","0.0-3.0-0.7","38","1","2025-04-11 14:11:07","bb671e3ae32f654b8954ea4c4635f915","","Mozilla/5.0 (Windows NT 10.0; Win64; x64) AppleWebKit/537.36 (KHTML, like Gecko) Chrome/129.0.0.0 Safari/537.36","WebKit","Chrome","129.0.0.0","Windows","10.0","https://hz8g1ckzuq.cognition.run/","en,en-US;q=0.9","cft4zdcjewqj2qr","35","[""White""]","No","Female","799240.200000003","null","","<p></p>","null","rating","cdt","repulsion_1","1","microwave ovens","null","null","null","null","null","null","1","","","","","","","","","",""
"","","","","","rating_trial","survey-html-form","18","193585","0.0-3.0-1.7","38","1","2025-04-11 14:11:07","bb671e3ae32f654b8954ea4c4635f915","","Mozilla/5.0 (Windows NT 10.0; Win64; x64) AppleWebKit/537.36 (KHTML, like Gecko) Chrome/129.0.0.0 Safari/537.36","WebKit","Chrome","129.0.0.0","Windows","10.0","https://hz8g1ckzuq.cognition.run/","en,en-US;q=0.9","cft4zdcjewqj2qr","35","[""White""]","No","Female","799240.200000003","13427","","","{""price_1"":""360"",""price_2"":""350"",""price_3"":""300""}","rating","cdt","repulsion_1","1","microwave ovens","null","null","null","null","null","null","1","100","90","100","30","40","25","Warranty","Cooking power","",""
"","","","","","rating_trial_setup","html-keyboard-response","19","193889","0.0-3.0-0.8","38","1","2025-04-11 14:11:07","bb671e3ae32f654b8954ea4c4635f915","","Mozilla/5.0 (Windows NT 10.0; Win64; x64) AppleWebKit/537.36 (KHTML, like Gecko) Chrome/129.0.0.0 Safari/537.36","WebKit","Chrome","129.0.0.0","Windows","10.0","https://hz8g1ckzuq.cognition.run/","en,en-US;q=0.9","cft4zdcjewqj2qr","35","[""White""]","No","Female","799240.200000003","null","","<p></p>","null","rating","tcd","repulsion_1","1","televisions","null","null","null","null","null","null","1","","","","","","","","","",""
"","","","","","rating_trial","survey-html-form","20","217982","0.0-3.0-1.8","38","1","2025-04-11 14:11:07","bb671e3ae32f654b8954ea4c4635f915","","Mozilla/5.0 (Windows NT 10.0; Win64; x64) AppleWebKit/537.36 (KHTML, like Gecko) Chrome/129.0.0.0 Safari/537.36","WebKit","Chrome","129.0.0.0","Windows","10.0","https://hz8g1ckzuq.cognition.run/","en,en-US;q=0.9","cft4zdcjewqj2qr","35","[""White""]","No","Female","799240.200000003","24082","","","{""price_1"":""400"",""price_2"":""300"",""price_3"":""250""}","rating","tcd","repulsion_1","1","televisions","null","null","null","null","null","null","1","100","90","100","30","40","25","Screen size","Average lifespan","",""
"","","","","","rating_trial_setup","html-keyboard-response","21","218296","0.0-3.0-0.9","38","1","2025-04-11 14:11:07","bb671e3ae32f654b8954ea4c4635f915","","Mozilla/5.0 (Windows NT 10.0; Win64; x64) AppleWebKit/537.36 (KHTML, like Gecko) Chrome/129.0.0.0 Safari/537.36","WebKit","Chrome","129.0.0.0","Windows","10.0","https://hz8g1ckzuq.cognition.run/","en,en-US;q=0.9","cft4zdcjewqj2qr","35","[""White""]","No","Female","799240.200000003","null","","<p></p>","null","rating","wwb","catch","null","washing machines","90","65","25","10","35","40","2","","","","","","","","","",""
"","","","","","rating_trial","survey-html-form","22","228477","0.0-3.0-1.9","38","1","2025-04-11 14:11:07","bb671e3ae32f654b8954ea4c4635f915","","Mozilla/5.0 (Windows NT 10.0; Win64; x64) AppleWebKit/537.36 (KHTML, like Gecko) Chrome/129.0.0.0 Safari/537.36","WebKit","Chrome","129.0.0.0","Windows","10.0","https://hz8g1ckzuq.cognition.run/","en,en-US;q=0.9","cft4zdcjewqj2qr","35","[""White""]","No","Female","799240.200000003","10173","","","{""price_1"":""450"",""price_2"":""300"",""price_3"":""350""}","rating","wwb","catch","null","washing machines","90","65","25","10","35","40","2","null","null","null","null","null","null","Average lifespan","Energy savings","",""
"","","","","","rating_trial_setup","html-keyboard-response","23","228781","0.0-3.0-0.10","38","1","2025-04-11 14:11:07","bb671e3ae32f654b8954ea4c4635f915","","Mozilla/5.0 (Windows NT 10.0; Win64; x64) AppleWebKit/537.36 (KHTML, like Gecko) Chrome/129.0.0.0 Safari/537.36","WebKit","Chrome","129.0.0.0","Windows","10.0","https://hz8g1ckzuq.cognition.run/","en,en-US;q=0.9","cft4zdcjewqj2qr","35","[""White""]","No","Female","799240.200000003","null","","<p></p>","null","rating","ctd","attraction_1","1","microwave ovens","null","null","null","null","null","null","1","","","","","","","","","",""
"","","","","","rating_trial","survey-html-form","24","235711","0.0-3.0-1.10","38","1","2025-04-11 14:11:07","bb671e3ae32f654b8954ea4c4635f915","","Mozilla/5.0 (Windows NT 10.0; Win64; x64) AppleWebKit/537.36 (KHTML, like Gecko) Chrome/129.0.0.0 Safari/537.36","WebKit","Chrome","129.0.0.0","Windows","10.0","https://hz8g1ckzuq.cognition.run/","en,en-US;q=0.9","cft4zdcjewqj2qr","35","[""White""]","No","Female","799240.200000003","6926","","","{""price_1"":""300"",""price_2"":""390"",""price_3"":""300""}","rating","ctd","attraction_1","1","microwave ovens","null","null","null","null","null","null","1","60","50","60","50","60","45","Warranty","Cooking power","",""
"","","","","","rating_trial_setup","html-keyboard-response","25","236014","0.0-3.0-0.11","38","1","2025-04-11 14:11:07","bb671e3ae32f654b8954ea4c4635f915","","Mozilla/5.0 (Windows NT 10.0; Win64; x64) AppleWebKit/537.36 (KHTML, like Gecko) Chrome/129.0.0.0 Safari/537.36","WebKit","Chrome","129.0.0.0","Windows","10.0","https://hz8g1ckzuq.cognition.run/","en,en-US;q=0.9","cft4zdcjewqj2qr","35","[""White""]","No","Female","799240.200000003","null","","<p></p>","null","rating","dtc","repulsion_2","2","microwave ovens","null","null","null","null","null","null","1","","","","","","","","","",""
"","","","","","rating_trial","survey-html-form","26","242072","0.0-3.0-1.11","38","1","2025-04-11 14:11:07","bb671e3ae32f654b8954ea4c4635f915","","Mozilla/5.0 (Windows NT 10.0; Win64; x64) AppleWebKit/537.36 (KHTML, like Gecko) Chrome/129.0.0.0 Safari/537.36","WebKit","Chrome","129.0.0.0","Windows","10.0","https://hz8g1ckzuq.cognition.run/","en,en-US;q=0.9","cft4zdcjewqj2qr","35","[""White""]","No","Female","799240.200000003","6052","","","{""price_1"":""300"",""price_2"":""350"",""price_3"":""400""}","rating","dtc","repulsion_2","2","microwave ovens","null","null","null","null","null","null","1","30","40","20","100","90","100","Warranty","Cooking power","",""
"","","","","","rating_trial_setup","html-keyboard-response","27","242381","0.0-3.0-0.12","38","1","2025-04-11 14:11:07","bb671e3ae32f654b8954ea4c4635f915","","Mozilla/5.0 (Windows NT 10.0; Win64; x64) AppleWebKit/537.36 (KHTML, like Gecko) Chrome/129.0.0.0 Safari/537.36","WebKit","Chrome","129.0.0.0","Windows","10.0","https://hz8g1ckzuq.cognition.run/","en,en-US;q=0.9","cft4zdcjewqj2qr","35","[""White""]","No","Female","799240.200000003","null","","<p></p>","null","rating","ctd","repulsion_2","2","washing machines","null","null","null","null","null","null","1","","","","","","","","","",""
"","","","","","rating_trial","survey-html-form","28","249783","0.0-3.0-1.12","38","1","2025-04-11 14:11:07","bb671e3ae32f654b8954ea4c4635f915","","Mozilla/5.0 (Windows NT 10.0; Win64; x64) AppleWebKit/537.36 (KHTML, like Gecko) Chrome/129.0.0.0 Safari/537.36","WebKit","Chrome","129.0.0.0","Windows","10.0","https://hz8g1ckzuq.cognition.run/","en,en-US;q=0.9","cft4zdcjewqj2qr","35","[""White""]","No","Female","799240.200000003","7395","","","{""price_1"":""500"",""price_2"":""450"",""price_3"":""400""}","rating","ctd","repulsion_2","2","washing machines","null","null","null","null","null","null","1","30","40","20","100","90","100","Average lifespan","Energy savings","",""
"","","","","","rating_trial_setup","html-keyboard-response","29","250089","0.0-3.0-0.13","38","1","2025-04-11 14:11:07","bb671e3ae32f654b8954ea4c4635f915","","Mozilla/5.0 (Windows NT 10.0; Win64; x64) AppleWebKit/537.36 (KHTML, like Gecko) Chrome/129.0.0.0 Safari/537.36","WebKit","Chrome","129.0.0.0","Windows","10.0","https://hz8g1ckzuq.cognition.run/","en,en-US;q=0.9","cft4zdcjewqj2qr","35","[""White""]","No","Female","799240.200000003","null","","<p></p>","null","rating","cdt","attraction_2","1","laptops","null","null","null","null","null","null","2","","","","","","","","","",""
"","","","","","rating_trial","survey-html-form","30","258791","0.0-3.0-1.13","38","1","2025-04-11 14:11:07","bb671e3ae32f654b8954ea4c4635f915","","Mozilla/5.0 (Windows NT 10.0; Win64; x64) AppleWebKit/537.36 (KHTML, like Gecko) Chrome/129.0.0.0 Safari/537.36","WebKit","Chrome","129.0.0.0","Windows","10.0","https://hz8g1ckzuq.cognition.run/","en,en-US;q=0.9","cft4zdcjewqj2qr","35","[""White""]","No","Female","799240.200000003","8693","","","{""price_1"":""500"",""price_2"":""450"",""price_3"":""490""}","rating","cdt","attraction_2","1","laptops","null","null","null","null","null","null","2","60","50","60","50","60","40","Processing speed","Memory (RAM)","",""
"","","","","","rating_trial_setup","html-keyboard-response","31","259096","0.0-3.0-0.14","38","1","2025-04-11 14:11:07","bb671e3ae32f654b8954ea4c4635f915","","Mozilla/5.0 (Windows NT 10.0; Win64; x64) AppleWebKit/537.36 (KHTML, like Gecko) Chrome/129.0.0.0 Safari/537.36","WebKit","Chrome","129.0.0.0","Windows","10.0","https://hz8g1ckzuq.cognition.run/","en,en-US;q=0.9","cft4zdcjewqj2qr","35","[""White""]","No","Female","799240.200000003","null","","<p></p>","null","rating","cdt","repulsion_2","2","laptops","null","null","null","null","null","null","2","","","","","","","","","",""
"","","","","","rating_trial","survey-html-form","32","266118","0.0-3.0-1.14","38","1","2025-04-11 14:11:07","bb671e3ae32f654b8954ea4c4635f915","","Mozilla/5.0 (Windows NT 10.0; Win64; x64) AppleWebKit/537.36 (KHTML, like Gecko) Chrome/129.0.0.0 Safari/537.36","WebKit","Chrome","129.0.0.0","Windows","10.0","https://hz8g1ckzuq.cognition.run/","en,en-US;q=0.9","cft4zdcjewqj2qr","35","[""White""]","No","Female","799240.200000003","7015","","","{""price_1"":""300"",""price_2"":""490"",""price_3"":""500""}","rating","cdt","repulsion_2","2","laptops","null","null","null","null","null","null","2","30","40","20","100","90","100","Processing speed","Memory (RAM)","",""
"","","","","","rating_trial_setup","html-keyboard-response","33","266423","0.0-3.0-0.15","38","1","2025-04-11 14:11:07","bb671e3ae32f654b8954ea4c4635f915","","Mozilla/5.0 (Windows NT 10.0; Win64; x64) AppleWebKit/537.36 (KHTML, like Gecko) Chrome/129.0.0.0 Safari/537.36","WebKit","Chrome","129.0.0.0","Windows","10.0","https://hz8g1ckzuq.cognition.run/","en,en-US;q=0.9","cft4zdcjewqj2qr","35","[""White""]","No","Female","799240.200000003","null","","<p></p>","null","rating","ctd","attraction_2","1","televisions","null","null","null","null","null","null","1","","","","","","","","","",""
"","","","","","rating_trial","survey-html-form","34","277405","0.0-3.0-1.15","38","1","2025-04-11 14:11:07","bb671e3ae32f654b8954ea4c4635f915","","Mozilla/5.0 (Windows NT 10.0; Win64; x64) AppleWebKit/537.36 (KHTML, like Gecko) Chrome/129.0.0.0 Safari/537.36","WebKit","Chrome","129.0.0.0","Windows","10.0","https://hz8g1ckzuq.cognition.run/","en,en-US;q=0.9","cft4zdcjewqj2qr","35","[""White""]","No","Female","799240.200000003","10975","","","{""price_1"":""300"",""price_2"":""390"",""price_3"":""400""}","rating","ctd","attraction_2","1","televisions","null","null","null","null","null","null","1","60","50","60","50","60","40","Screen size","Average lifespan","",""
"","","","","","rating_trial_setup","html-keyboard-response","35","277712","0.0-3.0-0.16","38","1","2025-04-11 14:11:07","bb671e3ae32f654b8954ea4c4635f915","","Mozilla/5.0 (Windows NT 10.0; Win64; x64) AppleWebKit/537.36 (KHTML, like Gecko) Chrome/129.0.0.0 Safari/537.36","WebKit","Chrome","129.0.0.0","Windows","10.0","https://hz8g1ckzuq.cognition.run/","en,en-US;q=0.9","cft4zdcjewqj2qr","35","[""White""]","No","Female","799240.200000003","null","","<p></p>","null","rating","tdc","attraction_1","2","washing machines","null","null","null","null","null","null","2","","","","","","","","","",""
"","","","","","rating_trial","survey-html-form","36","289153","0.0-3.0-1.16","38","1","2025-04-11 14:11:07","bb671e3ae32f654b8954ea4c4635f915","","Mozilla/5.0 (Windows NT 10.0; Win64; x64) AppleWebKit/537.36 (KHTML, like Gecko) Chrome/129.0.0.0 Safari/537.36","WebKit","Chrome","129.0.0.0","Windows","10.0","https://hz8g1ckzuq.cognition.run/","en,en-US;q=0.9","cft4zdcjewqj2qr","35","[""White""]","No","Female","799240.200000003","11434","","","{""price_1"":""4000"",""price_2"":""399"",""price_3"":""400""}","rating","tdc","attraction_1","2","washing machines","null","null","null","null","null","null","2","50","60","45","60","50","60","Average lifespan","Energy savings","",""
"","","","","","rating_trial_setup","html-keyboard-response","37","289462","0.0-3.0-0.17","38","1","2025-04-11 14:11:07","bb671e3ae32f654b8954ea4c4635f915","","Mozilla/5.0 (Windows NT 10.0; Win64; x64) AppleWebKit/537.36 (KHTML, like Gecko) Chrome/129.0.0.0 Safari/537.36","WebKit","Chrome","129.0.0.0","Windows","10.0","https://hz8g1ckzuq.cognition.run/","en,en-US;q=0.9","cft4zdcjewqj2qr","35","[""White""]","No","Female","799240.200000003","null","","<p></p>","null","rating","ctd","attraction_1","1","televisions","null","null","null","null","null","null","2","","","","","","","","","",""
"","","","","","rating_trial","survey-html-form","38","295085","0.0-3.0-1.17","38","1","2025-04-11 14:11:07","bb671e3ae32f654b8954ea4c4635f915","","Mozilla/5.0 (Windows NT 10.0; Win64; x64) AppleWebKit/537.36 (KHTML, like Gecko) Chrome/129.0.0.0 Safari/537.36","WebKit","Chrome","129.0.0.0","Windows","10.0","https://hz8g1ckzuq.cognition.run/","en,en-US;q=0.9","cft4zdcjewqj2qr","35","[""White""]","No","Female","799240.200000003","5617","","","{""price_1"":""400"",""price_2"":""300"",""price_3"":""200""}","rating","ctd","attraction_1","1","televisions","null","null","null","null","null","null","2","60","50","60","50","60","45","Screen size","Average lifespan","",""
"","","","","","rating_trial_setup","html-keyboard-response","39","295394","0.0-3.0-0.18","38","1","2025-04-11 14:11:07","bb671e3ae32f654b8954ea4c4635f915","","Mozilla/5.0 (Windows NT 10.0; Win64; x64) AppleWebKit/537.36 (KHTML, like Gecko) Chrome/129.0.0.0 Safari/537.36","WebKit","Chrome","129.0.0.0","Windows","10.0","https://hz8g1ckzuq.cognition.run/","en,en-US;q=0.9","cft4zdcjewqj2qr","35","[""White""]","No","Female","799240.200000003","null","","<p></p>","null","rating","tdc","repulsion_1","1","laptops","null","null","null","null","null","null","1","","","","","","","","","",""
"","","","","","rating_trial","survey-html-form","40","301417","0.0-3.0-1.18","38","1","2025-04-11 14:11:07","bb671e3ae32f654b8954ea4c4635f915","","Mozilla/5.0 (Windows NT 10.0; Win64; x64) AppleWebKit/537.36 (KHTML, like Gecko) Chrome/129.0.0.0 Safari/537.36","WebKit","Chrome","129.0.0.0","Windows","10.0","https://hz8g1ckzuq.cognition.run/","en,en-US;q=0.9","cft4zdcjewqj2qr","35","[""White""]","No","Female","799240.200000003","6018","","","{""price_1"":""300"",""price_2"":""400"",""price_3"":""300""}","rating","tdc","repulsion_1","1","laptops","null","null","null","null","null","null","1","100","90","100","30","40","25","Processing speed","Memory (RAM)","",""
"","","","","","rating_trial_setup","html-keyboard-response","41","301725","0.0-3.0-0.19","38","1","2025-04-11 14:11:07","bb671e3ae32f654b8954ea4c4635f915","","Mozilla/5.0 (Windows NT 10.0; Win64; x64) AppleWebKit/537.36 (KHTML, like Gecko) Chrome/129.0.0.0 Safari/537.36","WebKit","Chrome","129.0.0.0","Windows","10.0","https://hz8g1ckzuq.cognition.run/","en,en-US;q=0.9","cft4zdcjewqj2qr","35","[""White""]","No","Female","799240.200000003","null","","<p></p>","null","rating","wwb","catch","null","televisions","60","80","45","30","25","25","2","","","","","","","","","",""
"","","","","","rating_trial","survey-html-form","42","313747","0.0-3.0-1.19","38","1","2025-04-11 14:11:07","bb671e3ae32f654b8954ea4c4635f915","","Mozilla/5.0 (Windows NT 10.0; Win64; x64) AppleWebKit/537.36 (KHTML, like Gecko) Chrome/129.0.0.0 Safari/537.36","WebKit","Chrome","129.0.0.0","Windows","10.0","https://hz8g1ckzuq.cognition.run/","en,en-US;q=0.9","cft4zdcjewqj2qr","35","[""White""]","No","Female","799240.200000003","12015","","","{""price_1"":""400"",""price_2"":""540"",""price_3"":""400""}","rating","wwb","catch","null","televisions","60","80","45","30","25","25","2","null","null","null","null","null","null","Screen size","Average lifespan","",""
"","","","","","rating_trial_setup","html-keyboard-response","43","314052","0.0-3.0-0.20","38","1","2025-04-11 14:11:07","bb671e3ae32f654b8954ea4c4635f915","","Mozilla/5.0 (Windows NT 10.0; Win64; x64) AppleWebKit/537.36 (KHTML, like Gecko) Chrome/129.0.0.0 Safari/537.36","WebKit","Chrome","129.0.0.0","Windows","10.0","https://hz8g1ckzuq.cognition.run/","en,en-US;q=0.9","cft4zdcjewqj2qr","35","[""White""]","No","Female","799240.200000003","null","","<p></p>","null","rating","cdt","attraction_1","1","washing machines","null","null","null","null","null","null","1","","","","","","","","","",""
"","","","","","rating_trial","survey-html-form","44","319518","0.0-3.0-1.20","38","1","2025-04-11 14:11:07","bb671e3ae32f654b8954ea4c4635f915","","Mozilla/5.0 (Windows NT 10.0; Win64; x64) AppleWebKit/537.36 (KHTML, like Gecko) Chrome/129.0.0.0 Safari/537.36","WebKit","Chrome","129.0.0.0","Windows","10.0","https://hz8g1ckzuq.cognition.run/","en,en-US;q=0.9","cft4zdcjewqj2qr","35","[""White""]","No","Female","799240.200000003","5457","","","{""price_1"":""400"",""price_2"":""400"",""price_3"":""350""}","rating","cdt","attraction_1","1","washing machines","null","null","null","null","null","null","1","60","50","60","50","60","45","Average lifespan","Energy savings","",""
"","","","","","rating_trial_setup","html-keyboard-response","45","319824","0.0-3.0-0.21","38","1","2025-04-11 14:11:07","bb671e3ae32f654b8954ea4c4635f915","","Mozilla/5.0 (Windows NT 10.0; Win64; x64) AppleWebKit/537.36 (KHTML, like Gecko) Chrome/129.0.0.0 Safari/537.36","WebKit","Chrome","129.0.0.0","Windows","10.0","https://hz8g1ckzuq.cognition.run/","en,en-US;q=0.9","cft4zdcjewqj2qr","35","[""White""]","No","Female","799240.200000003","null","","<p></p>","null","rating","tdc","repulsion_1","1","washing machines","null","null","null","null","null","null","1","","","","","","","","","",""
"","","","","","rating_trial","survey-html-form","46","334145","0.0-3.0-1.21","38","1","2025-04-11 14:11:07","bb671e3ae32f654b8954ea4c4635f915","","Mozilla/5.0 (Windows NT 10.0; Win64; x64) AppleWebKit/537.36 (KHTML, like Gecko) Chrome/129.0.0.0 Safari/537.36","WebKit","Chrome","129.0.0.0","Windows","10.0","https://hz8g1ckzuq.cognition.run/","en,en-US;q=0.9","cft4zdcjewqj2qr","35","[""White""]","No","Female","799240.200000003","14315","","","{""price_1"":""500"",""price_2"":""450"",""price_3"":""390""}","rating","tdc","repulsion_1","1","washing machines","null","null","null","null","null","null","1","100","90","100","30","40","25","Average lifespan","Energy savings","",""
"","","","","","rating_trial_setup","html-keyboard-response","47","334449","0.0-3.0-0.22","38","1","2025-04-11 14:11:07","bb671e3ae32f654b8954ea4c4635f915","","Mozilla/5.0 (Windows NT 10.0; Win64; x64) AppleWebKit/537.36 (KHTML, like Gecko) Chrome/129.0.0.0 Safari/537.36","WebKit","Chrome","129.0.0.0","Windows","10.0","https://hz8g1ckzuq.cognition.run/","en,en-US;q=0.9","cft4zdcjewqj2qr","35","[""White""]","No","Female","799240.200000003","null","","<p></p>","null","rating","ctd","repulsion_1","2","washing machines","null","null","null","null","null","null","2","","","","","","","","","",""
"","","","","","rating_trial","survey-html-form","48","344911","0.0-3.0-1.22","38","1","2025-04-11 14:11:07","bb671e3ae32f654b8954ea4c4635f915","","Mozilla/5.0 (Windows NT 10.0; Win64; x64) AppleWebKit/537.36 (KHTML, like Gecko) Chrome/129.0.0.0 Safari/537.36","WebKit","Chrome","129.0.0.0","Windows","10.0","https://hz8g1ckzuq.cognition.run/","en,en-US;q=0.9","cft4zdcjewqj2qr","35","[""White""]","No","Female","799240.200000003","10452","","","{""price_1"":""200"",""price_2"":""500"",""price_3"":""500""}","rating","ctd","repulsion_1","2","washing machines","null","null","null","null","null","null","2","30","40","25","100","90","100","Average lifespan","Energy savings","",""
"","","","","","rating_trial_setup","html-keyboard-response","49","345213","0.0-3.0-0.23","38","1","2025-04-11 14:11:07","bb671e3ae32f654b8954ea4c4635f915","","Mozilla/5.0 (Windows NT 10.0; Win64; x64) AppleWebKit/537.36 (KHTML, like Gecko) Chrome/129.0.0.0 Safari/537.36","WebKit","Chrome","129.0.0.0","Windows","10.0","https://hz8g1ckzuq.cognition.run/","en,en-US;q=0.9","cft4zdcjewqj2qr","35","[""White""]","No","Female","799240.200000003","null","","<p></p>","null","rating","wbw","catch","null","laptops","95","50","30","5","30","40","2","","","","","","","","","",""
"","","","","","rating_trial","survey-html-form","50","358354","0.0-3.0-1.23","38","1","2025-04-11 14:11:07","bb671e3ae32f654b8954ea4c4635f915","","Mozilla/5.0 (Windows NT 10.0; Win64; x64) AppleWebKit/537.36 (KHTML, like Gecko) Chrome/129.0.0.0 Safari/537.36","WebKit","Chrome","129.0.0.0","Windows","10.0","https://hz8g1ckzuq.cognition.run/","en,en-US;q=0.9","cft4zdcjewqj2qr","35","[""White""]","No","Female","799240.200000003","13132","","","{""price_1"":""300"",""price_2"":""350"",""price_3"":""320""}","rating","wbw","catch","null","laptops","95","50","30","5","30","40","2","null","null","null","null","null","null","Processing speed","Memory (RAM)","",""
"","","","","","rating_trial_setup","html-keyboard-response","51","358661","0.0-3.0-0.24","38","1","2025-04-11 14:11:07","bb671e3ae32f654b8954ea4c4635f915","","Mozilla/5.0 (Windows NT 10.0; Win64; x64) AppleWebKit/537.36 (KHTML, like Gecko) Chrome/129.0.0.0 Safari/537.36","WebKit","Chrome","129.0.0.0","Windows","10.0","https://hz8g1ckzuq.cognition.run/","en,en-US;q=0.9","cft4zdcjewqj2qr","35","[""White""]","No","Female","799240.200000003","null","","<p></p>","null","rating","dct","attraction_2","2","washing machines","null","null","null","null","null","null","1","","","","","","","","","",""
"","","","","","rating_trial","survey-html-form","52","371321","0.0-3.0-1.24","38","1","2025-04-11 14:11:07","bb671e3ae32f654b8954ea4c4635f915","","Mozilla/5.0 (Windows NT 10.0; Win64; x64) AppleWebKit/537.36 (KHTML, like Gecko) Chrome/129.0.0.0 Safari/537.36","WebKit","Chrome","129.0.0.0","Windows","10.0","https://hz8g1ckzuq.cognition.run/","en,en-US;q=0.9","cft4zdcjewqj2qr","35","[""White""]","No","Female","799240.200000003","12653","","","{""price_1"":""400"",""price_2"":""400"",""price_3"":""450""}","rating","dct","attraction_2","2","washing machines","null","null","null","null","null","null","1","50","60","40","60","50","60","Average lifespan","Energy savings","",""
"","","","","","rating_trial_setup","html-keyboard-response","53","371625","0.0-3.0-0.25","38","1","2025-04-11 14:11:07","bb671e3ae32f654b8954ea4c4635f915","","Mozilla/5.0 (Windows NT 10.0; Win64; x64) AppleWebKit/537.36 (KHTML, like Gecko) Chrome/129.0.0.0 Safari/537.36","WebKit","Chrome","129.0.0.0","Windows","10.0","https://hz8g1ckzuq.cognition.run/","en,en-US;q=0.9","cft4zdcjewqj2qr","35","[""White""]","No","Female","799240.200000003","null","","<p></p>","null","rating","dct","repulsion_2","1","microwave ovens","null","null","null","null","null","null","1","","","","","","","","","",""
"","","","","","rating_trial","survey-html-form","54","387204","0.0-3.0-1.25","38","1","2025-04-11 14:11:07","bb671e3ae32f654b8954ea4c4635f915","","Mozilla/5.0 (Windows NT 10.0; Win64; x64) AppleWebKit/537.36 (KHTML, like Gecko) Chrome/129.0.0.0 Safari/537.36","WebKit","Chrome","129.0.0.0","Windows","10.0","https://hz8g1ckzuq.cognition.run/","en,en-US;q=0.9","cft4zdcjewqj2qr","35","[""White""]","No","Female","799240.200000003","15575","","","{""price_1"":""400"",""price_2"":""350"",""price_3"":""400""}","rating","dct","repulsion_2","1","microwave ovens","null","null","null","null","null","null","1","100","90","100","30","40","20","Warranty","Cooking power","",""
"","","","","","rating_trial_setup","html-keyboard-response","55","387514","0.0-3.0-0.26","38","1","2025-04-11 14:11:07","bb671e3ae32f654b8954ea4c4635f915","","Mozilla/5.0 (Windows NT 10.0; Win64; x64) AppleWebKit/537.36 (KHTML, like Gecko) Chrome/129.0.0.0 Safari/537.36","WebKit","Chrome","129.0.0.0","Windows","10.0","https://hz8g1ckzuq.cognition.run/","en,en-US;q=0.9","cft4zdcjewqj2qr","35","[""White""]","No","Female","799240.200000003","null","","<p></p>","null","rating","dtc","attraction_2","1","washing machines","null","null","null","null","null","null","1","","","","","","","","","",""
"","","","","","rating_trial","survey-html-form","56","398981","0.0-3.0-1.26","38","1","2025-04-11 14:11:07","bb671e3ae32f654b8954ea4c4635f915","","Mozilla/5.0 (Windows NT 10.0; Win64; x64) AppleWebKit/537.36 (KHTML, like Gecko) Chrome/129.0.0.0 Safari/537.36","WebKit","Chrome","129.0.0.0","Windows","10.0","https://hz8g1ckzuq.cognition.run/","en,en-US;q=0.9","cft4zdcjewqj2qr","35","[""White""]","No","Female","799240.200000003","11456","","","{""price_1"":""500"",""price_2"":""560"",""price_3"":""400""}","rating","dtc","attraction_2","1","washing machines","null","null","null","null","null","null","1","60","50","60","50","60","40","Average lifespan","Energy savings","",""
"","","","","","rating_trial_setup","html-keyboard-response","57","399293","0.0-3.0-0.27","38","1","2025-04-11 14:11:07","bb671e3ae32f654b8954ea4c4635f915","","Mozilla/5.0 (Windows NT 10.0; Win64; x64) AppleWebKit/537.36 (KHTML, like Gecko) Chrome/129.0.0.0 Safari/537.36","WebKit","Chrome","129.0.0.0","Windows","10.0","https://hz8g1ckzuq.cognition.run/","en,en-US;q=0.9","cft4zdcjewqj2qr","35","[""White""]","No","Female","799240.200000003","null","","<p></p>","null","rating","dtc","attraction_1","2","laptops","null","null","null","null","null","null","1","","","","","","","","","",""
"","","","","","rating_trial","survey-html-form","58","408749","0.0-3.0-1.27","38","1","2025-04-11 14:11:07","bb671e3ae32f654b8954ea4c4635f915","","Mozilla/5.0 (Windows NT 10.0; Win64; x64) AppleWebKit/537.36 (KHTML, like Gecko) Chrome/129.0.0.0 Safari/537.36","WebKit","Chrome","129.0.0.0","Windows","10.0","https://hz8g1ckzuq.cognition.run/","en,en-US;q=0.9","cft4zdcjewqj2qr","35","[""White""]","No","Female","799240.200000003","9447","","","{""price_1"":""500"",""price_2"":""600"",""price_3"":""650""}","rating","dtc","attraction_1","2","laptops","null","null","null","null","null","null","1","50","60","45","60","50","60","Processing speed","Memory (RAM)","",""
"","","","","","rating_trial_setup","html-keyboard-response","59","409059","0.0-3.0-0.28","38","1","2025-04-11 14:11:07","bb671e3ae32f654b8954ea4c4635f915","","Mozilla/5.0 (Windows NT 10.0; Win64; x64) AppleWebKit/537.36 (KHTML, like Gecko) Chrome/129.0.0.0 Safari/537.36","WebKit","Chrome","129.0.0.0","Windows","10.0","https://hz8g1ckzuq.cognition.run/","en,en-US;q=0.9","cft4zdcjewqj2qr","35","[""White""]","No","Female","799240.200000003","null","","<p></p>","null","rating","tdc","attraction_2","2","laptops","null","null","null","null","null","null","1","","","","","","","","","",""
"","","","","","rating_trial","survey-html-form","60","417935","0.0-3.0-1.28","38","1","2025-04-11 14:11:07","bb671e3ae32f654b8954ea4c4635f915","","Mozilla/5.0 (Windows NT 10.0; Win64; x64) AppleWebKit/537.36 (KHTML, like Gecko) Chrome/129.0.0.0 Safari/537.36","WebKit","Chrome","129.0.0.0","Windows","10.0","https://hz8g1ckzuq.cognition.run/","en,en-US;q=0.9","cft4zdcjewqj2qr","35","[""White""]","No","Female","799240.200000003","8868","","","{""price_1"":""200"",""price_2"":""1250"",""price_3"":""300""}","rating","tdc","attraction_2","2","laptops","null","null","null","null","null","null","1","50","60","40","60","50","60","Processing speed","Memory (RAM)","",""
"","","","","","rating_trial_setup","html-keyboard-response","61","418239","0.0-3.0-0.29","38","1","2025-04-11 14:11:07","bb671e3ae32f654b8954ea4c4635f915","","Mozilla/5.0 (Windows NT 10.0; Win64; x64) AppleWebKit/537.36 (KHTML, like Gecko) Chrome/129.0.0.0 Safari/537.36","WebKit","Chrome","129.0.0.0","Windows","10.0","https://hz8g1ckzuq.cognition.run/","en,en-US;q=0.9","cft4zdcjewqj2qr","35","[""White""]","No","Female","799240.200000003","null","","<p></p>","null","rating","tcd","attraction_2","2","televisions","null","null","null","null","null","null","1","","","","","","","","","",""
"","","","","","rating_trial","survey-html-form","62","429818","0.0-3.0-1.29","38","1","2025-04-11 14:11:07","bb671e3ae32f654b8954ea4c4635f915","","Mozilla/5.0 (Windows NT 10.0; Win64; x64) AppleWebKit/537.36 (KHTML, like Gecko) Chrome/129.0.0.0 Safari/537.36","WebKit","Chrome","129.0.0.0","Windows","10.0","https://hz8g1ckzuq.cognition.run/","en,en-US;q=0.9","cft4zdcjewqj2qr","35","[""White""]","No","Female","799240.200000003","11570","","","{""price_1"":""400"",""price_2"":""500"",""price_3"":""400""}","rating","tcd","attraction_2","2","televisions","null","null","null","null","null","null","1","50","60","40","60","50","60","Screen size","Average lifespan","",""
"","","","","","rating_trial_setup","html-keyboard-response","63","430125","0.0-3.0-0.30","38","1","2025-04-11 14:11:07","bb671e3ae32f654b8954ea4c4635f915","","Mozilla/5.0 (Windows NT 10.0; Win64; x64) AppleWebKit/537.36 (KHTML, like Gecko) Chrome/129.0.0.0 Safari/537.36","WebKit","Chrome","129.0.0.0","Windows","10.0","https://hz8g1ckzuq.cognition.run/","en,en-US;q=0.9","cft4zdcjewqj2qr","35","[""White""]","No","Female","799240.200000003","null","","<p></p>","null","rating","dtc","attraction_1","1","laptops","null","null","null","null","null","null","1","","","","","","","","","",""
"","","","","","rating_trial","survey-html-form","64","512675","0.0-3.0-1.30","38","1","2025-04-11 14:11:07","bb671e3ae32f654b8954ea4c4635f915","","Mozilla/5.0 (Windows NT 10.0; Win64; x64) AppleWebKit/537.36 (KHTML, like Gecko) Chrome/129.0.0.0 Safari/537.36","WebKit","Chrome","129.0.0.0","Windows","10.0","https://hz8g1ckzuq.cognition.run/","en,en-US;q=0.9","cft4zdcjewqj2qr","35","[""White""]","No","Female","799240.200000003","82540","","","{""price_1"":""300"",""price_2"":""400"",""price_3"":""400""}","rating","dtc","attraction_1","1","laptops","null","null","null","null","null","null","1","60","50","60","50","60","45","Processing speed","Memory (RAM)","",""
"","","","","","rating_trial_setup","html-keyboard-response","65","512999","0.0-3.0-0.31","38","1","2025-04-11 14:11:07","bb671e3ae32f654b8954ea4c4635f915","","Mozilla/5.0 (Windows NT 10.0; Win64; x64) AppleWebKit/537.36 (KHTML, like Gecko) Chrome/129.0.0.0 Safari/537.36","WebKit","Chrome","129.0.0.0","Windows","10.0","https://hz8g1ckzuq.cognition.run/","en,en-US;q=0.9","cft4zdcjewqj2qr","35","[""White""]","No","Female","799240.200000003","null","","<p></p>","null","rating","wbw","catch","null","microwave ovens","50","90","40","25","25","20","2","","","","","","","","","",""
"","","","","","rating_trial","survey-html-form","66","521524","0.0-3.0-1.31","38","1","2025-04-11 14:11:07","bb671e3ae32f654b8954ea4c4635f915","","Mozilla/5.0 (Windows NT 10.0; Win64; x64) AppleWebKit/537.36 (KHTML, like Gecko) Chrome/129.0.0.0 Safari/537.36","WebKit","Chrome","129.0.0.0","Windows","10.0","https://hz8g1ckzuq.cognition.run/","en,en-US;q=0.9","cft4zdcjewqj2qr","35","[""White""]","No","Female","799240.200000003","8515","","","{""price_1"":""300"",""price_2"":""490"",""price_3"":""400""}","rating","wbw","catch","null","microwave ovens","50","90","40","25","25","20","2","null","null","null","null","null","null","Warranty","Cooking power","",""
"","","","","","rating_trial_setup","html-keyboard-response","67","521833","0.0-3.0-0.32","38","1","2025-04-11 14:11:07","bb671e3ae32f654b8954ea4c4635f915","","Mozilla/5.0 (Windows NT 10.0; Win64; x64) AppleWebKit/537.36 (KHTML, like Gecko) Chrome/129.0.0.0 Safari/537.36","WebKit","Chrome","129.0.0.0","Windows","10.0","https://hz8g1ckzuq.cognition.run/","en,en-US;q=0.9","cft4zdcjewqj2qr","35","[""White""]","No","Female","799240.200000003","null","","<p></p>","null","rating","dtc","repulsion_1","2","laptops","null","null","null","null","null","null","1","","","","","","","","","",""
"","","","","","rating_trial","survey-html-form","68","533358","0.0-3.0-1.32","38","1","2025-04-11 14:11:07","bb671e3ae32f654b8954ea4c4635f915","","Mozilla/5.0 (Windows NT 10.0; Win64; x64) AppleWebKit/537.36 (KHTML, like Gecko) Chrome/129.0.0.0 Safari/537.36","WebKit","Chrome","129.0.0.0","Windows","10.0","https://hz8g1ckzuq.cognition.run/","en,en-US;q=0.9","cft4zdcjewqj2qr","35","[""White""]","No","Female","799240.200000003","11517","","","{""price_1"":""299"",""price_2"":""299"",""price_3"":""300""}","rating","dtc","repulsion_1","2","laptops","null","null","null","null","null","null","1","30","40","25","100","90","100","Processing speed","Memory (RAM)","",""
"","","","","","rating_trial_setup","html-keyboard-response","69","533662","0.0-3.0-0.33","38","1","2025-04-11 14:11:07","bb671e3ae32f654b8954ea4c4635f915","","Mozilla/5.0 (Windows NT 10.0; Win64; x64) AppleWebKit/537.36 (KHTML, like Gecko) Chrome/129.0.0.0 Safari/537.36","WebKit","Chrome","129.0.0.0","Windows","10.0","https://hz8g1ckzuq.cognition.run/","en,en-US;q=0.9","cft4zdcjewqj2qr","35","[""White""]","No","Female","799240.200000003","null","","<p></p>","null","rating","tdc","repulsion_2","1","laptops","null","null","null","null","null","null","2","","","","","","","","","",""
"","","","","","rating_trial","survey-html-form","70","543908","0.0-3.0-1.33","38","1","2025-04-11 14:11:07","bb671e3ae32f654b8954ea4c4635f915","","Mozilla/5.0 (Windows NT 10.0; Win64; x64) AppleWebKit/537.36 (KHTML, like Gecko) Chrome/129.0.0.0 Safari/537.36","WebKit","Chrome","129.0.0.0","Windows","10.0","https://hz8g1ckzuq.cognition.run/","en,en-US;q=0.9","cft4zdcjewqj2qr","35","[""White""]","No","Female","799240.200000003","10236","","","{""price_1"":""300"",""price_2"":""250"",""price_3"":""400""}","rating","tdc","repulsion_2","1","laptops","null","null","null","null","null","null","2","100","90","100","30","40","20","Processing speed","Memory (RAM)","",""
"","","","","","rating_trial_setup","html-keyboard-response","71","544218","0.0-3.0-0.34","38","1","2025-04-11 14:11:07","bb671e3ae32f654b8954ea4c4635f915","","Mozilla/5.0 (Windows NT 10.0; Win64; x64) AppleWebKit/537.36 (KHTML, like Gecko) Chrome/129.0.0.0 Safari/537.36","WebKit","Chrome","129.0.0.0","Windows","10.0","https://hz8g1ckzuq.cognition.run/","en,en-US;q=0.9","cft4zdcjewqj2qr","35","[""White""]","No","Female","799240.200000003","null","","<p></p>","null","rating","dtc","repulsion_1","2","microwave ovens","null","null","null","null","null","null","2","","","","","","","","","",""
"","","","","","rating_trial","survey-html-form","72","557046","0.0-3.0-1.34","38","1","2025-04-11 14:11:07","bb671e3ae32f654b8954ea4c4635f915","","Mozilla/5.0 (Windows NT 10.0; Win64; x64) AppleWebKit/537.36 (KHTML, like Gecko) Chrome/129.0.0.0 Safari/537.36","WebKit","Chrome","129.0.0.0","Windows","10.0","https://hz8g1ckzuq.cognition.run/","en,en-US;q=0.9","cft4zdcjewqj2qr","35","[""White""]","No","Female","799240.200000003","12816","","","{""price_1"":""300"",""price_2"":""299"",""price_3"":""250""}","rating","dtc","repulsion_1","2","microwave ovens","null","null","null","null","null","null","2","30","40","25","100","90","100","Warranty","Cooking power","",""
"","","","","","rating_trial_setup","html-keyboard-response","73","557361","0.0-3.0-0.35","38","1","2025-04-11 14:11:07","bb671e3ae32f654b8954ea4c4635f915","","Mozilla/5.0 (Windows NT 10.0; Win64; x64) AppleWebKit/537.36 (KHTML, like Gecko) Chrome/129.0.0.0 Safari/537.36","WebKit","Chrome","129.0.0.0","Windows","10.0","https://hz8g1ckzuq.cognition.run/","en,en-US;q=0.9","cft4zdcjewqj2qr","35","[""White""]","No","Female","799240.200000003","null","","<p></p>","null","rating","tdc","repulsion_2","1","televisions","null","null","null","null","null","null","2","","","","","","","","","",""
"","","","","","rating_trial","survey-html-form","74","565070","0.0-3.0-1.35","38","1","2025-04-11 14:11:07","bb671e3ae32f654b8954ea4c4635f915","","Mozilla/5.0 (Windows NT 10.0; Win64; x64) AppleWebKit/537.36 (KHTML, like Gecko) Chrome/129.0.0.0 Safari/537.36","WebKit","Chrome","129.0.0.0","Windows","10.0","https://hz8g1ckzuq.cognition.run/","en,en-US;q=0.9","cft4zdcjewqj2qr","35","[""White""]","No","Female","799240.200000003","7699","","","{""price_1"":""300"",""price_2"":""200"",""price_3"":""600""}","rating","tdc","repulsion_2","1","televisions","null","null","null","null","null","null","2","100","90","100","30","40","20","Screen size","Average lifespan","",""
"","","","","","rating_trial_setup","html-keyboard-response","75","565383","0.0-3.0-0.36","38","1","2025-04-11 14:11:07","bb671e3ae32f654b8954ea4c4635f915","","Mozilla/5.0 (Windows NT 10.0; Win64; x64) AppleWebKit/537.36 (KHTML, like Gecko) Chrome/129.0.0.0 Safari/537.36","WebKit","Chrome","129.0.0.0","Windows","10.0","https://hz8g1ckzuq.cognition.run/","en,en-US;q=0.9","cft4zdcjewqj2qr","35","[""White""]","No","Female","799240.200000003","null","","<p></p>","null","rating","bww","catch","null","washing machines","60","75","40","10","10","10","1","","","","","","","","","",""
"","","","","","rating_trial","survey-html-form","76","572678","0.0-3.0-1.36","38","1","2025-04-11 14:11:07","bb671e3ae32f654b8954ea4c4635f915","","Mozilla/5.0 (Windows NT 10.0; Win64; x64) AppleWebKit/537.36 (KHTML, like Gecko) Chrome/129.0.0.0 Safari/537.36","WebKit","Chrome","129.0.0.0","Windows","10.0","https://hz8g1ckzuq.cognition.run/","en,en-US;q=0.9","cft4zdcjewqj2qr","35","[""White""]","No","Female","799240.200000003","7286","","","{""price_1"":""300"",""price_2"":""400"",""price_3"":""200""}","rating","bww","catch","null","washing machines","60","75","40","10","10","10","1","null","null","null","null","null","null","Average lifespan","Energy savings","",""
"","","","","","rating_trial_setup","html-keyboard-response","77","572985","0.0-3.0-0.37","38","1","2025-04-11 14:11:07","bb671e3ae32f654b8954ea4c4635f915","","Mozilla/5.0 (Windows NT 10.0; Win64; x64) AppleWebKit/537.36 (KHTML, like Gecko) Chrome/129.0.0.0 Safari/537.36","WebKit","Chrome","129.0.0.0","Windows","10.0","https://hz8g1ckzuq.cognition.run/","en,en-US;q=0.9","cft4zdcjewqj2qr","35","[""White""]","No","Female","799240.200000003","null","","<p></p>","null","rating","wbw","catch","null","televisions","95","75","45","40","25","30","1","","","","","","","","","",""
"","","","","","rating_trial","survey-html-form","78","583105","0.0-3.0-1.37","38","1","2025-04-11 14:11:07","bb671e3ae32f654b8954ea4c4635f915","","Mozilla/5.0 (Windows NT 10.0; Win64; x64) AppleWebKit/537.36 (KHTML, like Gecko) Chrome/129.0.0.0 Safari/537.36","WebKit","Chrome","129.0.0.0","Windows","10.0","https://hz8g1ckzuq.cognition.run/","en,en-US;q=0.9","cft4zdcjewqj2qr","35","[""White""]","No","Female","799240.200000003","10116","","","{""price_1"":""300"",""price_2"":""350"",""price_3"":""250""}","rating","wbw","catch","null","televisions","95","75","45","40","25","30","1","null","null","null","null","null","null","Screen size","Average lifespan","",""
"","","","","","rating_trial_setup","html-keyboard-response","79","583410","0.0-3.0-0.38","38","1","2025-04-11 14:11:07","bb671e3ae32f654b8954ea4c4635f915","","Mozilla/5.0 (Windows NT 10.0; Win64; x64) AppleWebKit/537.36 (KHTML, like Gecko) Chrome/129.0.0.0 Safari/537.36","WebKit","Chrome","129.0.0.0","Windows","10.0","https://hz8g1ckzuq.cognition.run/","en,en-US;q=0.9","cft4zdcjewqj2qr","35","[""White""]","No","Female","799240.200000003","null","","<p></p>","null","rating","wwb","catch","null","microwave ovens","85","90","35","35","35","35","1","","","","","","","","","",""
"","","","","","rating_trial","survey-html-form","80","598916","0.0-3.0-1.38","38","1","2025-04-11 14:11:07","bb671e3ae32f654b8954ea4c4635f915","","Mozilla/5.0 (Windows NT 10.0; Win64; x64) AppleWebKit/537.36 (KHTML, like Gecko) Chrome/129.0.0.0 Safari/537.36","WebKit","Chrome","129.0.0.0","Windows","10.0","https://hz8g1ckzuq.cognition.run/","en,en-US;q=0.9","cft4zdcjewqj2qr","35","[""White""]","No","Female","799240.200000003","15494","","","{""price_1"":""500"",""price_2"":""520"",""price_3"":""600""}","rating","wwb","catch","null","microwave ovens","85","90","35","35","35","35","1","null","null","null","null","null","null","Warranty","Cooking power","",""
"","","","","","rating_trial_setup","html-keyboard-response","81","599228","0.0-3.0-0.39","38","1","2025-04-11 14:11:07","bb671e3ae32f654b8954ea4c4635f915","","Mozilla/5.0 (Windows NT 10.0; Win64; x64) AppleWebKit/537.36 (KHTML, like Gecko) Chrome/129.0.0.0 Safari/537.36","WebKit","Chrome","129.0.0.0","Windows","10.0","https://hz8g1ckzuq.cognition.run/","en,en-US;q=0.9","cft4zdcjewqj2qr","35","[""White""]","No","Female","799240.200000003","null","","<p></p>","null","rating","dtc","repulsion_1","2","televisions","null","null","null","null","null","null","1","","","","","","","","","",""
"","","","","","rating_trial","survey-html-form","82","609419","0.0-3.0-1.39","38","1","2025-04-11 14:11:07","bb671e3ae32f654b8954ea4c4635f915","","Mozilla/5.0 (Windows NT 10.0; Win64; x64) AppleWebKit/537.36 (KHTML, like Gecko) Chrome/129.0.0.0 Safari/537.36","WebKit","Chrome","129.0.0.0","Windows","10.0","https://hz8g1ckzuq.cognition.run/","en,en-US;q=0.9","cft4zdcjewqj2qr","35","[""White""]","No","Female","799240.200000003","10181","","","{""price_1"":""200"",""price_2"":""250"",""price_3"":""300""}","rating","dtc","repulsion_1","2","televisions","null","null","null","null","null","null","1","30","40","25","100","90","100","Screen size","Average lifespan","",""
"","","","","","","instructions","83","663165","0.0-4.0","38","1","2025-04-11 14:11:07","bb671e3ae32f654b8954ea4c4635f915","","Mozilla/5.0 (Windows NT 10.0; Win64; x64) AppleWebKit/537.36 (KHTML, like Gecko) Chrome/129.0.0.0 Safari/537.36","WebKit","Chrome","129.0.0.0","Windows","10.0","https://hz8g1ckzuq.cognition.run/","en,en-US;q=0.9","cft4zdcjewqj2qr","35","[""White""]","No","Female","799240.200000003","53735","[{""page_index"":0,""viewing_time"":37160},{""page_index"":1,""viewing_time"":1313},{""page_index"":2,""viewing_time"":2294},{""page_index"":3,""viewing_time"":987},{""page_index"":4,""viewing_time"":5343},{""page_index"":5,""viewing_time"":909},{""page_index"":6,""viewing_time"":4561},{""page_index"":7,""viewing_time"":1168}]","","","","","","","","","","","","","","","","","","","","","","","",""
"","","","","","choice_trial_setup","html-keyboard-response","84","663475","0.0-5.0-0.0","38","1","2025-04-11 14:11:07","bb671e3ae32f654b8954ea4c4635f915","","Mozilla/5.0 (Windows NT 10.0; Win64; x64) AppleWebKit/537.36 (KHTML, like Gecko) Chrome/129.0.0.0 Safari/537.36","WebKit","Chrome","129.0.0.0","Windows","10.0","https://hz8g1ckzuq.cognition.run/","en,en-US;q=0.9","cft4zdcjewqj2qr","35","[""White""]","No","Female","799240.200000003","null","","<p></p>","null","choice","ctd","attraction_1","2","washing machines","null","null","null","null","null","null","2","","","","","","","","","",""
"","","","","","choice_trial","survey-html-form","85","671573","0.0-5.0-1.0","38","1","2025-04-11 14:11:07","bb671e3ae32f654b8954ea4c4635f915","","Mozilla/5.0 (Windows NT 10.0; Win64; x64) AppleWebKit/537.36 (KHTML, like Gecko) Chrome/129.0.0.0 Safari/537.36","WebKit","Chrome","129.0.0.0","Windows","10.0","https://hz8g1ckzuq.cognition.run/","en,en-US;q=0.9","cft4zdcjewqj2qr","35","[""White""]","No","Female","799240.200000003","8084","","","{""product_choice"":""B""}","choice","ctd","attraction_1","2","washing machines","null","null","null","null","null","null","2","50","60","45","60","50","60","Average lifespan","Energy savings","",""
"","","","","","choice_trial_setup","html-keyboard-response","86","671876","0.0-5.0-0.1","38","1","2025-04-11 14:11:07","bb671e3ae32f654b8954ea4c4635f915","","Mozilla/5.0 (Windows NT 10.0; Win64; x64) AppleWebKit/537.36 (KHTML, like Gecko) Chrome/129.0.0.0 Safari/537.36","WebKit","Chrome","129.0.0.0","Windows","10.0","https://hz8g1ckzuq.cognition.run/","en,en-US;q=0.9","cft4zdcjewqj2qr","35","[""White""]","No","Female","799240.200000003","null","","<p></p>","null","choice","dtc","repulsion_2","2","microwave ovens","null","null","null","null","null","null","1","","","","","","","","","",""
"","","","","","choice_trial","survey-html-form","87","673708","0.0-5.0-1.1","38","1","2025-04-11 14:11:07","bb671e3ae32f654b8954ea4c4635f915","","Mozilla/5.0 (Windows NT 10.0; Win64; x64) AppleWebKit/537.36 (KHTML, like Gecko) Chrome/129.0.0.0 Safari/537.36","WebKit","Chrome","129.0.0.0","Windows","10.0","https://hz8g1ckzuq.cognition.run/","en,en-US;q=0.9","cft4zdcjewqj2qr","35","[""White""]","No","Female","799240.200000003","1820","","","{""product_choice"":""B""}","choice","dtc","repulsion_2","2","microwave ovens","null","null","null","null","null","null","1","30","40","20","100","90","100","Warranty","Cooking power","",""
"","","","","","choice_trial_setup","html-keyboard-response","88","674013","0.0-5.0-0.2","38","1","2025-04-11 14:11:07","bb671e3ae32f654b8954ea4c4635f915","","Mozilla/5.0 (Windows NT 10.0; Win64; x64) AppleWebKit/537.36 (KHTML, like Gecko) Chrome/129.0.0.0 Safari/537.36","WebKit","Chrome","129.0.0.0","Windows","10.0","https://hz8g1ckzuq.cognition.run/","en,en-US;q=0.9","cft4zdcjewqj2qr","35","[""White""]","No","Female","799240.200000003","null","","<p></p>","null","choice","dtc","repulsion_2","1","microwave ovens","null","null","null","null","null","null","2","","","","","","","","","",""
"","","","","","choice_trial","survey-html-form","89","675591","0.0-5.0-1.2","38","1","2025-04-11 14:11:07","bb671e3ae32f654b8954ea4c4635f915","","Mozilla/5.0 (Windows NT 10.0; Win64; x64) AppleWebKit/537.36 (KHTML, like Gecko) Chrome/129.0.0.0 Safari/537.36","WebKit","Chrome","129.0.0.0","Windows","10.0","https://hz8g1ckzuq.cognition.run/","en,en-US;q=0.9","cft4zdcjewqj2qr","35","[""White""]","No","Female","799240.200000003","1569","","","{""product_choice"":""A""}","choice","dtc","repulsion_2","1","microwave ovens","null","null","null","null","null","null","2","100","90","100","30","40","20","Warranty","Cooking power","",""
"","","","","","choice_trial_setup","html-keyboard-response","90","675896","0.0-5.0-0.3","38","1","2025-04-11 14:11:07","bb671e3ae32f654b8954ea4c4635f915","","Mozilla/5.0 (Windows NT 10.0; Win64; x64) AppleWebKit/537.36 (KHTML, like Gecko) Chrome/129.0.0.0 Safari/537.36","WebKit","Chrome","129.0.0.0","Windows","10.0","https://hz8g1ckzuq.cognition.run/","en,en-US;q=0.9","cft4zdcjewqj2qr","35","[""White""]","No","Female","799240.200000003","null","","<p></p>","null","choice","dtc","attraction_2","2","televisions","null","null","null","null","null","null","1","","","","","","","","","",""
"","","","","","choice_trial","survey-html-form","91","677821","0.0-5.0-1.3","38","1","2025-04-11 14:11:07","bb671e3ae32f654b8954ea4c4635f915","","Mozilla/5.0 (Windows NT 10.0; Win64; x64) AppleWebKit/537.36 (KHTML, like Gecko) Chrome/129.0.0.0 Safari/537.36","WebKit","Chrome","129.0.0.0","Windows","10.0","https://hz8g1ckzuq.cognition.run/","en,en-US;q=0.9","cft4zdcjewqj2qr","35","[""White""]","No","Female","799240.200000003","1910","","","{""product_choice"":""B""}","choice","dtc","attraction_2","2","televisions","null","null","null","null","null","null","1","50","60","40","60","50","60","Screen size","Average lifespan","",""
"","","","","","choice_trial_setup","html-keyboard-response","92","678126","0.0-5.0-0.4","38","1","2025-04-11 14:11:07","bb671e3ae32f654b8954ea4c4635f915","","Mozilla/5.0 (Windows NT 10.0; Win64; x64) AppleWebKit/537.36 (KHTML, like Gecko) Chrome/129.0.0.0 Safari/537.36","WebKit","Chrome","129.0.0.0","Windows","10.0","https://hz8g1ckzuq.cognition.run/","en,en-US;q=0.9","cft4zdcjewqj2qr","35","[""White""]","No","Female","799240.200000003","null","","<p></p>","null","choice","bww","catch","null","washing machines","55","85","35","10","5","10","1","","","","","","","","","",""
"","","","","","choice_trial","survey-html-form","93","679333","0.0-5.0-1.4","38","1","2025-04-11 14:11:07","bb671e3ae32f654b8954ea4c4635f915","","Mozilla/5.0 (Windows NT 10.0; Win64; x64) AppleWebKit/537.36 (KHTML, like Gecko) Chrome/129.0.0.0 Safari/537.36","WebKit","Chrome","129.0.0.0","Windows","10.0","https://hz8g1ckzuq.cognition.run/","en,en-US;q=0.9","cft4zdcjewqj2qr","35","[""White""]","No","Female","799240.200000003","1195","","","{""product_choice"":""B""}","choice","bww","catch","null","washing machines","55","85","35","10","5","10","1","null","null","null","null","null","null","Average lifespan","Energy savings","",""
"","","","","","choice_trial_setup","html-keyboard-response","94","679639","0.0-5.0-0.5","38","1","2025-04-11 14:11:07","bb671e3ae32f654b8954ea4c4635f915","","Mozilla/5.0 (Windows NT 10.0; Win64; x64) AppleWebKit/537.36 (KHTML, like Gecko) Chrome/129.0.0.0 Safari/537.36","WebKit","Chrome","129.0.0.0","Windows","10.0","https://hz8g1ckzuq.cognition.run/","en,en-US;q=0.9","cft4zdcjewqj2qr","35","[""White""]","No","Female","799240.200000003","null","","<p></p>","null","choice","tdc","repulsion_2","1","laptops","null","null","null","null","null","null","2","","","","","","","","","",""
"","","","","","choice_trial","survey-html-form","95","688014","0.0-5.0-1.5","38","1","2025-04-11 14:11:07","bb671e3ae32f654b8954ea4c4635f915","","Mozilla/5.0 (Windows NT 10.0; Win64; x64) AppleWebKit/537.36 (KHTML, like Gecko) Chrome/129.0.0.0 Safari/537.36","WebKit","Chrome","129.0.0.0","Windows","10.0","https://hz8g1ckzuq.cognition.run/","en,en-US;q=0.9","cft4zdcjewqj2qr","35","[""White""]","No","Female","799240.200000003","8370","","","{""product_choice"":""A""}","choice","tdc","repulsion_2","1","laptops","null","null","null","null","null","null","2","100","90","100","30","40","20","Processing speed","Memory (RAM)","",""
"","","","","","choice_trial_setup","html-keyboard-response","96","688322","0.0-5.0-0.6","38","1","2025-04-11 14:11:07","bb671e3ae32f654b8954ea4c4635f915","","Mozilla/5.0 (Windows NT 10.0; Win64; x64) AppleWebKit/537.36 (KHTML, like Gecko) Chrome/129.0.0.0 Safari/537.36","WebKit","Chrome","129.0.0.0","Windows","10.0","https://hz8g1ckzuq.cognition.run/","en,en-US;q=0.9","cft4zdcjewqj2qr","35","[""White""]","No","Female","799240.200000003","null","","<p></p>","null","choice","dct","attraction_2","1","washing machines","null","null","null","null","null","null","2","","","","","","","","","",""
"","","","","","choice_trial","survey-html-form","97","690124","0.0-5.0-1.6","38","1","2025-04-11 14:11:07","bb671e3ae32f654b8954ea4c4635f915","","Mozilla/5.0 (Windows NT 10.0; Win64; x64) AppleWebKit/537.36 (KHTML, like Gecko) Chrome/129.0.0.0 Safari/537.36","WebKit","Chrome","129.0.0.0","Windows","10.0","https://hz8g1ckzuq.cognition.run/","en,en-US;q=0.9","cft4zdcjewqj2qr","35","[""White""]","No","Female","799240.200000003","1791","","","{""product_choice"":""B""}","choice","dct","attraction_2","1","washing machines","null","null","null","null","null","null","2","60","50","60","50","60","40","Average lifespan","Energy savings","",""
"","","","","","choice_trial_setup","html-keyboard-response","98","690430","0.0-5.0-0.7","38","1","2025-04-11 14:11:07","bb671e3ae32f654b8954ea4c4635f915","","Mozilla/5.0 (Windows NT 10.0; Win64; x64) AppleWebKit/537.36 (KHTML, like Gecko) Chrome/129.0.0.0 Safari/537.36","WebKit","Chrome","129.0.0.0","Windows","10.0","https://hz8g1ckzuq.cognition.run/","en,en-US;q=0.9","cft4zdcjewqj2qr","35","[""White""]","No","Female","799240.200000003","null","","<p></p>","null","choice","tdc","attraction_2","1","laptops","null","null","null","null","null","null","2","","","","","","","","","",""
"","","","","","choice_trial","survey-html-form","99","691488","0.0-5.0-1.7","38","1","2025-04-11 14:11:07","bb671e3ae32f654b8954ea4c4635f915","","Mozilla/5.0 (Windows NT 10.0; Win64; x64) AppleWebKit/537.36 (KHTML, like Gecko) Chrome/129.0.0.0 Safari/537.36","WebKit","Chrome","129.0.0.0","Windows","10.0","https://hz8g1ckzuq.cognition.run/","en,en-US;q=0.9","cft4zdcjewqj2qr","35","[""White""]","No","Female","799240.200000003","1045","","","{""product_choice"":""B""}","choice","tdc","attraction_2","1","laptops","null","null","null","null","null","null","2","60","50","60","50","60","40","Processing speed","Memory (RAM)","",""
"","","","","","choice_trial_setup","html-keyboard-response","100","691792","0.0-5.0-0.8","38","1","2025-04-11 14:11:07","bb671e3ae32f654b8954ea4c4635f915","","Mozilla/5.0 (Windows NT 10.0; Win64; x64) AppleWebKit/537.36 (KHTML, like Gecko) Chrome/129.0.0.0 Safari/537.36","WebKit","Chrome","129.0.0.0","Windows","10.0","https://hz8g1ckzuq.cognition.run/","en,en-US;q=0.9","cft4zdcjewqj2qr","35","[""White""]","No","Female","799240.200000003","null","","<p></p>","null","choice","cdt","attraction_2","2","microwave ovens","null","null","null","null","null","null","1","","","","","","","","","",""
"","","","","","choice_trial","survey-html-form","101","692792","0.0-5.0-1.8","38","1","2025-04-11 14:11:07","bb671e3ae32f654b8954ea4c4635f915","","Mozilla/5.0 (Windows NT 10.0; Win64; x64) AppleWebKit/537.36 (KHTML, like Gecko) Chrome/129.0.0.0 Safari/537.36","WebKit","Chrome","129.0.0.0","Windows","10.0","https://hz8g1ckzuq.cognition.run/","en,en-US;q=0.9","cft4zdcjewqj2qr","35","[""White""]","No","Female","799240.200000003","986","","","{""product_choice"":""A""}","choice","cdt","attraction_2","2","microwave ovens","null","null","null","null","null","null","1","50","60","40","60","50","60","Warranty","Cooking power","",""
"","","","","","choice_trial_setup","html-keyboard-response","102","693105","0.0-5.0-0.9","38","1","2025-04-11 14:11:07","bb671e3ae32f654b8954ea4c4635f915","","Mozilla/5.0 (Windows NT 10.0; Win64; x64) AppleWebKit/537.36 (KHTML, like Gecko) Chrome/129.0.0.0 Safari/537.36","WebKit","Chrome","129.0.0.0","Windows","10.0","https://hz8g1ckzuq.cognition.run/","en,en-US;q=0.9","cft4zdcjewqj2qr","35","[""White""]","No","Female","799240.200000003","null","","<p></p>","null","choice","dtc","repulsion_1","1","washing machines","null","null","null","null","null","null","2","","","","","","","","","",""
"","","","","","choice_trial","survey-html-form","103","694143","0.0-5.0-1.9","38","1","2025-04-11 14:11:07","bb671e3ae32f654b8954ea4c4635f915","","Mozilla/5.0 (Windows NT 10.0; Win64; x64) AppleWebKit/537.36 (KHTML, like Gecko) Chrome/129.0.0.0 Safari/537.36","WebKit","Chrome","129.0.0.0","Windows","10.0","https://hz8g1ckzuq.cognition.run/","en,en-US;q=0.9","cft4zdcjewqj2qr","35","[""White""]","No","Female","799240.200000003","1026","","","{""product_choice"":""C""}","choice","dtc","repulsion_1","1","washing machines","null","null","null","null","null","null","2","100","90","100","30","40","25","Average lifespan","Energy savings","",""
"","","","","","choice_trial_setup","html-keyboard-response","104","694462","0.0-5.0-0.10","38","1","2025-04-11 14:11:07","bb671e3ae32f654b8954ea4c4635f915","","Mozilla/5.0 (Windows NT 10.0; Win64; x64) AppleWebKit/537.36 (KHTML, like Gecko) Chrome/129.0.0.0 Safari/537.36","WebKit","Chrome","129.0.0.0","Windows","10.0","https://hz8g1ckzuq.cognition.run/","en,en-US;q=0.9","cft4zdcjewqj2qr","35","[""White""]","No","Female","799240.200000003","null","","<p></p>","null","choice","dct","attraction_1","2","televisions","null","null","null","null","null","null","2","","","","","","","","","",""
"","","","","","choice_trial","survey-html-form","105","695508","0.0-5.0-1.10","38","1","2025-04-11 14:11:07","bb671e3ae32f654b8954ea4c4635f915","","Mozilla/5.0 (Windows NT 10.0; Win64; x64) AppleWebKit/537.36 (KHTML, like Gecko) Chrome/129.0.0.0 Safari/537.36","WebKit","Chrome","129.0.0.0","Windows","10.0","https://hz8g1ckzuq.cognition.run/","en,en-US;q=0.9","cft4zdcjewqj2qr","35","[""White""]","No","Female","799240.200000003","1040","","","{""product_choice"":""B""}","choice","dct","attraction_1","2","televisions","null","null","null","null","null","null","2","50","60","45","60","50","60","Screen size","Average lifespan","",""
"","","","","","choice_trial_setup","html-keyboard-response","106","695818","0.0-5.0-0.11","38","1","2025-04-11 14:11:07","bb671e3ae32f654b8954ea4c4635f915","","Mozilla/5.0 (Windows NT 10.0; Win64; x64) AppleWebKit/537.36 (KHTML, like Gecko) Chrome/129.0.0.0 Safari/537.36","WebKit","Chrome","129.0.0.0","Windows","10.0","https://hz8g1ckzuq.cognition.run/","en,en-US;q=0.9","cft4zdcjewqj2qr","35","[""White""]","No","Female","799240.200000003","null","","<p></p>","null","choice","ctd","repulsion_2","2","washing machines","null","null","null","null","null","null","1","","","","","","","","","",""
"","","","","","choice_trial","survey-html-form","107","696818","0.0-5.0-1.11","38","1","2025-04-11 14:11:07","bb671e3ae32f654b8954ea4c4635f915","","Mozilla/5.0 (Windows NT 10.0; Win64; x64) AppleWebKit/537.36 (KHTML, like Gecko) Chrome/129.0.0.0 Safari/537.36","WebKit","Chrome","129.0.0.0","Windows","10.0","https://hz8g1ckzuq.cognition.run/","en,en-US;q=0.9","cft4zdcjewqj2qr","35","[""White""]","No","Female","799240.200000003","990","","","{""product_choice"":""B""}","choice","ctd","repulsion_2","2","washing machines","null","null","null","null","null","null","1","30","40","20","100","90","100","Average lifespan","Energy savings","",""
"","","","","","choice_trial_setup","html-keyboard-response","108","697124","0.0-5.0-0.12","38","1","2025-04-11 14:11:07","bb671e3ae32f654b8954ea4c4635f915","","Mozilla/5.0 (Windows NT 10.0; Win64; x64) AppleWebKit/537.36 (KHTML, like Gecko) Chrome/129.0.0.0 Safari/537.36","WebKit","Chrome","129.0.0.0","Windows","10.0","https://hz8g1ckzuq.cognition.run/","en,en-US;q=0.9","cft4zdcjewqj2qr","35","[""White""]","No","Female","799240.200000003","null","","<p></p>","null","choice","bww","catch","null","microwave ovens","65","85","45","15","40","45","2","","","","","","","","","",""
"","","","","","choice_trial","survey-html-form","109","698253","0.0-5.0-1.12","38","1","2025-04-11 14:11:07","bb671e3ae32f654b8954ea4c4635f915","","Mozilla/5.0 (Windows NT 10.0; Win64; x64) AppleWebKit/537.36 (KHTML, like Gecko) Chrome/129.0.0.0 Safari/537.36","WebKit","Chrome","129.0.0.0","Windows","10.0","https://hz8g1ckzuq.cognition.run/","en,en-US;q=0.9","cft4zdcjewqj2qr","35","[""White""]","No","Female","799240.200000003","1117","","","{""product_choice"":""A""}","choice","bww","catch","null","microwave ovens","65","85","45","15","40","45","2","null","null","null","null","null","null","Warranty","Cooking power","",""
"","","","","","choice_trial_setup","html-keyboard-response","110","698561","0.0-5.0-0.13","38","1","2025-04-11 14:11:07","bb671e3ae32f654b8954ea4c4635f915","","Mozilla/5.0 (Windows NT 10.0; Win64; x64) AppleWebKit/537.36 (KHTML, like Gecko) Chrome/129.0.0.0 Safari/537.36","WebKit","Chrome","129.0.0.0","Windows","10.0","https://hz8g1ckzuq.cognition.run/","en,en-US;q=0.9","cft4zdcjewqj2qr","35","[""White""]","No","Female","799240.200000003","null","","<p></p>","null","choice","dtc","repulsion_1","1","televisions","null","null","null","null","null","null","2","","","","","","","","","",""
"","","","","","choice_trial","survey-html-form","111","699557","0.0-5.0-1.13","38","1","2025-04-11 14:11:07","bb671e3ae32f654b8954ea4c4635f915","","Mozilla/5.0 (Windows NT 10.0; Win64; x64) AppleWebKit/537.36 (KHTML, like Gecko) Chrome/129.0.0.0 Safari/537.36","WebKit","Chrome","129.0.0.0","Windows","10.0","https://hz8g1ckzuq.cognition.run/","en,en-US;q=0.9","cft4zdcjewqj2qr","35","[""White""]","No","Female","799240.200000003","990","","","{""product_choice"":""B""}","choice","dtc","repulsion_1","1","televisions","null","null","null","null","null","null","2","100","90","100","30","40","25","Screen size","Average lifespan","",""
"","","","","","choice_trial_setup","html-keyboard-response","112","699861","0.0-5.0-0.14","38","1","2025-04-11 14:11:07","bb671e3ae32f654b8954ea4c4635f915","","Mozilla/5.0 (Windows NT 10.0; Win64; x64) AppleWebKit/537.36 (KHTML, like Gecko) Chrome/129.0.0.0 Safari/537.36","WebKit","Chrome","129.0.0.0","Windows","10.0","https://hz8g1ckzuq.cognition.run/","en,en-US;q=0.9","cft4zdcjewqj2qr","35","[""White""]","No","Female","799240.200000003","null","","<p></p>","null","choice","ctd","attraction_2","1","televisions","null","null","null","null","null","null","1","","","","","","","","","",""
"","","","","","choice_trial","survey-html-form","113","700949","0.0-5.0-1.14","38","1","2025-04-11 14:11:07","bb671e3ae32f654b8954ea4c4635f915","","Mozilla/5.0 (Windows NT 10.0; Win64; x64) AppleWebKit/537.36 (KHTML, like Gecko) Chrome/129.0.0.0 Safari/537.36","WebKit","Chrome","129.0.0.0","Windows","10.0","https://hz8g1ckzuq.cognition.run/","en,en-US;q=0.9","cft4zdcjewqj2qr","35","[""White""]","No","Female","799240.200000003","1081","","","{""product_choice"":""A""}","choice","ctd","attraction_2","1","televisions","null","null","null","null","null","null","1","60","50","60","50","60","40","Screen size","Average lifespan","",""
"","","","","","choice_trial_setup","html-keyboard-response","114","701262","0.0-5.0-0.15","38","1","2025-04-11 14:11:07","bb671e3ae32f654b8954ea4c4635f915","","Mozilla/5.0 (Windows NT 10.0; Win64; x64) AppleWebKit/537.36 (KHTML, like Gecko) Chrome/129.0.0.0 Safari/537.36","WebKit","Chrome","129.0.0.0","Windows","10.0","https://hz8g1ckzuq.cognition.run/","en,en-US;q=0.9","cft4zdcjewqj2qr","35","[""White""]","No","Female","799240.200000003","null","","<p></p>","null","choice","dtc","repulsion_1","1","laptops","null","null","null","null","null","null","2","","","","","","","","","",""
"","","","","","choice_trial","survey-html-form","115","702335","0.0-5.0-1.15","38","1","2025-04-11 14:11:07","bb671e3ae32f654b8954ea4c4635f915","","Mozilla/5.0 (Windows NT 10.0; Win64; x64) AppleWebKit/537.36 (KHTML, like Gecko) Chrome/129.0.0.0 Safari/537.36","WebKit","Chrome","129.0.0.0","Windows","10.0","https://hz8g1ckzuq.cognition.run/","en,en-US;q=0.9","cft4zdcjewqj2qr","35","[""White""]","No","Female","799240.200000003","1061","","","{""product_choice"":""A""}","choice","dtc","repulsion_1","1","laptops","null","null","null","null","null","null","2","100","90","100","30","40","25","Processing speed","Memory (RAM)","",""
"","","","","","choice_trial_setup","html-keyboard-response","116","702648","0.0-5.0-0.16","38","1","2025-04-11 14:11:07","bb671e3ae32f654b8954ea4c4635f915","","Mozilla/5.0 (Windows NT 10.0; Win64; x64) AppleWebKit/537.36 (KHTML, like Gecko) Chrome/129.0.0.0 Safari/537.36","WebKit","Chrome","129.0.0.0","Windows","10.0","https://hz8g1ckzuq.cognition.run/","en,en-US;q=0.9","cft4zdcjewqj2qr","35","[""White""]","No","Female","799240.200000003","null","","<p></p>","null","choice","ctd","repulsion_1","2","laptops","null","null","null","null","null","null","2","","","","","","","","","",""
"","","","","","choice_trial","survey-html-form","117","703679","0.0-5.0-1.16","38","1","2025-04-11 14:11:07","bb671e3ae32f654b8954ea4c4635f915","","Mozilla/5.0 (Windows NT 10.0; Win64; x64) AppleWebKit/537.36 (KHTML, like Gecko) Chrome/129.0.0.0 Safari/537.36","WebKit","Chrome","129.0.0.0","Windows","10.0","https://hz8g1ckzuq.cognition.run/","en,en-US;q=0.9","cft4zdcjewqj2qr","35","[""White""]","No","Female","799240.200000003","1019","","","{""product_choice"":""B""}","choice","ctd","repulsion_1","2","laptops","null","null","null","null","null","null","2","30","40","25","100","90","100","Processing speed","Memory (RAM)","",""
"","","","","","choice_trial_setup","html-keyboard-response","118","703994","0.0-5.0-0.17","38","1","2025-04-11 14:11:07","bb671e3ae32f654b8954ea4c4635f915","","Mozilla/5.0 (Windows NT 10.0; Win64; x64) AppleWebKit/537.36 (KHTML, like Gecko) Chrome/129.0.0.0 Safari/537.36","WebKit","Chrome","129.0.0.0","Windows","10.0","https://hz8g1ckzuq.cognition.run/","en,en-US;q=0.9","cft4zdcjewqj2qr","35","[""White""]","No","Female","799240.200000003","null","","<p></p>","null","choice","wbw","catch","null","washing machines","85","60","10","20","5","25","2","","","","","","","","","",""
"","","","","","choice_trial","survey-html-form","119","705043","0.0-5.0-1.17","38","1","2025-04-11 14:11:07","bb671e3ae32f654b8954ea4c4635f915","","Mozilla/5.0 (Windows NT 10.0; Win64; x64) AppleWebKit/537.36 (KHTML, like Gecko) Chrome/129.0.0.0 Safari/537.36","WebKit","Chrome","129.0.0.0","Windows","10.0","https://hz8g1ckzuq.cognition.run/","en,en-US;q=0.9","cft4zdcjewqj2qr","35","[""White""]","No","Female","799240.200000003","1034","","","{""product_choice"":""A""}","choice","wbw","catch","null","washing machines","85","60","10","20","5","25","2","null","null","null","null","null","null","Average lifespan","Energy savings","",""
"","","","","","choice_trial_setup","html-keyboard-response","120","705357","0.0-5.0-0.18","38","1","2025-04-11 14:11:07","bb671e3ae32f654b8954ea4c4635f915","","Mozilla/5.0 (Windows NT 10.0; Win64; x64) AppleWebKit/537.36 (KHTML, like Gecko) Chrome/129.0.0.0 Safari/537.36","WebKit","Chrome","129.0.0.0","Windows","10.0","https://hz8g1ckzuq.cognition.run/","en,en-US;q=0.9","cft4zdcjewqj2qr","35","[""White""]","No","Female","799240.200000003","null","","<p></p>","null","choice","tcd","attraction_1","1","laptops","null","null","null","null","null","null","1","","","","","","","","","",""
"","","","","","choice_trial","survey-html-form","121","718124","0.0-5.0-1.18","38","1","2025-04-11 14:11:07","bb671e3ae32f654b8954ea4c4635f915","","Mozilla/5.0 (Windows NT 10.0; Win64; x64) AppleWebKit/537.36 (KHTML, like Gecko) Chrome/129.0.0.0 Safari/537.36","WebKit","Chrome","129.0.0.0","Windows","10.0","https://hz8g1ckzuq.cognition.run/","en,en-US;q=0.9","cft4zdcjewqj2qr","35","[""White""]","No","Female","799240.200000003","12754","","","{""product_choice"":""B""}","choice","tcd","attraction_1","1","laptops","null","null","null","null","null","null","1","60","50","60","50","60","45","Processing speed","Memory (RAM)","",""
"","","","","","choice_trial_setup","html-keyboard-response","122","718439","0.0-5.0-0.19","38","1","2025-04-11 14:11:07","bb671e3ae32f654b8954ea4c4635f915","","Mozilla/5.0 (Windows NT 10.0; Win64; x64) AppleWebKit/537.36 (KHTML, like Gecko) Chrome/129.0.0.0 Safari/537.36","WebKit","Chrome","129.0.0.0","Windows","10.0","https://hz8g1ckzuq.cognition.run/","en,en-US;q=0.9","cft4zdcjewqj2qr","35","[""White""]","No","Female","799240.200000003","null","","<p></p>","null","choice","tcd","attraction_1","1","microwave ovens","null","null","null","null","null","null","2","","","","","","","","","",""
"","","","","","choice_trial","survey-html-form","123","719463","0.0-5.0-1.19","38","1","2025-04-11 14:11:07","bb671e3ae32f654b8954ea4c4635f915","","Mozilla/5.0 (Windows NT 10.0; Win64; x64) AppleWebKit/537.36 (KHTML, like Gecko) Chrome/129.0.0.0 Safari/537.36","WebKit","Chrome","129.0.0.0","Windows","10.0","https://hz8g1ckzuq.cognition.run/","en,en-US;q=0.9","cft4zdcjewqj2qr","35","[""White""]","No","Female","799240.200000003","1012","","","{""product_choice"":""A""}","choice","tcd","attraction_1","1","microwave ovens","null","null","null","null","null","null","2","60","50","60","50","60","45","Warranty","Cooking power","",""
"","","","","","choice_trial_setup","html-keyboard-response","124","719775","0.0-5.0-0.20","38","1","2025-04-11 14:11:07","bb671e3ae32f654b8954ea4c4635f915","","Mozilla/5.0 (Windows NT 10.0; Win64; x64) AppleWebKit/537.36 (KHTML, like Gecko) Chrome/129.0.0.0 Safari/537.36","WebKit","Chrome","129.0.0.0","Windows","10.0","https://hz8g1ckzuq.cognition.run/","en,en-US;q=0.9","cft4zdcjewqj2qr","35","[""White""]","No","Female","799240.200000003","null","","<p></p>","null","choice","tdc","attraction_1","1","washing machines","null","null","null","null","null","null","1","","","","","","","","","",""
"","","","","","choice_trial","survey-html-form","125","720607","0.0-5.0-1.20","38","1","2025-04-11 14:11:07","bb671e3ae32f654b8954ea4c4635f915","","Mozilla/5.0 (Windows NT 10.0; Win64; x64) AppleWebKit/537.36 (KHTML, like Gecko) Chrome/129.0.0.0 Safari/537.36","WebKit","Chrome","129.0.0.0","Windows","10.0","https://hz8g1ckzuq.cognition.run/","en,en-US;q=0.9","cft4zdcjewqj2qr","35","[""White""]","No","Female","799240.200000003","819","","","{""product_choice"":""B""}","choice","tdc","attraction_1","1","washing machines","null","null","null","null","null","null","1","60","50","60","50","60","45","Average lifespan","Energy savings","",""
"","","","","","choice_trial_setup","html-keyboard-response","126","720927","0.0-5.0-0.21","38","1","2025-04-11 14:11:07","bb671e3ae32f654b8954ea4c4635f915","","Mozilla/5.0 (Windows NT 10.0; Win64; x64) AppleWebKit/537.36 (KHTML, like Gecko) Chrome/129.0.0.0 Safari/537.36","WebKit","Chrome","129.0.0.0","Windows","10.0","https://hz8g1ckzuq.cognition.run/","en,en-US;q=0.9","cft4zdcjewqj2qr","35","[""White""]","No","Female","799240.200000003","null","","<p></p>","null","choice","wwb","catch","null","microwave ovens","65","65","15","50","25","40","2","","","","","","","","","",""
"","","","","","choice_trial","survey-html-form","127","721888","0.0-5.0-1.21","38","1","2025-04-11 14:11:07","bb671e3ae32f654b8954ea4c4635f915","","Mozilla/5.0 (Windows NT 10.0; Win64; x64) AppleWebKit/537.36 (KHTML, like Gecko) Chrome/129.0.0.0 Safari/537.36","WebKit","Chrome","129.0.0.0","Windows","10.0","https://hz8g1ckzuq.cognition.run/","en,en-US;q=0.9","cft4zdcjewqj2qr","35","[""White""]","No","Female","799240.200000003","947","","","{""product_choice"":""A""}","choice","wwb","catch","null","microwave ovens","65","65","15","50","25","40","2","null","null","null","null","null","null","Warranty","Cooking power","",""
"","","","","","choice_trial_setup","html-keyboard-response","128","722193","0.0-5.0-0.22","38","1","2025-04-11 14:11:07","bb671e3ae32f654b8954ea4c4635f915","","Mozilla/5.0 (Windows NT 10.0; Win64; x64) AppleWebKit/537.36 (KHTML, like Gecko) Chrome/129.0.0.0 Safari/537.36","WebKit","Chrome","129.0.0.0","Windows","10.0","https://hz8g1ckzuq.cognition.run/","en,en-US;q=0.9","cft4zdcjewqj2qr","35","[""White""]","No","Female","799240.200000003","null","","<p></p>","null","choice","cdt","repulsion_1","2","microwave ovens","null","null","null","null","null","null","2","","","","","","","","","",""
"","","","","","choice_trial","survey-html-form","129","723103","0.0-5.0-1.22","38","1","2025-04-11 14:11:07","bb671e3ae32f654b8954ea4c4635f915","","Mozilla/5.0 (Windows NT 10.0; Win64; x64) AppleWebKit/537.36 (KHTML, like Gecko) Chrome/129.0.0.0 Safari/537.36","WebKit","Chrome","129.0.0.0","Windows","10.0","https://hz8g1ckzuq.cognition.run/","en,en-US;q=0.9","cft4zdcjewqj2qr","35","[""White""]","No","Female","799240.200000003","896","","","{""product_choice"":""A""}","choice","cdt","repulsion_1","2","microwave ovens","null","null","null","null","null","null","2","30","40","25","100","90","100","Warranty","Cooking power","",""
"","","","","","choice_trial_setup","html-keyboard-response","130","723415","0.0-5.0-0.23","38","1","2025-04-11 14:11:07","bb671e3ae32f654b8954ea4c4635f915","","Mozilla/5.0 (Windows NT 10.0; Win64; x64) AppleWebKit/537.36 (KHTML, like Gecko) Chrome/129.0.0.0 Safari/537.36","WebKit","Chrome","129.0.0.0","Windows","10.0","https://hz8g1ckzuq.cognition.run/","en,en-US;q=0.9","cft4zdcjewqj2qr","35","[""White""]","No","Female","799240.200000003","null","","<p></p>","null","choice","ctd","repulsion_1","2","washing machines","null","null","null","null","null","null","2","","","","","","","","","",""
"","","","","","choice_trial","survey-html-form","131","724346","0.0-5.0-1.23","38","1","2025-04-11 14:11:07","bb671e3ae32f654b8954ea4c4635f915","","Mozilla/5.0 (Windows NT 10.0; Win64; x64) AppleWebKit/537.36 (KHTML, like Gecko) Chrome/129.0.0.0 Safari/537.36","WebKit","Chrome","129.0.0.0","Windows","10.0","https://hz8g1ckzuq.cognition.run/","en,en-US;q=0.9","cft4zdcjewqj2qr","35","[""White""]","No","Female","799240.200000003","918","","","{""product_choice"":""B""}","choice","ctd","repulsion_1","2","washing machines","null","null","null","null","null","null","2","30","40","25","100","90","100","Average lifespan","Energy savings","",""
"","","","","","choice_trial_setup","html-keyboard-response","132","724659","0.0-5.0-0.24","38","1","2025-04-11 14:11:07","bb671e3ae32f654b8954ea4c4635f915","","Mozilla/5.0 (Windows NT 10.0; Win64; x64) AppleWebKit/537.36 (KHTML, like Gecko) Chrome/129.0.0.0 Safari/537.36","WebKit","Chrome","129.0.0.0","Windows","10.0","https://hz8g1ckzuq.cognition.run/","en,en-US;q=0.9","cft4zdcjewqj2qr","35","[""White""]","No","Female","799240.200000003","null","","<p></p>","null","choice","tcd","repulsion_2","1","televisions","null","null","null","null","null","null","1","","","","","","","","","",""
"","","","","","choice_trial","survey-html-form","133","725630","0.0-5.0-1.24","38","1","2025-04-11 14:11:07","bb671e3ae32f654b8954ea4c4635f915","","Mozilla/5.0 (Windows NT 10.0; Win64; x64) AppleWebKit/537.36 (KHTML, like Gecko) Chrome/129.0.0.0 Safari/537.36","WebKit","Chrome","129.0.0.0","Windows","10.0","https://hz8g1ckzuq.cognition.run/","en,en-US;q=0.9","cft4zdcjewqj2qr","35","[""White""]","No","Female","799240.200000003","957","","","{""product_choice"":""A""}","choice","tcd","repulsion_2","1","televisions","null","null","null","null","null","null","1","100","90","100","30","40","20","Screen size","Average lifespan","",""
"","","","","","choice_trial_setup","html-keyboard-response","134","725943","0.0-5.0-0.25","38","1","2025-04-11 14:11:07","bb671e3ae32f654b8954ea4c4635f915","","Mozilla/5.0 (Windows NT 10.0; Win64; x64) AppleWebKit/537.36 (KHTML, like Gecko) Chrome/129.0.0.0 Safari/537.36","WebKit","Chrome","129.0.0.0","Windows","10.0","https://hz8g1ckzuq.cognition.run/","en,en-US;q=0.9","cft4zdcjewqj2qr","35","[""White""]","No","Female","799240.200000003","null","","<p></p>","null","choice","ctd","repulsion_2","1","washing machines","null","null","null","null","null","null","1","","","","","","","","","",""
"","","","","","choice_trial","survey-html-form","135","726939","0.0-5.0-1.25","38","1","2025-04-11 14:11:07","bb671e3ae32f654b8954ea4c4635f915","","Mozilla/5.0 (Windows NT 10.0; Win64; x64) AppleWebKit/537.36 (KHTML, like Gecko) Chrome/129.0.0.0 Safari/537.36","WebKit","Chrome","129.0.0.0","Windows","10.0","https://hz8g1ckzuq.cognition.run/","en,en-US;q=0.9","cft4zdcjewqj2qr","35","[""White""]","No","Female","799240.200000003","982","","","{""product_choice"":""C""}","choice","ctd","repulsion_2","1","washing machines","null","null","null","null","null","null","1","100","90","100","30","40","20","Average lifespan","Energy savings","",""
"","","","","","choice_trial_setup","html-keyboard-response","136","727257","0.0-5.0-0.26","38","1","2025-04-11 14:11:07","bb671e3ae32f654b8954ea4c4635f915","","Mozilla/5.0 (Windows NT 10.0; Win64; x64) AppleWebKit/537.36 (KHTML, like Gecko) Chrome/129.0.0.0 Safari/537.36","WebKit","Chrome","129.0.0.0","Windows","10.0","https://hz8g1ckzuq.cognition.run/","en,en-US;q=0.9","cft4zdcjewqj2qr","35","[""White""]","No","Female","799240.200000003","null","","<p></p>","null","choice","cdt","attraction_2","2","washing machines","null","null","null","null","null","null","2","","","","","","","","","",""
"","","","","","choice_trial","survey-html-form","137","728134","0.0-5.0-1.26","38","1","2025-04-11 14:11:07","bb671e3ae32f654b8954ea4c4635f915","","Mozilla/5.0 (Windows NT 10.0; Win64; x64) AppleWebKit/537.36 (KHTML, like Gecko) Chrome/129.0.0.0 Safari/537.36","WebKit","Chrome","129.0.0.0","Windows","10.0","https://hz8g1ckzuq.cognition.run/","en,en-US;q=0.9","cft4zdcjewqj2qr","35","[""White""]","No","Female","799240.200000003","862","","","{""product_choice"":""B""}","choice","cdt","attraction_2","2","washing machines","null","null","null","null","null","null","2","50","60","40","60","50","60","Average lifespan","Energy savings","",""
"","","","","","choice_trial_setup","html-keyboard-response","138","728449","0.0-5.0-0.27","38","1","2025-04-11 14:11:07","bb671e3ae32f654b8954ea4c4635f915","","Mozilla/5.0 (Windows NT 10.0; Win64; x64) AppleWebKit/537.36 (KHTML, like Gecko) Chrome/129.0.0.0 Safari/537.36","WebKit","Chrome","129.0.0.0","Windows","10.0","https://hz8g1ckzuq.cognition.run/","en,en-US;q=0.9","cft4zdcjewqj2qr","35","[""White""]","No","Female","799240.200000003","null","","<p></p>","null","choice","bww","catch","null","televisions","75","70","35","45","50","45","2","","","","","","","","","",""
"","","","","","choice_trial","survey-html-form","139","729343","0.0-5.0-1.27","38","1","2025-04-11 14:11:07","bb671e3ae32f654b8954ea4c4635f915","","Mozilla/5.0 (Windows NT 10.0; Win64; x64) AppleWebKit/537.36 (KHTML, like Gecko) Chrome/129.0.0.0 Safari/537.36","WebKit","Chrome","129.0.0.0","Windows","10.0","https://hz8g1ckzuq.cognition.run/","en,en-US;q=0.9","cft4zdcjewqj2qr","35","[""White""]","No","Female","799240.200000003","880","","","{""product_choice"":""A""}","choice","bww","catch","null","televisions","75","70","35","45","50","45","2","null","null","null","null","null","null","Screen size","Average lifespan","",""
"","","","","","choice_trial_setup","html-keyboard-response","140","729660","0.0-5.0-0.28","38","1","2025-04-11 14:11:07","bb671e3ae32f654b8954ea4c4635f915","","Mozilla/5.0 (Windows NT 10.0; Win64; x64) AppleWebKit/537.36 (KHTML, like Gecko) Chrome/129.0.0.0 Safari/537.36","WebKit","Chrome","129.0.0.0","Windows","10.0","https://hz8g1ckzuq.cognition.run/","en,en-US;q=0.9","cft4zdcjewqj2qr","35","[""White""]","No","Female","799240.200000003","null","","<p></p>","null","choice","tcd","repulsion_2","2","laptops","null","null","null","null","null","null","1","","","","","","","","","",""
"","","","","","choice_trial","survey-html-form","141","730537","0.0-5.0-1.28","38","1","2025-04-11 14:11:07","bb671e3ae32f654b8954ea4c4635f915","","Mozilla/5.0 (Windows NT 10.0; Win64; x64) AppleWebKit/537.36 (KHTML, like Gecko) Chrome/129.0.0.0 Safari/537.36","WebKit","Chrome","129.0.0.0","Windows","10.0","https://hz8g1ckzuq.cognition.run/","en,en-US;q=0.9","cft4zdcjewqj2qr","35","[""White""]","No","Female","799240.200000003","863","","","{""product_choice"":""A""}","choice","tcd","repulsion_2","2","laptops","null","null","null","null","null","null","1","30","40","20","100","90","100","Processing speed","Memory (RAM)","",""
"","","","","","choice_trial_setup","html-keyboard-response","142","730850","0.0-5.0-0.29","38","1","2025-04-11 14:11:07","bb671e3ae32f654b8954ea4c4635f915","","Mozilla/5.0 (Windows NT 10.0; Win64; x64) AppleWebKit/537.36 (KHTML, like Gecko) Chrome/129.0.0.0 Safari/537.36","WebKit","Chrome","129.0.0.0","Windows","10.0","https://hz8g1ckzuq.cognition.run/","en,en-US;q=0.9","cft4zdcjewqj2qr","35","[""White""]","No","Female","799240.200000003","null","","<p></p>","null","choice","dtc","attraction_1","2","laptops","null","null","null","null","null","null","1","","","","","","","","","",""
"","","","","","choice_trial","survey-html-form","143","731704","0.0-5.0-1.29","38","1","2025-04-11 14:11:07","bb671e3ae32f654b8954ea4c4635f915","","Mozilla/5.0 (Windows NT 10.0; Win64; x64) AppleWebKit/537.36 (KHTML, like Gecko) Chrome/129.0.0.0 Safari/537.36","WebKit","Chrome","129.0.0.0","Windows","10.0","https://hz8g1ckzuq.cognition.run/","en,en-US;q=0.9","cft4zdcjewqj2qr","35","[""White""]","No","Female","799240.200000003","839","","","{""product_choice"":""B""}","choice","dtc","attraction_1","2","laptops","null","null","null","null","null","null","1","50","60","45","60","50","60","Processing speed","Memory (RAM)","",""
"","","","","","choice_trial_setup","html-keyboard-response","144","732018","0.0-5.0-0.30","38","1","2025-04-11 14:11:07","bb671e3ae32f654b8954ea4c4635f915","","Mozilla/5.0 (Windows NT 10.0; Win64; x64) AppleWebKit/537.36 (KHTML, like Gecko) Chrome/129.0.0.0 Safari/537.36","WebKit","Chrome","129.0.0.0","Windows","10.0","https://hz8g1ckzuq.cognition.run/","en,en-US;q=0.9","cft4zdcjewqj2qr","35","[""White""]","No","Female","799240.200000003","null","","<p></p>","null","choice","cdt","repulsion_2","2","televisions","null","null","null","null","null","null","1","","","","","","","","","",""
"","","","","","choice_trial","survey-html-form","145","732892","0.0-5.0-1.30","38","1","2025-04-11 14:11:07","bb671e3ae32f654b8954ea4c4635f915","","Mozilla/5.0 (Windows NT 10.0; Win64; x64) AppleWebKit/537.36 (KHTML, like Gecko) Chrome/129.0.0.0 Safari/537.36","WebKit","Chrome","129.0.0.0","Windows","10.0","https://hz8g1ckzuq.cognition.run/","en,en-US;q=0.9","cft4zdcjewqj2qr","35","[""White""]","No","Female","799240.200000003","859","","","{""product_choice"":""B""}","choice","cdt","repulsion_2","2","televisions","null","null","null","null","null","null","1","30","40","20","100","90","100","Screen size","Average lifespan","",""
"","","","","","choice_trial_setup","html-keyboard-response","146","733207","0.0-5.0-0.31","38","1","2025-04-11 14:11:07","bb671e3ae32f654b8954ea4c4635f915","","Mozilla/5.0 (Windows NT 10.0; Win64; x64) AppleWebKit/537.36 (KHTML, like Gecko) Chrome/129.0.0.0 Safari/537.36","WebKit","Chrome","129.0.0.0","Windows","10.0","https://hz8g1ckzuq.cognition.run/","en,en-US;q=0.9","cft4zdcjewqj2qr","35","[""White""]","No","Female","799240.200000003","null","","<p></p>","null","choice","tcd","repulsion_1","1","microwave ovens","null","null","null","null","null","null","2","","","","","","","","","",""
"","","","","","choice_trial","survey-html-form","147","734171","0.0-5.0-1.31","38","1","2025-04-11 14:11:07","bb671e3ae32f654b8954ea4c4635f915","","Mozilla/5.0 (Windows NT 10.0; Win64; x64) AppleWebKit/537.36 (KHTML, like Gecko) Chrome/129.0.0.0 Safari/537.36","WebKit","Chrome","129.0.0.0","Windows","10.0","https://hz8g1ckzuq.cognition.run/","en,en-US;q=0.9","cft4zdcjewqj2qr","35","[""White""]","No","Female","799240.200000003","950","","","{""product_choice"":""A""}","choice","tcd","repulsion_1","1","microwave ovens","null","null","null","null","null","null","2","100","90","100","30","40","25","Warranty","Cooking power","",""
"","","","","","choice_trial_setup","html-keyboard-response","148","734484","0.0-5.0-0.32","38","1","2025-04-11 14:11:07","bb671e3ae32f654b8954ea4c4635f915","","Mozilla/5.0 (Windows NT 10.0; Win64; x64) AppleWebKit/537.36 (KHTML, like Gecko) Chrome/129.0.0.0 Safari/537.36","WebKit","Chrome","129.0.0.0","Windows","10.0","https://hz8g1ckzuq.cognition.run/","en,en-US;q=0.9","cft4zdcjewqj2qr","35","[""White""]","No","Female","799240.200000003","null","","<p></p>","null","choice","bww","catch","null","laptops","70","50","50","25","45","5","1","","","","","","","","","",""
"","","","","","choice_trial","survey-html-form","149","735388","0.0-5.0-1.32","38","1","2025-04-11 14:11:07","bb671e3ae32f654b8954ea4c4635f915","","Mozilla/5.0 (Windows NT 10.0; Win64; x64) AppleWebKit/537.36 (KHTML, like Gecko) Chrome/129.0.0.0 Safari/537.36","WebKit","Chrome","129.0.0.0","Windows","10.0","https://hz8g1ckzuq.cognition.run/","en,en-US;q=0.9","cft4zdcjewqj2qr","35","[""White""]","No","Female","799240.200000003","890","","","{""product_choice"":""B""}","choice","bww","catch","null","laptops","70","50","50","25","45","5","1","null","null","null","null","null","null","Processing speed","Memory (RAM)","",""
"","","","","","choice_trial_setup","html-keyboard-response","150","735704","0.0-5.0-0.33","38","1","2025-04-11 14:11:07","bb671e3ae32f654b8954ea4c4635f915","","Mozilla/5.0 (Windows NT 10.0; Win64; x64) AppleWebKit/537.36 (KHTML, like Gecko) Chrome/129.0.0.0 Safari/537.36","WebKit","Chrome","129.0.0.0","Windows","10.0","https://hz8g1ckzuq.cognition.run/","en,en-US;q=0.9","cft4zdcjewqj2qr","35","[""White""]","No","Female","799240.200000003","null","","<p></p>","null","choice","cdt","attraction_1","1","televisions","null","null","null","null","null","null","2","","","","","","","","","",""
"","","","","","choice_trial","survey-html-form","151","736638","0.0-5.0-1.33","38","1","2025-04-11 14:11:07","bb671e3ae32f654b8954ea4c4635f915","","Mozilla/5.0 (Windows NT 10.0; Win64; x64) AppleWebKit/537.36 (KHTML, like Gecko) Chrome/129.0.0.0 Safari/537.36","WebKit","Chrome","129.0.0.0","Windows","10.0","https://hz8g1ckzuq.cognition.run/","en,en-US;q=0.9","cft4zdcjewqj2qr","35","[""White""]","No","Female","799240.200000003","918","","","{""product_choice"":""B""}","choice","cdt","attraction_1","1","televisions","null","null","null","null","null","null","2","60","50","60","50","60","45","Screen size","Average lifespan","",""
"","","","","","choice_trial_setup","html-keyboard-response","152","736952","0.0-5.0-0.34","38","1","2025-04-11 14:11:07","bb671e3ae32f654b8954ea4c4635f915","","Mozilla/5.0 (Windows NT 10.0; Win64; x64) AppleWebKit/537.36 (KHTML, like Gecko) Chrome/129.0.0.0 Safari/537.36","WebKit","Chrome","129.0.0.0","Windows","10.0","https://hz8g1ckzuq.cognition.run/","en,en-US;q=0.9","cft4zdcjewqj2qr","35","[""White""]","No","Female","799240.200000003","null","","<p></p>","null","choice","bww","catch","null","televisions","75","85","25","5","30","5","2","","","","","","","","","",""
"","","","","","choice_trial","survey-html-form","153","738603","0.0-5.0-1.34","38","1","2025-04-11 14:11:07","bb671e3ae32f654b8954ea4c4635f915","","Mozilla/5.0 (Windows NT 10.0; Win64; x64) AppleWebKit/537.36 (KHTML, like Gecko) Chrome/129.0.0.0 Safari/537.36","WebKit","Chrome","129.0.0.0","Windows","10.0","https://hz8g1ckzuq.cognition.run/","en,en-US;q=0.9","cft4zdcjewqj2qr","35","[""White""]","No","Female","799240.200000003","1635","","","{""product_choice"":""B""}","choice","bww","catch","null","televisions","75","85","25","5","30","5","2","null","null","null","null","null","null","Screen size","Average lifespan","",""
"","","","","","choice_trial_setup","html-keyboard-response","154","738918","0.0-5.0-0.35","38","1","2025-04-11 14:11:07","bb671e3ae32f654b8954ea4c4635f915","","Mozilla/5.0 (Windows NT 10.0; Win64; x64) AppleWebKit/537.36 (KHTML, like Gecko) Chrome/129.0.0.0 Safari/537.36","WebKit","Chrome","129.0.0.0","Windows","10.0","https://hz8g1ckzuq.cognition.run/","en,en-US;q=0.9","cft4zdcjewqj2qr","35","[""White""]","No","Female","799240.200000003","null","","<p></p>","null","choice","wwb","catch","null","laptops","75","50","50","45","50","15","2","","","","","","","","","",""
"","","","","","choice_trial","survey-html-form","155","739880","0.0-5.0-1.35","38","1","2025-04-11 14:11:07","bb671e3ae32f654b8954ea4c4635f915","","Mozilla/5.0 (Windows NT 10.0; Win64; x64) AppleWebKit/537.36 (KHTML, like Gecko) Chrome/129.0.0.0 Safari/537.36","WebKit","Chrome","129.0.0.0","Windows","10.0","https://hz8g1ckzuq.cognition.run/","en,en-US;q=0.9","cft4zdcjewqj2qr","35","[""White""]","No","Female","799240.200000003","948","","","{""product_choice"":""B""}","choice","wwb","catch","null","laptops","75","50","50","45","50","15","2","null","null","null","null","null","null","Processing speed","Memory (RAM)","",""
"","","","","","choice_trial_setup","html-keyboard-response","156","740201","0.0-5.0-0.36","38","1","2025-04-11 14:11:07","bb671e3ae32f654b8954ea4c4635f915","","Mozilla/5.0 (Windows NT 10.0; Win64; x64) AppleWebKit/537.36 (KHTML, like Gecko) Chrome/129.0.0.0 Safari/537.36","WebKit","Chrome","129.0.0.0","Windows","10.0","https://hz8g1ckzuq.cognition.run/","en,en-US;q=0.9","cft4zdcjewqj2qr","35","[""White""]","No","Female","799240.200000003","null","","<p></p>","null","choice","tdc","attraction_2","2","laptops","null","null","null","null","null","null","1","","","","","","","","","",""
"","","","","","choice_trial","survey-html-form","157","741931","0.0-5.0-1.36","38","1","2025-04-11 14:11:07","bb671e3ae32f654b8954ea4c4635f915","","Mozilla/5.0 (Windows NT 10.0; Win64; x64) AppleWebKit/537.36 (KHTML, like Gecko) Chrome/129.0.0.0 Safari/537.36","WebKit","Chrome","129.0.0.0","Windows","10.0","https://hz8g1ckzuq.cognition.run/","en,en-US;q=0.9","cft4zdcjewqj2qr","35","[""White""]","No","Female","799240.200000003","1715","","","{""product_choice"":""B""}","choice","tdc","attraction_2","2","laptops","null","null","null","null","null","null","1","50","60","40","60","50","60","Processing speed","Memory (RAM)","",""
