"success","timeout","failed_images","failed_audio","failed_video","screen_id","trial_type","trial_index","time_elapsed","internal_node_id","run_id","condition","recorded_at","source_code_version","ip","user_agent","device","browser","browser_version","platform","platform_version","referer","accept_language","ppt_id","age","race","ethnicity","gender","exp_duration","rt","view_history","stimulus","response","phase","order","effect","t_high","category","d1_best","d2_best","d1_worst1","d2_worst1","d1_worst2","d2_worst2","first_dim","d1_t","d1_c","d1_d","d2_t","d2_c","d2_d","d1_name","d2_name","strategy_response","question_order"
"true","false","[]","[]","[]","img preload","preload","0","164","0.0-0.0","39","1","2025-04-11 14:11:53","bb671e3ae32f654b8954ea4c4635f915","","Mozilla/5.0 (Windows NT 10.0; Win64; x64) AppleWebKit/537.36 (KHTML, like Gecko) Chrome/135.0.0.0 Safari/537.36","WebKit","Chrome","135.0.0.0","Windows","10.0","https://hz8g1ckzuq.cognition.run/","en-US,en;q=0.9,de-DE;q=0.8,de;q=0.7","2tnz3m9qzcx4zbb","28","[""Black or African-American""]","No","Male","1564207.5999999642","","","","","","","","","","","","","","","","","","","","","","","","","",""
"true","","","","","","fullscreen","1","2501","0.0-1.0","39","1","2025-04-11 14:11:53","bb671e3ae32f654b8954ea4c4635f915","","Mozilla/5.0 (Windows NT 10.0; Win64; x64) AppleWebKit/537.36 (KHTML, like Gecko) Chrome/135.0.0.0 Safari/537.36","WebKit","Chrome","135.0.0.0","Windows","10.0","https://hz8g1ckzuq.cognition.run/","en-US,en;q=0.9,de-DE;q=0.8,de;q=0.7","2tnz3m9qzcx4zbb","28","[""Black or African-American""]","No","Male","1564207.5999999642","1333","","","","","","","","","","","","","","","","","","","","","","","","",""
"","","","","","","instructions","2","21328","0.0-2.0","39","1","2025-04-11 14:11:53","bb671e3ae32f654b8954ea4c4635f915","","Mozilla/5.0 (Windows NT 10.0; Win64; x64) AppleWebKit/537.36 (KHTML, like Gecko) Chrome/135.0.0.0 Safari/537.36","WebKit","Chrome","135.0.0.0","Windows","10.0","https://hz8g1ckzuq.cognition.run/","en-US,en;q=0.9,de-DE;q=0.8,de;q=0.7","2tnz3m9qzcx4zbb","28","[""Black or African-American""]","No","Male","1564207.5999999642","18826","[{""page_index"":0,""viewing_time"":882},{""page_index"":1,""viewing_time"":1195},{""page_index"":2,""viewing_time"":1639},{""page_index"":3,""viewing_time"":1902},{""page_index"":4,""viewing_time"":3497},{""page_index"":5,""viewing_time"":1883},{""page_index"":6,""viewing_time"":1783},{""page_index"":7,""viewing_time"":2449},{""page_index"":8,""viewing_time"":1788},{""page_index"":9,""viewing_time"":1808}]","","","","","","","","","","","","","","","","","","","","","","","",""
"","","","","","rating_trial_setup","html-keyboard-response","3","21630","0.0-3.0-0.0","39","1","2025-04-11 14:11:53","bb671e3ae32f654b8954ea4c4635f915","","Mozilla/5.0 (Windows NT 10.0; Win64; x64) AppleWebKit/537.36 (KHTML, like Gecko) Chrome/135.0.0.0 Safari/537.36","WebKit","Chrome","135.0.0.0","Windows","10.0","https://hz8g1ckzuq.cognition.run/","en-US,en;q=0.9,de-DE;q=0.8,de;q=0.7","2tnz3m9qzcx4zbb","28","[""Black or African-American""]","No","Male","1564207.5999999642","null","","<p></p>","null","rating","dct","repulsion_1","1","televisions","null","null","null","null","null","null","2","","","","","","","","","",""
"","","","","","rating_trial","survey-html-form","4","55842","0.0-3.0-1.0","39","1","2025-04-11 14:11:53","bb671e3ae32f654b8954ea4c4635f915","","Mozilla/5.0 (Windows NT 10.0; Win64; x64) AppleWebKit/537.36 (KHTML, like Gecko) Chrome/135.0.0.0 Safari/537.36","WebKit","Chrome","135.0.0.0","Windows","10.0","https://hz8g1ckzuq.cognition.run/","en-US,en;q=0.9,de-DE;q=0.8,de;q=0.7","2tnz3m9qzcx4zbb","28","[""Black or African-American""]","No","Male","1564207.5999999642","34211","","","{""price_1"":""165"",""price_2"":""225"",""price_3"":""195""}","rating","dct","repulsion_1","1","televisions","null","null","null","null","null","null","2","100","90","100","30","40","25","Screen size","Average lifespan","",""
"","","","","","rating_trial_setup","html-keyboard-response","5","56144","0.0-3.0-0.1","39","1","2025-04-11 14:11:53","bb671e3ae32f654b8954ea4c4635f915","","Mozilla/5.0 (Windows NT 10.0; Win64; x64) AppleWebKit/537.36 (KHTML, like Gecko) Chrome/135.0.0.0 Safari/537.36","WebKit","Chrome","135.0.0.0","Windows","10.0","https://hz8g1ckzuq.cognition.run/","en-US,en;q=0.9,de-DE;q=0.8,de;q=0.7","2tnz3m9qzcx4zbb","28","[""Black or African-American""]","No","Male","1564207.5999999642","null","","<p></p>","null","rating","dtc","attraction_1","2","washing machines","null","null","null","null","null","null","1","","","","","","","","","",""
"","","","","","rating_trial","survey-html-form","6","71459","0.0-3.0-1.1","39","1","2025-04-11 14:11:53","bb671e3ae32f654b8954ea4c4635f915","","Mozilla/5.0 (Windows NT 10.0; Win64; x64) AppleWebKit/537.36 (KHTML, like Gecko) Chrome/135.0.0.0 Safari/537.36","WebKit","Chrome","135.0.0.0","Windows","10.0","https://hz8g1ckzuq.cognition.run/","en-US,en;q=0.9,de-DE;q=0.8,de;q=0.7","2tnz3m9qzcx4zbb","28","[""Black or African-American""]","No","Male","1564207.5999999642","15314","","","{""price_1"":""200"",""price_2"":""250"",""price_3"":""300""}","rating","dtc","attraction_1","2","washing machines","null","null","null","null","null","null","1","50","60","45","60","50","60","Average lifespan","Energy savings","",""
"","","","","","rating_trial_setup","html-keyboard-response","7","71760","0.0-3.0-0.2","39","1","2025-04-11 14:11:53","bb671e3ae32f654b8954ea4c4635f915","","Mozilla/5.0 (Windows NT 10.0; Win64; x64) AppleWebKit/537.36 (KHTML, like Gecko) Chrome/135.0.0.0 Safari/537.36","WebKit","Chrome","135.0.0.0","Windows","10.0","https://hz8g1ckzuq.cognition.run/","en-US,en;q=0.9,de-DE;q=0.8,de;q=0.7","2tnz3m9qzcx4zbb","28","[""Black or African-American""]","No","Male","1564207.5999999642","null","","<p></p>","null","rating","tdc","repulsion_2","1","microwave ovens","null","null","null","null","null","null","1","","","","","","","","","",""
"","","","","","rating_trial","survey-html-form","8","93532","0.0-3.0-1.2","39","1","2025-04-11 14:11:53","bb671e3ae32f654b8954ea4c4635f915","","Mozilla/5.0 (Windows NT 10.0; Win64; x64) AppleWebKit/537.36 (KHTML, like Gecko) Chrome/135.0.0.0 Safari/537.36","WebKit","Chrome","135.0.0.0","Windows","10.0","https://hz8g1ckzuq.cognition.run/","en-US,en;q=0.9,de-DE;q=0.8,de;q=0.7","2tnz3m9qzcx4zbb","28","[""Black or African-American""]","No","Male","1564207.5999999642","21770","","","{""price_1"":""100"",""price_2"":""80"",""price_3"":""150""}","rating","tdc","repulsion_2","1","microwave ovens","null","null","null","null","null","null","1","100","90","100","30","40","20","Warranty","Cooking power","",""
"","","","","","rating_trial_setup","html-keyboard-response","9","93833","0.0-3.0-0.3","39","1","2025-04-11 14:11:53","bb671e3ae32f654b8954ea4c4635f915","","Mozilla/5.0 (Windows NT 10.0; Win64; x64) AppleWebKit/537.36 (KHTML, like Gecko) Chrome/135.0.0.0 Safari/537.36","WebKit","Chrome","135.0.0.0","Windows","10.0","https://hz8g1ckzuq.cognition.run/","en-US,en;q=0.9,de-DE;q=0.8,de;q=0.7","2tnz3m9qzcx4zbb","28","[""Black or African-American""]","No","Male","1564207.5999999642","null","","<p></p>","null","rating","wwb","catch","null","washing machines","90","65","20","30","40","30","1","","","","","","","","","",""
"","","","","","rating_trial","survey-html-form","10","141407","0.0-3.0-1.3","39","1","2025-04-11 14:11:53","bb671e3ae32f654b8954ea4c4635f915","","Mozilla/5.0 (Windows NT 10.0; Win64; x64) AppleWebKit/537.36 (KHTML, like Gecko) Chrome/135.0.0.0 Safari/537.36","WebKit","Chrome","135.0.0.0","Windows","10.0","https://hz8g1ckzuq.cognition.run/","en-US,en;q=0.9,de-DE;q=0.8,de;q=0.7","2tnz3m9qzcx4zbb","28","[""Black or African-American""]","No","Male","1564207.5999999642","47572","","","{""price_1"":""350"",""price_2"":""450"",""price_3"":""650""}","rating","wwb","catch","null","washing machines","90","65","20","30","40","30","1","null","null","null","null","null","null","Average lifespan","Energy savings","",""
"","","","","","rating_trial_setup","html-keyboard-response","11","141709","0.0-3.0-0.4","39","1","2025-04-11 14:11:53","bb671e3ae32f654b8954ea4c4635f915","","Mozilla/5.0 (Windows NT 10.0; Win64; x64) AppleWebKit/537.36 (KHTML, like Gecko) Chrome/135.0.0.0 Safari/537.36","WebKit","Chrome","135.0.0.0","Windows","10.0","https://hz8g1ckzuq.cognition.run/","en-US,en;q=0.9,de-DE;q=0.8,de;q=0.7","2tnz3m9qzcx4zbb","28","[""Black or African-American""]","No","Male","1564207.5999999642","null","","<p></p>","null","rating","wbw","catch","null","laptops","75","95","15","45","15","50","1","","","","","","","","","",""
"","","","","","rating_trial","survey-html-form","12","155398","0.0-3.0-1.4","39","1","2025-04-11 14:11:53","bb671e3ae32f654b8954ea4c4635f915","","Mozilla/5.0 (Windows NT 10.0; Win64; x64) AppleWebKit/537.36 (KHTML, like Gecko) Chrome/135.0.0.0 Safari/537.36","WebKit","Chrome","135.0.0.0","Windows","10.0","https://hz8g1ckzuq.cognition.run/","en-US,en;q=0.9,de-DE;q=0.8,de;q=0.7","2tnz3m9qzcx4zbb","28","[""Black or African-American""]","No","Male","1564207.5999999642","13688","","","{""price_1"":""180"",""price_2"":""500"",""price_3"":""190""}","rating","wbw","catch","null","laptops","75","95","15","45","15","50","1","null","null","null","null","null","null","Processing speed","Memory (RAM)","",""
"","","","","","rating_trial_setup","html-keyboard-response","13","155699","0.0-3.0-0.5","39","1","2025-04-11 14:11:53","bb671e3ae32f654b8954ea4c4635f915","","Mozilla/5.0 (Windows NT 10.0; Win64; x64) AppleWebKit/537.36 (KHTML, like Gecko) Chrome/135.0.0.0 Safari/537.36","WebKit","Chrome","135.0.0.0","Windows","10.0","https://hz8g1ckzuq.cognition.run/","en-US,en;q=0.9,de-DE;q=0.8,de;q=0.7","2tnz3m9qzcx4zbb","28","[""Black or African-American""]","No","Male","1564207.5999999642","null","","<p></p>","null","rating","tcd","attraction_2","2","televisions","null","null","null","null","null","null","2","","","","","","","","","",""
"","","","","","rating_trial","survey-html-form","14","174918","0.0-3.0-1.5","39","1","2025-04-11 14:11:53","bb671e3ae32f654b8954ea4c4635f915","","Mozilla/5.0 (Windows NT 10.0; Win64; x64) AppleWebKit/537.36 (KHTML, like Gecko) Chrome/135.0.0.0 Safari/537.36","WebKit","Chrome","135.0.0.0","Windows","10.0","https://hz8g1ckzuq.cognition.run/","en-US,en;q=0.9,de-DE;q=0.8,de;q=0.7","2tnz3m9qzcx4zbb","28","[""Black or African-American""]","No","Male","1564207.5999999642","19218","","","{""price_1"":""300"",""price_2"":""410"",""price_3"":""420""}","rating","tcd","attraction_2","2","televisions","null","null","null","null","null","null","2","50","60","40","60","50","60","Screen size","Average lifespan","",""
"","","","","","rating_trial_setup","html-keyboard-response","15","175221","0.0-3.0-0.6","39","1","2025-04-11 14:11:53","bb671e3ae32f654b8954ea4c4635f915","","Mozilla/5.0 (Windows NT 10.0; Win64; x64) AppleWebKit/537.36 (KHTML, like Gecko) Chrome/135.0.0.0 Safari/537.36","WebKit","Chrome","135.0.0.0","Windows","10.0","https://hz8g1ckzuq.cognition.run/","en-US,en;q=0.9,de-DE;q=0.8,de;q=0.7","2tnz3m9qzcx4zbb","28","[""Black or African-American""]","No","Male","1564207.5999999642","null","","<p></p>","null","rating","tcd","repulsion_2","2","laptops","null","null","null","null","null","null","1","","","","","","","","","",""
"","","","","","rating_trial","survey-html-form","16","202759","0.0-3.0-1.6","39","1","2025-04-11 14:11:53","bb671e3ae32f654b8954ea4c4635f915","","Mozilla/5.0 (Windows NT 10.0; Win64; x64) AppleWebKit/537.36 (KHTML, like Gecko) Chrome/135.0.0.0 Safari/537.36","WebKit","Chrome","135.0.0.0","Windows","10.0","https://hz8g1ckzuq.cognition.run/","en-US,en;q=0.9,de-DE;q=0.8,de;q=0.7","2tnz3m9qzcx4zbb","28","[""Black or African-American""]","No","Male","1564207.5999999642","27537","","","{""price_1"":""200"",""price_2"":""220"",""price_3"":""180""}","rating","tcd","repulsion_2","2","laptops","null","null","null","null","null","null","1","30","40","20","100","90","100","Processing speed","Memory (RAM)","",""
"","","","","","rating_trial_setup","html-keyboard-response","17","203060","0.0-3.0-0.7","39","1","2025-04-11 14:11:53","bb671e3ae32f654b8954ea4c4635f915","","Mozilla/5.0 (Windows NT 10.0; Win64; x64) AppleWebKit/537.36 (KHTML, like Gecko) Chrome/135.0.0.0 Safari/537.36","WebKit","Chrome","135.0.0.0","Windows","10.0","https://hz8g1ckzuq.cognition.run/","en-US,en;q=0.9,de-DE;q=0.8,de;q=0.7","2tnz3m9qzcx4zbb","28","[""Black or African-American""]","No","Male","1564207.5999999642","null","","<p></p>","null","rating","tcd","repulsion_1","2","laptops","null","null","null","null","null","null","2","","","","","","","","","",""
"","","","","","rating_trial","survey-html-form","18","251559","0.0-3.0-1.7","39","1","2025-04-11 14:11:53","bb671e3ae32f654b8954ea4c4635f915","","Mozilla/5.0 (Windows NT 10.0; Win64; x64) AppleWebKit/537.36 (KHTML, like Gecko) Chrome/135.0.0.0 Safari/537.36","WebKit","Chrome","135.0.0.0","Windows","10.0","https://hz8g1ckzuq.cognition.run/","en-US,en;q=0.9,de-DE;q=0.8,de;q=0.7","2tnz3m9qzcx4zbb","28","[""Black or African-American""]","No","Male","1564207.5999999642","48498","","","{""price_1"":""180"",""price_2"":""260"",""price_3"":""175""}","rating","tcd","repulsion_1","2","laptops","null","null","null","null","null","null","2","30","40","25","100","90","100","Processing speed","Memory (RAM)","",""
"","","","","","rating_trial_setup","html-keyboard-response","19","251861","0.0-3.0-0.8","39","1","2025-04-11 14:11:53","bb671e3ae32f654b8954ea4c4635f915","","Mozilla/5.0 (Windows NT 10.0; Win64; x64) AppleWebKit/537.36 (KHTML, like Gecko) Chrome/135.0.0.0 Safari/537.36","WebKit","Chrome","135.0.0.0","Windows","10.0","https://hz8g1ckzuq.cognition.run/","en-US,en;q=0.9,de-DE;q=0.8,de;q=0.7","2tnz3m9qzcx4zbb","28","[""Black or African-American""]","No","Male","1564207.5999999642","null","","<p></p>","null","rating","bww","catch","null","microwave ovens","50","70","40","15","30","15","2","","","","","","","","","",""
"","","","","","rating_trial","survey-html-form","20","279905","0.0-3.0-1.8","39","1","2025-04-11 14:11:53","bb671e3ae32f654b8954ea4c4635f915","","Mozilla/5.0 (Windows NT 10.0; Win64; x64) AppleWebKit/537.36 (KHTML, like Gecko) Chrome/135.0.0.0 Safari/537.36","WebKit","Chrome","135.0.0.0","Windows","10.0","https://hz8g1ckzuq.cognition.run/","en-US,en;q=0.9,de-DE;q=0.8,de;q=0.7","2tnz3m9qzcx4zbb","28","[""Black or African-American""]","No","Male","1564207.5999999642","28043","","","{""price_1"":""350"",""price_2"":""150"",""price_3"":""135""}","rating","bww","catch","null","microwave ovens","50","70","40","15","30","15","2","null","null","null","null","null","null","Warranty","Cooking power","",""
"","","","","","rating_trial_setup","html-keyboard-response","21","280207","0.0-3.0-0.9","39","1","2025-04-11 14:11:53","bb671e3ae32f654b8954ea4c4635f915","","Mozilla/5.0 (Windows NT 10.0; Win64; x64) AppleWebKit/537.36 (KHTML, like Gecko) Chrome/135.0.0.0 Safari/537.36","WebKit","Chrome","135.0.0.0","Windows","10.0","https://hz8g1ckzuq.cognition.run/","en-US,en;q=0.9,de-DE;q=0.8,de;q=0.7","2tnz3m9qzcx4zbb","28","[""Black or African-American""]","No","Male","1564207.5999999642","null","","<p></p>","null","rating","tcd","repulsion_1","1","microwave ovens","null","null","null","null","null","null","2","","","","","","","","","",""
"","","","","","rating_trial","survey-html-form","22","300812","0.0-3.0-1.9","39","1","2025-04-11 14:11:53","bb671e3ae32f654b8954ea4c4635f915","","Mozilla/5.0 (Windows NT 10.0; Win64; x64) AppleWebKit/537.36 (KHTML, like Gecko) Chrome/135.0.0.0 Safari/537.36","WebKit","Chrome","135.0.0.0","Windows","10.0","https://hz8g1ckzuq.cognition.run/","en-US,en;q=0.9,de-DE;q=0.8,de;q=0.7","2tnz3m9qzcx4zbb","28","[""Black or African-American""]","No","Male","1564207.5999999642","20604","","","{""price_1"":""180"",""price_2"":""165"",""price_3"":""150""}","rating","tcd","repulsion_1","1","microwave ovens","null","null","null","null","null","null","2","100","90","100","30","40","25","Warranty","Cooking power","",""
"","","","","","rating_trial_setup","html-keyboard-response","23","301115","0.0-3.0-0.10","39","1","2025-04-11 14:11:53","bb671e3ae32f654b8954ea4c4635f915","","Mozilla/5.0 (Windows NT 10.0; Win64; x64) AppleWebKit/537.36 (KHTML, like Gecko) Chrome/135.0.0.0 Safari/537.36","WebKit","Chrome","135.0.0.0","Windows","10.0","https://hz8g1ckzuq.cognition.run/","en-US,en;q=0.9,de-DE;q=0.8,de;q=0.7","2tnz3m9qzcx4zbb","28","[""Black or African-American""]","No","Male","1564207.5999999642","null","","<p></p>","null","rating","bww","catch","null","televisions","90","65","30","20","15","45","1","","","","","","","","","",""
"","","","","","rating_trial","survey-html-form","24","320606","0.0-3.0-1.10","39","1","2025-04-11 14:11:53","bb671e3ae32f654b8954ea4c4635f915","","Mozilla/5.0 (Windows NT 10.0; Win64; x64) AppleWebKit/537.36 (KHTML, like Gecko) Chrome/135.0.0.0 Safari/537.36","WebKit","Chrome","135.0.0.0","Windows","10.0","https://hz8g1ckzuq.cognition.run/","en-US,en;q=0.9,de-DE;q=0.8,de;q=0.7","2tnz3m9qzcx4zbb","28","[""Black or African-American""]","No","Male","1564207.5999999642","19491","","","{""price_1"":""335"",""price_2"":""125"",""price_3"":""188""}","rating","bww","catch","null","televisions","90","65","30","20","15","45","1","null","null","null","null","null","null","Screen size","Average lifespan","",""
"","","","","","rating_trial_setup","html-keyboard-response","25","320909","0.0-3.0-0.11","39","1","2025-04-11 14:11:53","bb671e3ae32f654b8954ea4c4635f915","","Mozilla/5.0 (Windows NT 10.0; Win64; x64) AppleWebKit/537.36 (KHTML, like Gecko) Chrome/135.0.0.0 Safari/537.36","WebKit","Chrome","135.0.0.0","Windows","10.0","https://hz8g1ckzuq.cognition.run/","en-US,en;q=0.9,de-DE;q=0.8,de;q=0.7","2tnz3m9qzcx4zbb","28","[""Black or African-American""]","No","Male","1564207.5999999642","null","","<p></p>","null","rating","ctd","attraction_2","1","laptops","null","null","null","null","null","null","1","","","","","","","","","",""
"","","","","","rating_trial","survey-html-form","26","337257","0.0-3.0-1.11","39","1","2025-04-11 14:11:53","bb671e3ae32f654b8954ea4c4635f915","","Mozilla/5.0 (Windows NT 10.0; Win64; x64) AppleWebKit/537.36 (KHTML, like Gecko) Chrome/135.0.0.0 Safari/537.36","WebKit","Chrome","135.0.0.0","Windows","10.0","https://hz8g1ckzuq.cognition.run/","en-US,en;q=0.9,de-DE;q=0.8,de;q=0.7","2tnz3m9qzcx4zbb","28","[""Black or African-American""]","No","Male","1564207.5999999642","16347","","","{""price_1"":""265"",""price_2"":""265"",""price_3"":""285""}","rating","ctd","attraction_2","1","laptops","null","null","null","null","null","null","1","60","50","60","50","60","40","Processing speed","Memory (RAM)","",""
"","","","","","rating_trial_setup","html-keyboard-response","27","337559","0.0-3.0-0.12","39","1","2025-04-11 14:11:53","bb671e3ae32f654b8954ea4c4635f915","","Mozilla/5.0 (Windows NT 10.0; Win64; x64) AppleWebKit/537.36 (KHTML, like Gecko) Chrome/135.0.0.0 Safari/537.36","WebKit","Chrome","135.0.0.0","Windows","10.0","https://hz8g1ckzuq.cognition.run/","en-US,en;q=0.9,de-DE;q=0.8,de;q=0.7","2tnz3m9qzcx4zbb","28","[""Black or African-American""]","No","Male","1564207.5999999642","null","","<p></p>","null","rating","dtc","repulsion_2","2","televisions","null","null","null","null","null","null","1","","","","","","","","","",""
"","","","","","rating_trial","survey-html-form","28","356800","0.0-3.0-1.12","39","1","2025-04-11 14:11:53","bb671e3ae32f654b8954ea4c4635f915","","Mozilla/5.0 (Windows NT 10.0; Win64; x64) AppleWebKit/537.36 (KHTML, like Gecko) Chrome/135.0.0.0 Safari/537.36","WebKit","Chrome","135.0.0.0","Windows","10.0","https://hz8g1ckzuq.cognition.run/","en-US,en;q=0.9,de-DE;q=0.8,de;q=0.7","2tnz3m9qzcx4zbb","28","[""Black or African-American""]","No","Male","1564207.5999999642","19240","","","{""price_1"":""180"",""price_2"":""220"",""price_3"":""250""}","rating","dtc","repulsion_2","2","televisions","null","null","null","null","null","null","1","30","40","20","100","90","100","Screen size","Average lifespan","",""
"","","","","","rating_trial_setup","html-keyboard-response","29","357103","0.0-3.0-0.13","39","1","2025-04-11 14:11:53","bb671e3ae32f654b8954ea4c4635f915","","Mozilla/5.0 (Windows NT 10.0; Win64; x64) AppleWebKit/537.36 (KHTML, like Gecko) Chrome/135.0.0.0 Safari/537.36","WebKit","Chrome","135.0.0.0","Windows","10.0","https://hz8g1ckzuq.cognition.run/","en-US,en;q=0.9,de-DE;q=0.8,de;q=0.7","2tnz3m9qzcx4zbb","28","[""Black or African-American""]","No","Male","1564207.5999999642","null","","<p></p>","null","rating","tcd","attraction_2","2","washing machines","null","null","null","null","null","null","1","","","","","","","","","",""
"","","","","","rating_trial","survey-html-form","30","426633","0.0-3.0-1.13","39","1","2025-04-11 14:11:53","bb671e3ae32f654b8954ea4c4635f915","","Mozilla/5.0 (Windows NT 10.0; Win64; x64) AppleWebKit/537.36 (KHTML, like Gecko) Chrome/135.0.0.0 Safari/537.36","WebKit","Chrome","135.0.0.0","Windows","10.0","https://hz8g1ckzuq.cognition.run/","en-US,en;q=0.9,de-DE;q=0.8,de;q=0.7","2tnz3m9qzcx4zbb","28","[""Black or African-American""]","No","Male","1564207.5999999642","69528","","","{""price_1"":""220"",""price_2"":""320"",""price_3"":""195""}","rating","tcd","attraction_2","2","washing machines","null","null","null","null","null","null","1","50","60","40","60","50","60","Average lifespan","Energy savings","",""
"","","","","","rating_trial_setup","html-keyboard-response","31","426936","0.0-3.0-0.14","39","1","2025-04-11 14:11:53","bb671e3ae32f654b8954ea4c4635f915","","Mozilla/5.0 (Windows NT 10.0; Win64; x64) AppleWebKit/537.36 (KHTML, like Gecko) Chrome/135.0.0.0 Safari/537.36","WebKit","Chrome","135.0.0.0","Windows","10.0","https://hz8g1ckzuq.cognition.run/","en-US,en;q=0.9,de-DE;q=0.8,de;q=0.7","2tnz3m9qzcx4zbb","28","[""Black or African-American""]","No","Male","1564207.5999999642","null","","<p></p>","null","rating","dct","repulsion_1","1","laptops","null","null","null","null","null","null","1","","","","","","","","","",""
"","","","","","rating_trial","survey-html-form","32","450151","0.0-3.0-1.14","39","1","2025-04-11 14:11:53","bb671e3ae32f654b8954ea4c4635f915","","Mozilla/5.0 (Windows NT 10.0; Win64; x64) AppleWebKit/537.36 (KHTML, like Gecko) Chrome/135.0.0.0 Safari/537.36","WebKit","Chrome","135.0.0.0","Windows","10.0","https://hz8g1ckzuq.cognition.run/","en-US,en;q=0.9,de-DE;q=0.8,de;q=0.7","2tnz3m9qzcx4zbb","28","[""Black or African-American""]","No","Male","1564207.5999999642","23209","","","{""price_1"":""305"",""price_2"":""455"",""price_3"":""400""}","rating","dct","repulsion_1","1","laptops","null","null","null","null","null","null","1","100","90","100","30","40","25","Processing speed","Memory (RAM)","",""
"","","","","","rating_trial_setup","html-keyboard-response","33","450453","0.0-3.0-0.15","39","1","2025-04-11 14:11:53","bb671e3ae32f654b8954ea4c4635f915","","Mozilla/5.0 (Windows NT 10.0; Win64; x64) AppleWebKit/537.36 (KHTML, like Gecko) Chrome/135.0.0.0 Safari/537.36","WebKit","Chrome","135.0.0.0","Windows","10.0","https://hz8g1ckzuq.cognition.run/","en-US,en;q=0.9,de-DE;q=0.8,de;q=0.7","2tnz3m9qzcx4zbb","28","[""Black or African-American""]","No","Male","1564207.5999999642","null","","<p></p>","null","rating","tdc","attraction_1","2","microwave ovens","null","null","null","null","null","null","1","","","","","","","","","",""
"","","","","","rating_trial","survey-html-form","34","496198","0.0-3.0-1.15","39","1","2025-04-11 14:11:53","bb671e3ae32f654b8954ea4c4635f915","","Mozilla/5.0 (Windows NT 10.0; Win64; x64) AppleWebKit/537.36 (KHTML, like Gecko) Chrome/135.0.0.0 Safari/537.36","WebKit","Chrome","135.0.0.0","Windows","10.0","https://hz8g1ckzuq.cognition.run/","en-US,en;q=0.9,de-DE;q=0.8,de;q=0.7","2tnz3m9qzcx4zbb","28","[""Black or African-American""]","No","Male","1564207.5999999642","45744","","","{""price_1"":""255"",""price_2"":""230"",""price_3"":""225""}","rating","tdc","attraction_1","2","microwave ovens","null","null","null","null","null","null","1","50","60","45","60","50","60","Warranty","Cooking power","",""
"","","","","","rating_trial_setup","html-keyboard-response","35","496502","0.0-3.0-0.16","39","1","2025-04-11 14:11:53","bb671e3ae32f654b8954ea4c4635f915","","Mozilla/5.0 (Windows NT 10.0; Win64; x64) AppleWebKit/537.36 (KHTML, like Gecko) Chrome/135.0.0.0 Safari/537.36","WebKit","Chrome","135.0.0.0","Windows","10.0","https://hz8g1ckzuq.cognition.run/","en-US,en;q=0.9,de-DE;q=0.8,de;q=0.7","2tnz3m9qzcx4zbb","28","[""Black or African-American""]","No","Male","1564207.5999999642","null","","<p></p>","null","rating","ctd","attraction_1","1","washing machines","null","null","null","null","null","null","1","","","","","","","","","",""
"","","","","","rating_trial","survey-html-form","36","531422","0.0-3.0-1.16","39","1","2025-04-11 14:11:53","bb671e3ae32f654b8954ea4c4635f915","","Mozilla/5.0 (Windows NT 10.0; Win64; x64) AppleWebKit/537.36 (KHTML, like Gecko) Chrome/135.0.0.0 Safari/537.36","WebKit","Chrome","135.0.0.0","Windows","10.0","https://hz8g1ckzuq.cognition.run/","en-US,en;q=0.9,de-DE;q=0.8,de;q=0.7","2tnz3m9qzcx4zbb","28","[""Black or African-American""]","No","Male","1564207.5999999642","34919","","","{""price_1"":""225"",""price_2"":""225"",""price_3"":""225""}","rating","ctd","attraction_1","1","washing machines","null","null","null","null","null","null","1","60","50","60","50","60","45","Average lifespan","Energy savings","",""
"","","","","","rating_trial_setup","html-keyboard-response","37","531723","0.0-3.0-0.17","39","1","2025-04-11 14:11:53","bb671e3ae32f654b8954ea4c4635f915","","Mozilla/5.0 (Windows NT 10.0; Win64; x64) AppleWebKit/537.36 (KHTML, like Gecko) Chrome/135.0.0.0 Safari/537.36","WebKit","Chrome","135.0.0.0","Windows","10.0","https://hz8g1ckzuq.cognition.run/","en-US,en;q=0.9,de-DE;q=0.8,de;q=0.7","2tnz3m9qzcx4zbb","28","[""Black or African-American""]","No","Male","1564207.5999999642","null","","<p></p>","null","rating","bww","catch","null","televisions","90","55","35","50","10","30","2","","","","","","","","","",""
"","","","","","rating_trial","survey-html-form","38","553228","0.0-3.0-1.17","39","1","2025-04-11 14:11:53","bb671e3ae32f654b8954ea4c4635f915","","Mozilla/5.0 (Windows NT 10.0; Win64; x64) AppleWebKit/537.36 (KHTML, like Gecko) Chrome/135.0.0.0 Safari/537.36","WebKit","Chrome","135.0.0.0","Windows","10.0","https://hz8g1ckzuq.cognition.run/","en-US,en;q=0.9,de-DE;q=0.8,de;q=0.7","2tnz3m9qzcx4zbb","28","[""Black or African-American""]","No","Male","1564207.5999999642","21504","","","{""price_1"":""280"",""price_2"":""180"",""price_3"":""122""}","rating","bww","catch","null","televisions","90","55","35","50","10","30","2","null","null","null","null","null","null","Screen size","Average lifespan","",""
"","","","","","rating_trial_setup","html-keyboard-response","39","553530","0.0-3.0-0.18","39","1","2025-04-11 14:11:53","bb671e3ae32f654b8954ea4c4635f915","","Mozilla/5.0 (Windows NT 10.0; Win64; x64) AppleWebKit/537.36 (KHTML, like Gecko) Chrome/135.0.0.0 Safari/537.36","WebKit","Chrome","135.0.0.0","Windows","10.0","https://hz8g1ckzuq.cognition.run/","en-US,en;q=0.9,de-DE;q=0.8,de;q=0.7","2tnz3m9qzcx4zbb","28","[""Black or African-American""]","No","Male","1564207.5999999642","null","","<p></p>","null","rating","tdc","attraction_2","2","microwave ovens","null","null","null","null","null","null","2","","","","","","","","","",""
"","","","","","rating_trial","survey-html-form","40","585783","0.0-3.0-1.18","39","1","2025-04-11 14:11:53","bb671e3ae32f654b8954ea4c4635f915","","Mozilla/5.0 (Windows NT 10.0; Win64; x64) AppleWebKit/537.36 (KHTML, like Gecko) Chrome/135.0.0.0 Safari/537.36","WebKit","Chrome","135.0.0.0","Windows","10.0","https://hz8g1ckzuq.cognition.run/","en-US,en;q=0.9,de-DE;q=0.8,de;q=0.7","2tnz3m9qzcx4zbb","28","[""Black or African-American""]","No","Male","1564207.5999999642","32252","","","{""price_1"":""225"",""price_2"":""210"",""price_3"":""195""}","rating","tdc","attraction_2","2","microwave ovens","null","null","null","null","null","null","2","50","60","40","60","50","60","Warranty","Cooking power","",""
"","","","","","rating_trial_setup","html-keyboard-response","41","586086","0.0-3.0-0.19","39","1","2025-04-11 14:11:53","bb671e3ae32f654b8954ea4c4635f915","","Mozilla/5.0 (Windows NT 10.0; Win64; x64) AppleWebKit/537.36 (KHTML, like Gecko) Chrome/135.0.0.0 Safari/537.36","WebKit","Chrome","135.0.0.0","Windows","10.0","https://hz8g1ckzuq.cognition.run/","en-US,en;q=0.9,de-DE;q=0.8,de;q=0.7","2tnz3m9qzcx4zbb","28","[""Black or African-American""]","No","Male","1564207.5999999642","null","","<p></p>","null","rating","tdc","attraction_1","1","microwave ovens","null","null","null","null","null","null","1","","","","","","","","","",""
"","","","","","rating_trial","survey-html-form","42","598217","0.0-3.0-1.19","39","1","2025-04-11 14:11:53","bb671e3ae32f654b8954ea4c4635f915","","Mozilla/5.0 (Windows NT 10.0; Win64; x64) AppleWebKit/537.36 (KHTML, like Gecko) Chrome/135.0.0.0 Safari/537.36","WebKit","Chrome","135.0.0.0","Windows","10.0","https://hz8g1ckzuq.cognition.run/","en-US,en;q=0.9,de-DE;q=0.8,de;q=0.7","2tnz3m9qzcx4zbb","28","[""Black or African-American""]","No","Male","1564207.5999999642","12129","","","{""price_1"":""225"",""price_2"":""210"",""price_3"":""195""}","rating","tdc","attraction_1","1","microwave ovens","null","null","null","null","null","null","1","60","50","60","50","60","45","Warranty","Cooking power","",""
"","","","","","rating_trial_setup","html-keyboard-response","43","598518","0.0-3.0-0.20","39","1","2025-04-11 14:11:53","bb671e3ae32f654b8954ea4c4635f915","","Mozilla/5.0 (Windows NT 10.0; Win64; x64) AppleWebKit/537.36 (KHTML, like Gecko) Chrome/135.0.0.0 Safari/537.36","WebKit","Chrome","135.0.0.0","Windows","10.0","https://hz8g1ckzuq.cognition.run/","en-US,en;q=0.9,de-DE;q=0.8,de;q=0.7","2tnz3m9qzcx4zbb","28","[""Black or African-American""]","No","Male","1564207.5999999642","null","","<p></p>","null","rating","dtc","repulsion_1","2","microwave ovens","null","null","null","null","null","null","1","","","","","","","","","",""
"","","","","","rating_trial","survey-html-form","44","625234","0.0-3.0-1.20","39","1","2025-04-11 14:11:53","bb671e3ae32f654b8954ea4c4635f915","","Mozilla/5.0 (Windows NT 10.0; Win64; x64) AppleWebKit/537.36 (KHTML, like Gecko) Chrome/135.0.0.0 Safari/537.36","WebKit","Chrome","135.0.0.0","Windows","10.0","https://hz8g1ckzuq.cognition.run/","en-US,en;q=0.9,de-DE;q=0.8,de;q=0.7","2tnz3m9qzcx4zbb","28","[""Black or African-American""]","No","Male","1564207.5999999642","26714","","","{""price_1"":""330"",""price_2"":""345"",""price_3"":""300""}","rating","dtc","repulsion_1","2","microwave ovens","null","null","null","null","null","null","1","30","40","25","100","90","100","Warranty","Cooking power","",""
"","","","","","rating_trial_setup","html-keyboard-response","45","625536","0.0-3.0-0.21","39","1","2025-04-11 14:11:53","bb671e3ae32f654b8954ea4c4635f915","","Mozilla/5.0 (Windows NT 10.0; Win64; x64) AppleWebKit/537.36 (KHTML, like Gecko) Chrome/135.0.0.0 Safari/537.36","WebKit","Chrome","135.0.0.0","Windows","10.0","https://hz8g1ckzuq.cognition.run/","en-US,en;q=0.9,de-DE;q=0.8,de;q=0.7","2tnz3m9qzcx4zbb","28","[""Black or African-American""]","No","Male","1564207.5999999642","null","","<p></p>","null","rating","dtc","attraction_2","1","washing machines","null","null","null","null","null","null","1","","","","","","","","","",""
"","","","","","rating_trial","survey-html-form","46","661583","0.0-3.0-1.21","39","1","2025-04-11 14:11:53","bb671e3ae32f654b8954ea4c4635f915","","Mozilla/5.0 (Windows NT 10.0; Win64; x64) AppleWebKit/537.36 (KHTML, like Gecko) Chrome/135.0.0.0 Safari/537.36","WebKit","Chrome","135.0.0.0","Windows","10.0","https://hz8g1ckzuq.cognition.run/","en-US,en;q=0.9,de-DE;q=0.8,de;q=0.7","2tnz3m9qzcx4zbb","28","[""Black or African-American""]","No","Male","1564207.5999999642","36046","","","{""price_1"":""250"",""price_2"":""250"",""price_3"":""220""}","rating","dtc","attraction_2","1","washing machines","null","null","null","null","null","null","1","60","50","60","50","60","40","Average lifespan","Energy savings","",""
"","","","","","rating_trial_setup","html-keyboard-response","47","661885","0.0-3.0-0.22","39","1","2025-04-11 14:11:53","bb671e3ae32f654b8954ea4c4635f915","","Mozilla/5.0 (Windows NT 10.0; Win64; x64) AppleWebKit/537.36 (KHTML, like Gecko) Chrome/135.0.0.0 Safari/537.36","WebKit","Chrome","135.0.0.0","Windows","10.0","https://hz8g1ckzuq.cognition.run/","en-US,en;q=0.9,de-DE;q=0.8,de;q=0.7","2tnz3m9qzcx4zbb","28","[""Black or African-American""]","No","Male","1564207.5999999642","null","","<p></p>","null","rating","dtc","repulsion_2","2","washing machines","null","null","null","null","null","null","1","","","","","","","","","",""
"","","","","","rating_trial","survey-html-form","48","676759","0.0-3.0-1.22","39","1","2025-04-11 14:11:53","bb671e3ae32f654b8954ea4c4635f915","","Mozilla/5.0 (Windows NT 10.0; Win64; x64) AppleWebKit/537.36 (KHTML, like Gecko) Chrome/135.0.0.0 Safari/537.36","WebKit","Chrome","135.0.0.0","Windows","10.0","https://hz8g1ckzuq.cognition.run/","en-US,en;q=0.9,de-DE;q=0.8,de;q=0.7","2tnz3m9qzcx4zbb","28","[""Black or African-American""]","No","Male","1564207.5999999642","14872","","","{""price_1"":""200"",""price_2"":""225"",""price_3"":""245""}","rating","dtc","repulsion_2","2","washing machines","null","null","null","null","null","null","1","30","40","20","100","90","100","Average lifespan","Energy savings","",""
"","","","","","rating_trial_setup","html-keyboard-response","49","677062","0.0-3.0-0.23","39","1","2025-04-11 14:11:53","bb671e3ae32f654b8954ea4c4635f915","","Mozilla/5.0 (Windows NT 10.0; Win64; x64) AppleWebKit/537.36 (KHTML, like Gecko) Chrome/135.0.0.0 Safari/537.36","WebKit","Chrome","135.0.0.0","Windows","10.0","https://hz8g1ckzuq.cognition.run/","en-US,en;q=0.9,de-DE;q=0.8,de;q=0.7","2tnz3m9qzcx4zbb","28","[""Black or African-American""]","No","Male","1564207.5999999642","null","","<p></p>","null","rating","cdt","repulsion_1","1","washing machines","null","null","null","null","null","null","1","","","","","","","","","",""
"","","","","","rating_trial","survey-html-form","50","697441","0.0-3.0-1.23","39","1","2025-04-11 14:11:53","bb671e3ae32f654b8954ea4c4635f915","","Mozilla/5.0 (Windows NT 10.0; Win64; x64) AppleWebKit/537.36 (KHTML, like Gecko) Chrome/135.0.0.0 Safari/537.36","WebKit","Chrome","135.0.0.0","Windows","10.0","https://hz8g1ckzuq.cognition.run/","en-US,en;q=0.9,de-DE;q=0.8,de;q=0.7","2tnz3m9qzcx4zbb","28","[""Black or African-American""]","No","Male","1564207.5999999642","20378","","","{""price_1"":""355"",""price_2"":""360"",""price_3"":""375""}","rating","cdt","repulsion_1","1","washing machines","null","null","null","null","null","null","1","100","90","100","30","40","25","Average lifespan","Energy savings","",""
"","","","","","rating_trial_setup","html-keyboard-response","51","697743","0.0-3.0-0.24","39","1","2025-04-11 14:11:53","bb671e3ae32f654b8954ea4c4635f915","","Mozilla/5.0 (Windows NT 10.0; Win64; x64) AppleWebKit/537.36 (KHTML, like Gecko) Chrome/135.0.0.0 Safari/537.36","WebKit","Chrome","135.0.0.0","Windows","10.0","https://hz8g1ckzuq.cognition.run/","en-US,en;q=0.9,de-DE;q=0.8,de;q=0.7","2tnz3m9qzcx4zbb","28","[""Black or African-American""]","No","Male","1564207.5999999642","null","","<p></p>","null","rating","ctd","repulsion_2","1","laptops","null","null","null","null","null","null","2","","","","","","","","","",""
"","","","","","rating_trial","survey-html-form","52","832891","0.0-3.0-1.24","39","1","2025-04-11 14:11:53","bb671e3ae32f654b8954ea4c4635f915","","Mozilla/5.0 (Windows NT 10.0; Win64; x64) AppleWebKit/537.36 (KHTML, like Gecko) Chrome/135.0.0.0 Safari/537.36","WebKit","Chrome","135.0.0.0","Windows","10.0","https://hz8g1ckzuq.cognition.run/","en-US,en;q=0.9,de-DE;q=0.8,de;q=0.7","2tnz3m9qzcx4zbb","28","[""Black or African-American""]","No","Male","1564207.5999999642","135147","","","{""price_1"":""350"",""price_2"":""399"",""price_3"":""375""}","rating","ctd","repulsion_2","1","laptops","null","null","null","null","null","null","2","100","90","100","30","40","20","Processing speed","Memory (RAM)","",""
"","","","","","rating_trial_setup","html-keyboard-response","53","833193","0.0-3.0-0.25","39","1","2025-04-11 14:11:53","bb671e3ae32f654b8954ea4c4635f915","","Mozilla/5.0 (Windows NT 10.0; Win64; x64) AppleWebKit/537.36 (KHTML, like Gecko) Chrome/135.0.0.0 Safari/537.36","WebKit","Chrome","135.0.0.0","Windows","10.0","https://hz8g1ckzuq.cognition.run/","en-US,en;q=0.9,de-DE;q=0.8,de;q=0.7","2tnz3m9qzcx4zbb","28","[""Black or African-American""]","No","Male","1564207.5999999642","null","","<p></p>","null","rating","wwb","catch","null","washing machines","80","80","35","50","35","30","2","","","","","","","","","",""
"","","","","","rating_trial","survey-html-form","54","870275","0.0-3.0-1.25","39","1","2025-04-11 14:11:53","bb671e3ae32f654b8954ea4c4635f915","","Mozilla/5.0 (Windows NT 10.0; Win64; x64) AppleWebKit/537.36 (KHTML, like Gecko) Chrome/135.0.0.0 Safari/537.36","WebKit","Chrome","135.0.0.0","Windows","10.0","https://hz8g1ckzuq.cognition.run/","en-US,en;q=0.9,de-DE;q=0.8,de;q=0.7","2tnz3m9qzcx4zbb","28","[""Black or African-American""]","No","Male","1564207.5999999642","37080","","","{""price_1"":""265"",""price_2"":""200"",""price_3"":""375""}","rating","wwb","catch","null","washing machines","80","80","35","50","35","30","2","null","null","null","null","null","null","Average lifespan","Energy savings","",""
"","","","","","rating_trial_setup","html-keyboard-response","55","870579","0.0-3.0-0.26","39","1","2025-04-11 14:11:53","bb671e3ae32f654b8954ea4c4635f915","","Mozilla/5.0 (Windows NT 10.0; Win64; x64) AppleWebKit/537.36 (KHTML, like Gecko) Chrome/135.0.0.0 Safari/537.36","WebKit","Chrome","135.0.0.0","Windows","10.0","https://hz8g1ckzuq.cognition.run/","en-US,en;q=0.9,de-DE;q=0.8,de;q=0.7","2tnz3m9qzcx4zbb","28","[""Black or African-American""]","No","Male","1564207.5999999642","null","","<p></p>","null","rating","dct","repulsion_1","2","washing machines","null","null","null","null","null","null","2","","","","","","","","","",""
"","","","","","rating_trial","survey-html-form","56","907457","0.0-3.0-1.26","39","1","2025-04-11 14:11:53","bb671e3ae32f654b8954ea4c4635f915","","Mozilla/5.0 (Windows NT 10.0; Win64; x64) AppleWebKit/537.36 (KHTML, like Gecko) Chrome/135.0.0.0 Safari/537.36","WebKit","Chrome","135.0.0.0","Windows","10.0","https://hz8g1ckzuq.cognition.run/","en-US,en;q=0.9,de-DE;q=0.8,de;q=0.7","2tnz3m9qzcx4zbb","28","[""Black or African-American""]","No","Male","1564207.5999999642","36877","","","{""price_1"":""299"",""price_2"":""345"",""price_3"":""310""}","rating","dct","repulsion_1","2","washing machines","null","null","null","null","null","null","2","30","40","25","100","90","100","Average lifespan","Energy savings","",""
"","","","","","rating_trial_setup","html-keyboard-response","57","907760","0.0-3.0-0.27","39","1","2025-04-11 14:11:53","bb671e3ae32f654b8954ea4c4635f915","","Mozilla/5.0 (Windows NT 10.0; Win64; x64) AppleWebKit/537.36 (KHTML, like Gecko) Chrome/135.0.0.0 Safari/537.36","WebKit","Chrome","135.0.0.0","Windows","10.0","https://hz8g1ckzuq.cognition.run/","en-US,en;q=0.9,de-DE;q=0.8,de;q=0.7","2tnz3m9qzcx4zbb","28","[""Black or African-American""]","No","Male","1564207.5999999642","null","","<p></p>","null","rating","tdc","attraction_2","1","microwave ovens","null","null","null","null","null","null","2","","","","","","","","","",""
"","","","","","rating_trial","survey-html-form","58","946818","0.0-3.0-1.27","39","1","2025-04-11 14:11:53","bb671e3ae32f654b8954ea4c4635f915","","Mozilla/5.0 (Windows NT 10.0; Win64; x64) AppleWebKit/537.36 (KHTML, like Gecko) Chrome/135.0.0.0 Safari/537.36","WebKit","Chrome","135.0.0.0","Windows","10.0","https://hz8g1ckzuq.cognition.run/","en-US,en;q=0.9,de-DE;q=0.8,de;q=0.7","2tnz3m9qzcx4zbb","28","[""Black or African-American""]","No","Male","1564207.5999999642","39057","","","{""price_1"":""255"",""price_2"":""230"",""price_3"":""285""}","rating","tdc","attraction_2","1","microwave ovens","null","null","null","null","null","null","2","60","50","60","50","60","40","Warranty","Cooking power","",""
"","","","","","rating_trial_setup","html-keyboard-response","59","947120","0.0-3.0-0.28","39","1","2025-04-11 14:11:53","bb671e3ae32f654b8954ea4c4635f915","","Mozilla/5.0 (Windows NT 10.0; Win64; x64) AppleWebKit/537.36 (KHTML, like Gecko) Chrome/135.0.0.0 Safari/537.36","WebKit","Chrome","135.0.0.0","Windows","10.0","https://hz8g1ckzuq.cognition.run/","en-US,en;q=0.9,de-DE;q=0.8,de;q=0.7","2tnz3m9qzcx4zbb","28","[""Black or African-American""]","No","Male","1564207.5999999642","null","","<p></p>","null","rating","bww","catch","null","microwave ovens","70","95","15","50","25","40","2","","","","","","","","","",""
"","","","","","rating_trial","survey-html-form","60","962933","0.0-3.0-1.28","39","1","2025-04-11 14:11:53","bb671e3ae32f654b8954ea4c4635f915","","Mozilla/5.0 (Windows NT 10.0; Win64; x64) AppleWebKit/537.36 (KHTML, like Gecko) Chrome/135.0.0.0 Safari/537.36","WebKit","Chrome","135.0.0.0","Windows","10.0","https://hz8g1ckzuq.cognition.run/","en-US,en;q=0.9,de-DE;q=0.8,de;q=0.7","2tnz3m9qzcx4zbb","28","[""Black or African-American""]","No","Male","1564207.5999999642","15811","","","{""price_1"":""300"",""price_2"":""185"",""price_3"":""210""}","rating","bww","catch","null","microwave ovens","70","95","15","50","25","40","2","null","null","null","null","null","null","Warranty","Cooking power","",""
"","","","","","rating_trial_setup","html-keyboard-response","61","963236","0.0-3.0-0.29","39","1","2025-04-11 14:11:53","bb671e3ae32f654b8954ea4c4635f915","","Mozilla/5.0 (Windows NT 10.0; Win64; x64) AppleWebKit/537.36 (KHTML, like Gecko) Chrome/135.0.0.0 Safari/537.36","WebKit","Chrome","135.0.0.0","Windows","10.0","https://hz8g1ckzuq.cognition.run/","en-US,en;q=0.9,de-DE;q=0.8,de;q=0.7","2tnz3m9qzcx4zbb","28","[""Black or African-American""]","No","Male","1564207.5999999642","null","","<p></p>","null","rating","dct","attraction_1","1","laptops","null","null","null","null","null","null","1","","","","","","","","","",""
"","","","","","rating_trial","survey-html-form","62","992342","0.0-3.0-1.29","39","1","2025-04-11 14:11:53","bb671e3ae32f654b8954ea4c4635f915","","Mozilla/5.0 (Windows NT 10.0; Win64; x64) AppleWebKit/537.36 (KHTML, like Gecko) Chrome/135.0.0.0 Safari/537.36","WebKit","Chrome","135.0.0.0","Windows","10.0","https://hz8g1ckzuq.cognition.run/","en-US,en;q=0.9,de-DE;q=0.8,de;q=0.7","2tnz3m9qzcx4zbb","28","[""Black or African-American""]","No","Male","1564207.5999999642","29104","","","{""price_1"":""210"",""price_2"":""145"",""price_3"":""225""}","rating","dct","attraction_1","1","laptops","null","null","null","null","null","null","1","60","50","60","50","60","45","Processing speed","Memory (RAM)","",""
"","","","","","rating_trial_setup","html-keyboard-response","63","992644","0.0-3.0-0.30","39","1","2025-04-11 14:11:53","bb671e3ae32f654b8954ea4c4635f915","","Mozilla/5.0 (Windows NT 10.0; Win64; x64) AppleWebKit/537.36 (KHTML, like Gecko) Chrome/135.0.0.0 Safari/537.36","WebKit","Chrome","135.0.0.0","Windows","10.0","https://hz8g1ckzuq.cognition.run/","en-US,en;q=0.9,de-DE;q=0.8,de;q=0.7","2tnz3m9qzcx4zbb","28","[""Black or African-American""]","No","Male","1564207.5999999642","null","","<p></p>","null","rating","bww","catch","null","laptops","50","95","30","10","20","40","1","","","","","","","","","",""
"","","","","","rating_trial","survey-html-form","64","1017909","0.0-3.0-1.30","39","1","2025-04-11 14:11:53","bb671e3ae32f654b8954ea4c4635f915","","Mozilla/5.0 (Windows NT 10.0; Win64; x64) AppleWebKit/537.36 (KHTML, like Gecko) Chrome/135.0.0.0 Safari/537.36","WebKit","Chrome","135.0.0.0","Windows","10.0","https://hz8g1ckzuq.cognition.run/","en-US,en;q=0.9,de-DE;q=0.8,de;q=0.7","2tnz3m9qzcx4zbb","28","[""Black or African-American""]","No","Male","1564207.5999999642","25263","","","{""price_1"":""250"",""price_2"":""110"",""price_3"":""140""}","rating","bww","catch","null","laptops","50","95","30","10","20","40","1","null","null","null","null","null","null","Processing speed","Memory (RAM)","",""
"","","","","","rating_trial_setup","html-keyboard-response","65","1018211","0.0-3.0-0.31","39","1","2025-04-11 14:11:53","bb671e3ae32f654b8954ea4c4635f915","","Mozilla/5.0 (Windows NT 10.0; Win64; x64) AppleWebKit/537.36 (KHTML, like Gecko) Chrome/135.0.0.0 Safari/537.36","WebKit","Chrome","135.0.0.0","Windows","10.0","https://hz8g1ckzuq.cognition.run/","en-US,en;q=0.9,de-DE;q=0.8,de;q=0.7","2tnz3m9qzcx4zbb","28","[""Black or African-American""]","No","Male","1564207.5999999642","null","","<p></p>","null","rating","dct","repulsion_2","2","microwave ovens","null","null","null","null","null","null","1","","","","","","","","","",""
"","","","","","rating_trial","survey-html-form","66","1050879","0.0-3.0-1.31","39","1","2025-04-11 14:11:53","bb671e3ae32f654b8954ea4c4635f915","","Mozilla/5.0 (Windows NT 10.0; Win64; x64) AppleWebKit/537.36 (KHTML, like Gecko) Chrome/135.0.0.0 Safari/537.36","WebKit","Chrome","135.0.0.0","Windows","10.0","https://hz8g1ckzuq.cognition.run/","en-US,en;q=0.9,de-DE;q=0.8,de;q=0.7","2tnz3m9qzcx4zbb","28","[""Black or African-American""]","No","Male","1564207.5999999642","32666","","","{""price_1"":""250"",""price_2"":""185"",""price_3"":""285""}","rating","dct","repulsion_2","2","microwave ovens","null","null","null","null","null","null","1","30","40","20","100","90","100","Warranty","Cooking power","",""
"","","","","","rating_trial_setup","html-keyboard-response","67","1051181","0.0-3.0-0.32","39","1","2025-04-11 14:11:53","bb671e3ae32f654b8954ea4c4635f915","","Mozilla/5.0 (Windows NT 10.0; Win64; x64) AppleWebKit/537.36 (KHTML, like Gecko) Chrome/135.0.0.0 Safari/537.36","WebKit","Chrome","135.0.0.0","Windows","10.0","https://hz8g1ckzuq.cognition.run/","en-US,en;q=0.9,de-DE;q=0.8,de;q=0.7","2tnz3m9qzcx4zbb","28","[""Black or African-American""]","No","Male","1564207.5999999642","null","","<p></p>","null","rating","tdc","attraction_1","2","laptops","null","null","null","null","null","null","2","","","","","","","","","",""
"","","","","","rating_trial","survey-html-form","68","1084056","0.0-3.0-1.32","39","1","2025-04-11 14:11:53","bb671e3ae32f654b8954ea4c4635f915","","Mozilla/5.0 (Windows NT 10.0; Win64; x64) AppleWebKit/537.36 (KHTML, like Gecko) Chrome/135.0.0.0 Safari/537.36","WebKit","Chrome","135.0.0.0","Windows","10.0","https://hz8g1ckzuq.cognition.run/","en-US,en;q=0.9,de-DE;q=0.8,de;q=0.7","2tnz3m9qzcx4zbb","28","[""Black or African-American""]","No","Male","1564207.5999999642","32873","","","{""price_1"":""265"",""price_2"":""225"",""price_3"":""295""}","rating","tdc","attraction_1","2","laptops","null","null","null","null","null","null","2","50","60","45","60","50","60","Processing speed","Memory (RAM)","",""
"","","","","","rating_trial_setup","html-keyboard-response","69","1084359","0.0-3.0-0.33","39","1","2025-04-11 14:11:53","bb671e3ae32f654b8954ea4c4635f915","","Mozilla/5.0 (Windows NT 10.0; Win64; x64) AppleWebKit/537.36 (KHTML, like Gecko) Chrome/135.0.0.0 Safari/537.36","WebKit","Chrome","135.0.0.0","Windows","10.0","https://hz8g1ckzuq.cognition.run/","en-US,en;q=0.9,de-DE;q=0.8,de;q=0.7","2tnz3m9qzcx4zbb","28","[""Black or African-American""]","No","Male","1564207.5999999642","null","","<p></p>","null","rating","ctd","repulsion_2","1","televisions","null","null","null","null","null","null","2","","","","","","","","","",""
"","","","","","rating_trial","survey-html-form","70","1108019","0.0-3.0-1.33","39","1","2025-04-11 14:11:53","bb671e3ae32f654b8954ea4c4635f915","","Mozilla/5.0 (Windows NT 10.0; Win64; x64) AppleWebKit/537.36 (KHTML, like Gecko) Chrome/135.0.0.0 Safari/537.36","WebKit","Chrome","135.0.0.0","Windows","10.0","https://hz8g1ckzuq.cognition.run/","en-US,en;q=0.9,de-DE;q=0.8,de;q=0.7","2tnz3m9qzcx4zbb","28","[""Black or African-American""]","No","Male","1564207.5999999642","23659","","","{""price_1"":""300"",""price_2"":""275"",""price_3"":""265""}","rating","ctd","repulsion_2","1","televisions","null","null","null","null","null","null","2","100","90","100","30","40","20","Screen size","Average lifespan","",""
"","","","","","rating_trial_setup","html-keyboard-response","71","1108322","0.0-3.0-0.34","39","1","2025-04-11 14:11:53","bb671e3ae32f654b8954ea4c4635f915","","Mozilla/5.0 (Windows NT 10.0; Win64; x64) AppleWebKit/537.36 (KHTML, like Gecko) Chrome/135.0.0.0 Safari/537.36","WebKit","Chrome","135.0.0.0","Windows","10.0","https://hz8g1ckzuq.cognition.run/","en-US,en;q=0.9,de-DE;q=0.8,de;q=0.7","2tnz3m9qzcx4zbb","28","[""Black or African-American""]","No","Male","1564207.5999999642","null","","<p></p>","null","rating","cdt","attraction_2","1","televisions","null","null","null","null","null","null","2","","","","","","","","","",""
"","","","","","rating_trial","survey-html-form","72","1127943","0.0-3.0-1.34","39","1","2025-04-11 14:11:53","bb671e3ae32f654b8954ea4c4635f915","","Mozilla/5.0 (Windows NT 10.0; Win64; x64) AppleWebKit/537.36 (KHTML, like Gecko) Chrome/135.0.0.0 Safari/537.36","WebKit","Chrome","135.0.0.0","Windows","10.0","https://hz8g1ckzuq.cognition.run/","en-US,en;q=0.9,de-DE;q=0.8,de;q=0.7","2tnz3m9qzcx4zbb","28","[""Black or African-American""]","No","Male","1564207.5999999642","19619","","","{""price_1"":""245"",""price_2"":""210"",""price_3"":""275""}","rating","cdt","attraction_2","1","televisions","null","null","null","null","null","null","2","60","50","60","50","60","40","Screen size","Average lifespan","",""
"","","","","","rating_trial_setup","html-keyboard-response","73","1128245","0.0-3.0-0.35","39","1","2025-04-11 14:11:53","bb671e3ae32f654b8954ea4c4635f915","","Mozilla/5.0 (Windows NT 10.0; Win64; x64) AppleWebKit/537.36 (KHTML, like Gecko) Chrome/135.0.0.0 Safari/537.36","WebKit","Chrome","135.0.0.0","Windows","10.0","https://hz8g1ckzuq.cognition.run/","en-US,en;q=0.9,de-DE;q=0.8,de;q=0.7","2tnz3m9qzcx4zbb","28","[""Black or African-American""]","No","Male","1564207.5999999642","null","","<p></p>","null","rating","dtc","attraction_2","2","laptops","null","null","null","null","null","null","2","","","","","","","","","",""
"","","","","","rating_trial","survey-html-form","74","1149681","0.0-3.0-1.35","39","1","2025-04-11 14:11:53","bb671e3ae32f654b8954ea4c4635f915","","Mozilla/5.0 (Windows NT 10.0; Win64; x64) AppleWebKit/537.36 (KHTML, like Gecko) Chrome/135.0.0.0 Safari/537.36","WebKit","Chrome","135.0.0.0","Windows","10.0","https://hz8g1ckzuq.cognition.run/","en-US,en;q=0.9,de-DE;q=0.8,de;q=0.7","2tnz3m9qzcx4zbb","28","[""Black or African-American""]","No","Male","1564207.5999999642","21434","","","{""price_1"":""220"",""price_2"":""285"",""price_3"":""320""}","rating","dtc","attraction_2","2","laptops","null","null","null","null","null","null","2","50","60","40","60","50","60","Processing speed","Memory (RAM)","",""
"","","","","","rating_trial_setup","html-keyboard-response","75","1149983","0.0-3.0-0.36","39","1","2025-04-11 14:11:53","bb671e3ae32f654b8954ea4c4635f915","","Mozilla/5.0 (Windows NT 10.0; Win64; x64) AppleWebKit/537.36 (KHTML, like Gecko) Chrome/135.0.0.0 Safari/537.36","WebKit","Chrome","135.0.0.0","Windows","10.0","https://hz8g1ckzuq.cognition.run/","en-US,en;q=0.9,de-DE;q=0.8,de;q=0.7","2tnz3m9qzcx4zbb","28","[""Black or African-American""]","No","Male","1564207.5999999642","null","","<p></p>","null","rating","dtc","repulsion_1","2","televisions","null","null","null","null","null","null","2","","","","","","","","","",""
"","","","","","rating_trial","survey-html-form","76","1180737","0.0-3.0-1.36","39","1","2025-04-11 14:11:53","bb671e3ae32f654b8954ea4c4635f915","","Mozilla/5.0 (Windows NT 10.0; Win64; x64) AppleWebKit/537.36 (KHTML, like Gecko) Chrome/135.0.0.0 Safari/537.36","WebKit","Chrome","135.0.0.0","Windows","10.0","https://hz8g1ckzuq.cognition.run/","en-US,en;q=0.9,de-DE;q=0.8,de;q=0.7","2tnz3m9qzcx4zbb","28","[""Black or African-American""]","No","Male","1564207.5999999642","30753","","","{""price_1"":""125"",""price_2"":""165"",""price_3"":""195""}","rating","dtc","repulsion_1","2","televisions","null","null","null","null","null","null","2","30","40","25","100","90","100","Screen size","Average lifespan","",""
"","","","","","rating_trial_setup","html-keyboard-response","77","1181040","0.0-3.0-0.37","39","1","2025-04-11 14:11:53","bb671e3ae32f654b8954ea4c4635f915","","Mozilla/5.0 (Windows NT 10.0; Win64; x64) AppleWebKit/537.36 (KHTML, like Gecko) Chrome/135.0.0.0 Safari/537.36","WebKit","Chrome","135.0.0.0","Windows","10.0","https://hz8g1ckzuq.cognition.run/","en-US,en;q=0.9,de-DE;q=0.8,de;q=0.7","2tnz3m9qzcx4zbb","28","[""Black or African-American""]","No","Male","1564207.5999999642","null","","<p></p>","null","rating","tcd","attraction_1","1","televisions","null","null","null","null","null","null","1","","","","","","","","","",""
"","","","","","rating_trial","survey-html-form","78","1214048","0.0-3.0-1.37","39","1","2025-04-11 14:11:53","bb671e3ae32f654b8954ea4c4635f915","","Mozilla/5.0 (Windows NT 10.0; Win64; x64) AppleWebKit/537.36 (KHTML, like Gecko) Chrome/135.0.0.0 Safari/537.36","WebKit","Chrome","135.0.0.0","Windows","10.0","https://hz8g1ckzuq.cognition.run/","en-US,en;q=0.9,de-DE;q=0.8,de;q=0.7","2tnz3m9qzcx4zbb","28","[""Black or African-American""]","No","Male","1564207.5999999642","33006","","","{""price_1"":""200"",""price_2"":""175"",""price_3"":""180""}","rating","tcd","attraction_1","1","televisions","null","null","null","null","null","null","1","60","50","60","50","60","45","Screen size","Average lifespan","",""
"","","","","","rating_trial_setup","html-keyboard-response","79","1214350","0.0-3.0-0.38","39","1","2025-04-11 14:11:53","bb671e3ae32f654b8954ea4c4635f915","","Mozilla/5.0 (Windows NT 10.0; Win64; x64) AppleWebKit/537.36 (KHTML, like Gecko) Chrome/135.0.0.0 Safari/537.36","WebKit","Chrome","135.0.0.0","Windows","10.0","https://hz8g1ckzuq.cognition.run/","en-US,en;q=0.9,de-DE;q=0.8,de;q=0.7","2tnz3m9qzcx4zbb","28","[""Black or African-American""]","No","Male","1564207.5999999642","null","","<p></p>","null","rating","tdc","attraction_1","2","televisions","null","null","null","null","null","null","2","","","","","","","","","",""
"","","","","","rating_trial","survey-html-form","80","1228854","0.0-3.0-1.38","39","1","2025-04-11 14:11:53","bb671e3ae32f654b8954ea4c4635f915","","Mozilla/5.0 (Windows NT 10.0; Win64; x64) AppleWebKit/537.36 (KHTML, like Gecko) Chrome/135.0.0.0 Safari/537.36","WebKit","Chrome","135.0.0.0","Windows","10.0","https://hz8g1ckzuq.cognition.run/","en-US,en;q=0.9,de-DE;q=0.8,de;q=0.7","2tnz3m9qzcx4zbb","28","[""Black or African-American""]","No","Male","1564207.5999999642","14502","","","{""price_1"":""200"",""price_2"":""170"",""price_3"":""185""}","rating","tdc","attraction_1","2","televisions","null","null","null","null","null","null","2","50","60","45","60","50","60","Screen size","Average lifespan","",""
"","","","","","rating_trial_setup","html-keyboard-response","81","1229156","0.0-3.0-0.39","39","1","2025-04-11 14:11:53","bb671e3ae32f654b8954ea4c4635f915","","Mozilla/5.0 (Windows NT 10.0; Win64; x64) AppleWebKit/537.36 (KHTML, like Gecko) Chrome/135.0.0.0 Safari/537.36","WebKit","Chrome","135.0.0.0","Windows","10.0","https://hz8g1ckzuq.cognition.run/","en-US,en;q=0.9,de-DE;q=0.8,de;q=0.7","2tnz3m9qzcx4zbb","28","[""Black or African-American""]","No","Male","1564207.5999999642","null","","<p></p>","null","rating","ctd","repulsion_2","1","washing machines","null","null","null","null","null","null","2","","","","","","","","","",""
"","","","","","rating_trial","survey-html-form","82","1252002","0.0-3.0-1.39","39","1","2025-04-11 14:11:53","bb671e3ae32f654b8954ea4c4635f915","","Mozilla/5.0 (Windows NT 10.0; Win64; x64) AppleWebKit/537.36 (KHTML, like Gecko) Chrome/135.0.0.0 Safari/537.36","WebKit","Chrome","135.0.0.0","Windows","10.0","https://hz8g1ckzuq.cognition.run/","en-US,en;q=0.9,de-DE;q=0.8,de;q=0.7","2tnz3m9qzcx4zbb","28","[""Black or African-American""]","No","Male","1564207.5999999642","22844","","","{""price_1"":""265"",""price_2"":""285"",""price_3"":""270""}","rating","ctd","repulsion_2","1","washing machines","null","null","null","null","null","null","2","100","90","100","30","40","20","Average lifespan","Energy savings","",""
"","","","","","","instructions","83","1262222","0.0-4.0","39","1","2025-04-11 14:11:53","bb671e3ae32f654b8954ea4c4635f915","","Mozilla/5.0 (Windows NT 10.0; Win64; x64) AppleWebKit/537.36 (KHTML, like Gecko) Chrome/135.0.0.0 Safari/537.36","WebKit","Chrome","135.0.0.0","Windows","10.0","https://hz8g1ckzuq.cognition.run/","en-US,en;q=0.9,de-DE;q=0.8,de;q=0.7","2tnz3m9qzcx4zbb","28","[""Black or African-American""]","No","Male","1564207.5999999642","10218","[{""page_index"":0,""viewing_time"":1887},{""page_index"":1,""viewing_time"":603},{""page_index"":2,""viewing_time"":1136},{""page_index"":3,""viewing_time"":1244},{""page_index"":4,""viewing_time"":1375},{""page_index"":5,""viewing_time"":1257},{""page_index"":6,""viewing_time"":1560},{""page_index"":7,""viewing_time"":1157}]","","","","","","","","","","","","","","","","","","","","","","","",""
"","","","","","choice_trial_setup","html-keyboard-response","84","1262524","0.0-5.0-0.0","39","1","2025-04-11 14:11:53","bb671e3ae32f654b8954ea4c4635f915","","Mozilla/5.0 (Windows NT 10.0; Win64; x64) AppleWebKit/537.36 (KHTML, like Gecko) Chrome/135.0.0.0 Safari/537.36","WebKit","Chrome","135.0.0.0","Windows","10.0","https://hz8g1ckzuq.cognition.run/","en-US,en;q=0.9,de-DE;q=0.8,de;q=0.7","2tnz3m9qzcx4zbb","28","[""Black or African-American""]","No","Male","1564207.5999999642","null","","<p></p>","null","choice","wbw","catch","null","microwave ovens","55","60","50","5","15","30","2","","","","","","","","","",""
"","","","","","choice_trial","survey-html-form","85","1266032","0.0-5.0-1.0","39","1","2025-04-11 14:11:53","bb671e3ae32f654b8954ea4c4635f915","","Mozilla/5.0 (Windows NT 10.0; Win64; x64) AppleWebKit/537.36 (KHTML, like Gecko) Chrome/135.0.0.0 Safari/537.36","WebKit","Chrome","135.0.0.0","Windows","10.0","https://hz8g1ckzuq.cognition.run/","en-US,en;q=0.9,de-DE;q=0.8,de;q=0.7","2tnz3m9qzcx4zbb","28","[""Black or African-American""]","No","Male","1564207.5999999642","3505","","","{""product_choice"":""B""}","choice","wbw","catch","null","microwave ovens","55","60","50","5","15","30","2","null","null","null","null","null","null","Warranty","Cooking power","",""
"","","","","","choice_trial_setup","html-keyboard-response","86","1266335","0.0-5.0-0.1","39","1","2025-04-11 14:11:53","bb671e3ae32f654b8954ea4c4635f915","","Mozilla/5.0 (Windows NT 10.0; Win64; x64) AppleWebKit/537.36 (KHTML, like Gecko) Chrome/135.0.0.0 Safari/537.36","WebKit","Chrome","135.0.0.0","Windows","10.0","https://hz8g1ckzuq.cognition.run/","en-US,en;q=0.9,de-DE;q=0.8,de;q=0.7","2tnz3m9qzcx4zbb","28","[""Black or African-American""]","No","Male","1564207.5999999642","null","","<p></p>","null","choice","ctd","attraction_1","2","microwave ovens","null","null","null","null","null","null","1","","","","","","","","","",""
"","","","","","choice_trial","survey-html-form","87","1272146","0.0-5.0-1.1","39","1","2025-04-11 14:11:53","bb671e3ae32f654b8954ea4c4635f915","","Mozilla/5.0 (Windows NT 10.0; Win64; x64) AppleWebKit/537.36 (KHTML, like Gecko) Chrome/135.0.0.0 Safari/537.36","WebKit","Chrome","135.0.0.0","Windows","10.0","https://hz8g1ckzuq.cognition.run/","en-US,en;q=0.9,de-DE;q=0.8,de;q=0.7","2tnz3m9qzcx4zbb","28","[""Black or African-American""]","No","Male","1564207.5999999642","5809","","","{""product_choice"":""B""}","choice","ctd","attraction_1","2","microwave ovens","null","null","null","null","null","null","1","50","60","45","60","50","60","Warranty","Cooking power","",""
"","","","","","choice_trial_setup","html-keyboard-response","88","1272447","0.0-5.0-0.2","39","1","2025-04-11 14:11:53","bb671e3ae32f654b8954ea4c4635f915","","Mozilla/5.0 (Windows NT 10.0; Win64; x64) AppleWebKit/537.36 (KHTML, like Gecko) Chrome/135.0.0.0 Safari/537.36","WebKit","Chrome","135.0.0.0","Windows","10.0","https://hz8g1ckzuq.cognition.run/","en-US,en;q=0.9,de-DE;q=0.8,de;q=0.7","2tnz3m9qzcx4zbb","28","[""Black or African-American""]","No","Male","1564207.5999999642","null","","<p></p>","null","choice","ctd","repulsion_1","1","washing machines","null","null","null","null","null","null","1","","","","","","","","","",""
"","","","","","choice_trial","survey-html-form","89","1276414","0.0-5.0-1.2","39","1","2025-04-11 14:11:53","bb671e3ae32f654b8954ea4c4635f915","","Mozilla/5.0 (Windows NT 10.0; Win64; x64) AppleWebKit/537.36 (KHTML, like Gecko) Chrome/135.0.0.0 Safari/537.36","WebKit","Chrome","135.0.0.0","Windows","10.0","https://hz8g1ckzuq.cognition.run/","en-US,en;q=0.9,de-DE;q=0.8,de;q=0.7","2tnz3m9qzcx4zbb","28","[""Black or African-American""]","No","Male","1564207.5999999642","3966","","","{""product_choice"":""B""}","choice","ctd","repulsion_1","1","washing machines","null","null","null","null","null","null","1","100","90","100","30","40","25","Average lifespan","Energy savings","",""
"","","","","","choice_trial_setup","html-keyboard-response","90","1276717","0.0-5.0-0.3","39","1","2025-04-11 14:11:53","bb671e3ae32f654b8954ea4c4635f915","","Mozilla/5.0 (Windows NT 10.0; Win64; x64) AppleWebKit/537.36 (KHTML, like Gecko) Chrome/135.0.0.0 Safari/537.36","WebKit","Chrome","135.0.0.0","Windows","10.0","https://hz8g1ckzuq.cognition.run/","en-US,en;q=0.9,de-DE;q=0.8,de;q=0.7","2tnz3m9qzcx4zbb","28","[""Black or African-American""]","No","Male","1564207.5999999642","null","","<p></p>","null","choice","tdc","repulsion_2","2","washing machines","null","null","null","null","null","null","1","","","","","","","","","",""
"","","","","","choice_trial","survey-html-form","91","1280226","0.0-5.0-1.3","39","1","2025-04-11 14:11:53","bb671e3ae32f654b8954ea4c4635f915","","Mozilla/5.0 (Windows NT 10.0; Win64; x64) AppleWebKit/537.36 (KHTML, like Gecko) Chrome/135.0.0.0 Safari/537.36","WebKit","Chrome","135.0.0.0","Windows","10.0","https://hz8g1ckzuq.cognition.run/","en-US,en;q=0.9,de-DE;q=0.8,de;q=0.7","2tnz3m9qzcx4zbb","28","[""Black or African-American""]","No","Male","1564207.5999999642","3507","","","{""product_choice"":""C""}","choice","tdc","repulsion_2","2","washing machines","null","null","null","null","null","null","1","30","40","20","100","90","100","Average lifespan","Energy savings","",""
"","","","","","choice_trial_setup","html-keyboard-response","92","1280528","0.0-5.0-0.4","39","1","2025-04-11 14:11:53","bb671e3ae32f654b8954ea4c4635f915","","Mozilla/5.0 (Windows NT 10.0; Win64; x64) AppleWebKit/537.36 (KHTML, like Gecko) Chrome/135.0.0.0 Safari/537.36","WebKit","Chrome","135.0.0.0","Windows","10.0","https://hz8g1ckzuq.cognition.run/","en-US,en;q=0.9,de-DE;q=0.8,de;q=0.7","2tnz3m9qzcx4zbb","28","[""Black or African-American""]","No","Male","1564207.5999999642","null","","<p></p>","null","choice","ctd","repulsion_2","1","microwave ovens","null","null","null","null","null","null","2","","","","","","","","","",""
"","","","","","choice_trial","survey-html-form","93","1283375","0.0-5.0-1.4","39","1","2025-04-11 14:11:53","bb671e3ae32f654b8954ea4c4635f915","","Mozilla/5.0 (Windows NT 10.0; Win64; x64) AppleWebKit/537.36 (KHTML, like Gecko) Chrome/135.0.0.0 Safari/537.36","WebKit","Chrome","135.0.0.0","Windows","10.0","https://hz8g1ckzuq.cognition.run/","en-US,en;q=0.9,de-DE;q=0.8,de;q=0.7","2tnz3m9qzcx4zbb","28","[""Black or African-American""]","No","Male","1564207.5999999642","2845","","","{""product_choice"":""A""}","choice","ctd","repulsion_2","1","microwave ovens","null","null","null","null","null","null","2","100","90","100","30","40","20","Warranty","Cooking power","",""
"","","","","","choice_trial_setup","html-keyboard-response","94","1283677","0.0-5.0-0.5","39","1","2025-04-11 14:11:53","bb671e3ae32f654b8954ea4c4635f915","","Mozilla/5.0 (Windows NT 10.0; Win64; x64) AppleWebKit/537.36 (KHTML, like Gecko) Chrome/135.0.0.0 Safari/537.36","WebKit","Chrome","135.0.0.0","Windows","10.0","https://hz8g1ckzuq.cognition.run/","en-US,en;q=0.9,de-DE;q=0.8,de;q=0.7","2tnz3m9qzcx4zbb","28","[""Black or African-American""]","No","Male","1564207.5999999642","null","","<p></p>","null","choice","dct","attraction_2","1","laptops","null","null","null","null","null","null","2","","","","","","","","","",""
"","","","","","choice_trial","survey-html-form","95","1288501","0.0-5.0-1.5","39","1","2025-04-11 14:11:53","bb671e3ae32f654b8954ea4c4635f915","","Mozilla/5.0 (Windows NT 10.0; Win64; x64) AppleWebKit/537.36 (KHTML, like Gecko) Chrome/135.0.0.0 Safari/537.36","WebKit","Chrome","135.0.0.0","Windows","10.0","https://hz8g1ckzuq.cognition.run/","en-US,en;q=0.9,de-DE;q=0.8,de;q=0.7","2tnz3m9qzcx4zbb","28","[""Black or African-American""]","No","Male","1564207.5999999642","4823","","","{""product_choice"":""C""}","choice","dct","attraction_2","1","laptops","null","null","null","null","null","null","2","60","50","60","50","60","40","Processing speed","Memory (RAM)","",""
"","","","","","choice_trial_setup","html-keyboard-response","96","1288804","0.0-5.0-0.6","39","1","2025-04-11 14:11:53","bb671e3ae32f654b8954ea4c4635f915","","Mozilla/5.0 (Windows NT 10.0; Win64; x64) AppleWebKit/537.36 (KHTML, like Gecko) Chrome/135.0.0.0 Safari/537.36","WebKit","Chrome","135.0.0.0","Windows","10.0","https://hz8g1ckzuq.cognition.run/","en-US,en;q=0.9,de-DE;q=0.8,de;q=0.7","2tnz3m9qzcx4zbb","28","[""Black or African-American""]","No","Male","1564207.5999999642","null","","<p></p>","null","choice","dtc","repulsion_1","1","laptops","null","null","null","null","null","null","2","","","","","","","","","",""
"","","","","","choice_trial","survey-html-form","97","1292445","0.0-5.0-1.6","39","1","2025-04-11 14:11:53","bb671e3ae32f654b8954ea4c4635f915","","Mozilla/5.0 (Windows NT 10.0; Win64; x64) AppleWebKit/537.36 (KHTML, like Gecko) Chrome/135.0.0.0 Safari/537.36","WebKit","Chrome","135.0.0.0","Windows","10.0","https://hz8g1ckzuq.cognition.run/","en-US,en;q=0.9,de-DE;q=0.8,de;q=0.7","2tnz3m9qzcx4zbb","28","[""Black or African-American""]","No","Male","1564207.5999999642","3639","","","{""product_choice"":""B""}","choice","dtc","repulsion_1","1","laptops","null","null","null","null","null","null","2","100","90","100","30","40","25","Processing speed","Memory (RAM)","",""
"","","","","","choice_trial_setup","html-keyboard-response","98","1292747","0.0-5.0-0.7","39","1","2025-04-11 14:11:53","bb671e3ae32f654b8954ea4c4635f915","","Mozilla/5.0 (Windows NT 10.0; Win64; x64) AppleWebKit/537.36 (KHTML, like Gecko) Chrome/135.0.0.0 Safari/537.36","WebKit","Chrome","135.0.0.0","Windows","10.0","https://hz8g1ckzuq.cognition.run/","en-US,en;q=0.9,de-DE;q=0.8,de;q=0.7","2tnz3m9qzcx4zbb","28","[""Black or African-American""]","No","Male","1564207.5999999642","null","","<p></p>","null","choice","wbw","catch","null","laptops","65","90","5","35","20","25","1","","","","","","","","","",""
"","","","","","choice_trial","survey-html-form","99","1296552","0.0-5.0-1.7","39","1","2025-04-11 14:11:53","bb671e3ae32f654b8954ea4c4635f915","","Mozilla/5.0 (Windows NT 10.0; Win64; x64) AppleWebKit/537.36 (KHTML, like Gecko) Chrome/135.0.0.0 Safari/537.36","WebKit","Chrome","135.0.0.0","Windows","10.0","https://hz8g1ckzuq.cognition.run/","en-US,en;q=0.9,de-DE;q=0.8,de;q=0.7","2tnz3m9qzcx4zbb","28","[""Black or African-American""]","No","Male","1564207.5999999642","3803","","","{""product_choice"":""B""}","choice","wbw","catch","null","laptops","65","90","5","35","20","25","1","null","null","null","null","null","null","Processing speed","Memory (RAM)","",""
"","","","","","choice_trial_setup","html-keyboard-response","100","1296853","0.0-5.0-0.8","39","1","2025-04-11 14:11:53","bb671e3ae32f654b8954ea4c4635f915","","Mozilla/5.0 (Windows NT 10.0; Win64; x64) AppleWebKit/537.36 (KHTML, like Gecko) Chrome/135.0.0.0 Safari/537.36","WebKit","Chrome","135.0.0.0","Windows","10.0","https://hz8g1ckzuq.cognition.run/","en-US,en;q=0.9,de-DE;q=0.8,de;q=0.7","2tnz3m9qzcx4zbb","28","[""Black or African-American""]","No","Male","1564207.5999999642","null","","<p></p>","null","choice","cdt","attraction_1","1","laptops","null","null","null","null","null","null","1","","","","","","","","","",""
"","","","","","choice_trial","survey-html-form","101","1301094","0.0-5.0-1.8","39","1","2025-04-11 14:11:53","bb671e3ae32f654b8954ea4c4635f915","","Mozilla/5.0 (Windows NT 10.0; Win64; x64) AppleWebKit/537.36 (KHTML, like Gecko) Chrome/135.0.0.0 Safari/537.36","WebKit","Chrome","135.0.0.0","Windows","10.0","https://hz8g1ckzuq.cognition.run/","en-US,en;q=0.9,de-DE;q=0.8,de;q=0.7","2tnz3m9qzcx4zbb","28","[""Black or African-American""]","No","Male","1564207.5999999642","4239","","","{""product_choice"":""C""}","choice","cdt","attraction_1","1","laptops","null","null","null","null","null","null","1","60","50","60","50","60","45","Processing speed","Memory (RAM)","",""
"","","","","","choice_trial_setup","html-keyboard-response","102","1301396","0.0-5.0-0.9","39","1","2025-04-11 14:11:53","bb671e3ae32f654b8954ea4c4635f915","","Mozilla/5.0 (Windows NT 10.0; Win64; x64) AppleWebKit/537.36 (KHTML, like Gecko) Chrome/135.0.0.0 Safari/537.36","WebKit","Chrome","135.0.0.0","Windows","10.0","https://hz8g1ckzuq.cognition.run/","en-US,en;q=0.9,de-DE;q=0.8,de;q=0.7","2tnz3m9qzcx4zbb","28","[""Black or African-American""]","No","Male","1564207.5999999642","null","","<p></p>","null","choice","cdt","attraction_2","2","televisions","null","null","null","null","null","null","2","","","","","","","","","",""
"","","","","","choice_trial","survey-html-form","103","1305067","0.0-5.0-1.9","39","1","2025-04-11 14:11:53","bb671e3ae32f654b8954ea4c4635f915","","Mozilla/5.0 (Windows NT 10.0; Win64; x64) AppleWebKit/537.36 (KHTML, like Gecko) Chrome/135.0.0.0 Safari/537.36","WebKit","Chrome","135.0.0.0","Windows","10.0","https://hz8g1ckzuq.cognition.run/","en-US,en;q=0.9,de-DE;q=0.8,de;q=0.7","2tnz3m9qzcx4zbb","28","[""Black or African-American""]","No","Male","1564207.5999999642","3670","","","{""product_choice"":""A""}","choice","cdt","attraction_2","2","televisions","null","null","null","null","null","null","2","50","60","40","60","50","60","Screen size","Average lifespan","",""
"","","","","","choice_trial_setup","html-keyboard-response","104","1305370","0.0-5.0-0.10","39","1","2025-04-11 14:11:53","bb671e3ae32f654b8954ea4c4635f915","","Mozilla/5.0 (Windows NT 10.0; Win64; x64) AppleWebKit/537.36 (KHTML, like Gecko) Chrome/135.0.0.0 Safari/537.36","WebKit","Chrome","135.0.0.0","Windows","10.0","https://hz8g1ckzuq.cognition.run/","en-US,en;q=0.9,de-DE;q=0.8,de;q=0.7","2tnz3m9qzcx4zbb","28","[""Black or African-American""]","No","Male","1564207.5999999642","null","","<p></p>","null","choice","tdc","attraction_1","1","televisions","null","null","null","null","null","null","1","","","","","","","","","",""
"","","","","","choice_trial","survey-html-form","105","1309207","0.0-5.0-1.10","39","1","2025-04-11 14:11:53","bb671e3ae32f654b8954ea4c4635f915","","Mozilla/5.0 (Windows NT 10.0; Win64; x64) AppleWebKit/537.36 (KHTML, like Gecko) Chrome/135.0.0.0 Safari/537.36","WebKit","Chrome","135.0.0.0","Windows","10.0","https://hz8g1ckzuq.cognition.run/","en-US,en;q=0.9,de-DE;q=0.8,de;q=0.7","2tnz3m9qzcx4zbb","28","[""Black or African-American""]","No","Male","1564207.5999999642","3836","","","{""product_choice"":""A""}","choice","tdc","attraction_1","1","televisions","null","null","null","null","null","null","1","60","50","60","50","60","45","Screen size","Average lifespan","",""
"","","","","","choice_trial_setup","html-keyboard-response","106","1309509","0.0-5.0-0.11","39","1","2025-04-11 14:11:53","bb671e3ae32f654b8954ea4c4635f915","","Mozilla/5.0 (Windows NT 10.0; Win64; x64) AppleWebKit/537.36 (KHTML, like Gecko) Chrome/135.0.0.0 Safari/537.36","WebKit","Chrome","135.0.0.0","Windows","10.0","https://hz8g1ckzuq.cognition.run/","en-US,en;q=0.9,de-DE;q=0.8,de;q=0.7","2tnz3m9qzcx4zbb","28","[""Black or African-American""]","No","Male","1564207.5999999642","null","","<p></p>","null","choice","bww","catch","null","laptops","80","80","20","40","35","10","2","","","","","","","","","",""
"","","","","","choice_trial","survey-html-form","107","1313031","0.0-5.0-1.11","39","1","2025-04-11 14:11:53","bb671e3ae32f654b8954ea4c4635f915","","Mozilla/5.0 (Windows NT 10.0; Win64; x64) AppleWebKit/537.36 (KHTML, like Gecko) Chrome/135.0.0.0 Safari/537.36","WebKit","Chrome","135.0.0.0","Windows","10.0","https://hz8g1ckzuq.cognition.run/","en-US,en;q=0.9,de-DE;q=0.8,de;q=0.7","2tnz3m9qzcx4zbb","28","[""Black or African-American""]","No","Male","1564207.5999999642","3519","","","{""product_choice"":""A""}","choice","bww","catch","null","laptops","80","80","20","40","35","10","2","null","null","null","null","null","null","Processing speed","Memory (RAM)","",""
"","","","","","choice_trial_setup","html-keyboard-response","108","1313333","0.0-5.0-0.12","39","1","2025-04-11 14:11:53","bb671e3ae32f654b8954ea4c4635f915","","Mozilla/5.0 (Windows NT 10.0; Win64; x64) AppleWebKit/537.36 (KHTML, like Gecko) Chrome/135.0.0.0 Safari/537.36","WebKit","Chrome","135.0.0.0","Windows","10.0","https://hz8g1ckzuq.cognition.run/","en-US,en;q=0.9,de-DE;q=0.8,de;q=0.7","2tnz3m9qzcx4zbb","28","[""Black or African-American""]","No","Male","1564207.5999999642","null","","<p></p>","null","choice","ctd","repulsion_1","2","laptops","null","null","null","null","null","null","1","","","","","","","","","",""
"","","","","","choice_trial","survey-html-form","109","1317672","0.0-5.0-1.12","39","1","2025-04-11 14:11:53","bb671e3ae32f654b8954ea4c4635f915","","Mozilla/5.0 (Windows NT 10.0; Win64; x64) AppleWebKit/537.36 (KHTML, like Gecko) Chrome/135.0.0.0 Safari/537.36","WebKit","Chrome","135.0.0.0","Windows","10.0","https://hz8g1ckzuq.cognition.run/","en-US,en;q=0.9,de-DE;q=0.8,de;q=0.7","2tnz3m9qzcx4zbb","28","[""Black or African-American""]","No","Male","1564207.5999999642","4337","","","{""product_choice"":""A""}","choice","ctd","repulsion_1","2","laptops","null","null","null","null","null","null","1","30","40","25","100","90","100","Processing speed","Memory (RAM)","",""
"","","","","","choice_trial_setup","html-keyboard-response","110","1317975","0.0-5.0-0.13","39","1","2025-04-11 14:11:53","bb671e3ae32f654b8954ea4c4635f915","","Mozilla/5.0 (Windows NT 10.0; Win64; x64) AppleWebKit/537.36 (KHTML, like Gecko) Chrome/135.0.0.0 Safari/537.36","WebKit","Chrome","135.0.0.0","Windows","10.0","https://hz8g1ckzuq.cognition.run/","en-US,en;q=0.9,de-DE;q=0.8,de;q=0.7","2tnz3m9qzcx4zbb","28","[""Black or African-American""]","No","Male","1564207.5999999642","null","","<p></p>","null","choice","tcd","attraction_2","1","microwave ovens","null","null","null","null","null","null","2","","","","","","","","","",""
"","","","","","choice_trial","survey-html-form","111","1320873","0.0-5.0-1.13","39","1","2025-04-11 14:11:53","bb671e3ae32f654b8954ea4c4635f915","","Mozilla/5.0 (Windows NT 10.0; Win64; x64) AppleWebKit/537.36 (KHTML, like Gecko) Chrome/135.0.0.0 Safari/537.36","WebKit","Chrome","135.0.0.0","Windows","10.0","https://hz8g1ckzuq.cognition.run/","en-US,en;q=0.9,de-DE;q=0.8,de;q=0.7","2tnz3m9qzcx4zbb","28","[""Black or African-American""]","No","Male","1564207.5999999642","2896","","","{""product_choice"":""B""}","choice","tcd","attraction_2","1","microwave ovens","null","null","null","null","null","null","2","60","50","60","50","60","40","Warranty","Cooking power","",""
"","","","","","choice_trial_setup","html-keyboard-response","112","1321176","0.0-5.0-0.14","39","1","2025-04-11 14:11:53","bb671e3ae32f654b8954ea4c4635f915","","Mozilla/5.0 (Windows NT 10.0; Win64; x64) AppleWebKit/537.36 (KHTML, like Gecko) Chrome/135.0.0.0 Safari/537.36","WebKit","Chrome","135.0.0.0","Windows","10.0","https://hz8g1ckzuq.cognition.run/","en-US,en;q=0.9,de-DE;q=0.8,de;q=0.7","2tnz3m9qzcx4zbb","28","[""Black or African-American""]","No","Male","1564207.5999999642","null","","<p></p>","null","choice","dtc","repulsion_1","1","televisions","null","null","null","null","null","null","1","","","","","","","","","",""
"","","","","","choice_trial","survey-html-form","113","1323564","0.0-5.0-1.14","39","1","2025-04-11 14:11:53","bb671e3ae32f654b8954ea4c4635f915","","Mozilla/5.0 (Windows NT 10.0; Win64; x64) AppleWebKit/537.36 (KHTML, like Gecko) Chrome/135.0.0.0 Safari/537.36","WebKit","Chrome","135.0.0.0","Windows","10.0","https://hz8g1ckzuq.cognition.run/","en-US,en;q=0.9,de-DE;q=0.8,de;q=0.7","2tnz3m9qzcx4zbb","28","[""Black or African-American""]","No","Male","1564207.5999999642","2386","","","{""product_choice"":""B""}","choice","dtc","repulsion_1","1","televisions","null","null","null","null","null","null","1","100","90","100","30","40","25","Screen size","Average lifespan","",""
"","","","","","choice_trial_setup","html-keyboard-response","114","1323867","0.0-5.0-0.15","39","1","2025-04-11 14:11:53","bb671e3ae32f654b8954ea4c4635f915","","Mozilla/5.0 (Windows NT 10.0; Win64; x64) AppleWebKit/537.36 (KHTML, like Gecko) Chrome/135.0.0.0 Safari/537.36","WebKit","Chrome","135.0.0.0","Windows","10.0","https://hz8g1ckzuq.cognition.run/","en-US,en;q=0.9,de-DE;q=0.8,de;q=0.7","2tnz3m9qzcx4zbb","28","[""Black or African-American""]","No","Male","1564207.5999999642","null","","<p></p>","null","choice","tdc","attraction_2","2","washing machines","null","null","null","null","null","null","1","","","","","","","","","",""
"","","","","","choice_trial","survey-html-form","115","1327686","0.0-5.0-1.15","39","1","2025-04-11 14:11:53","bb671e3ae32f654b8954ea4c4635f915","","Mozilla/5.0 (Windows NT 10.0; Win64; x64) AppleWebKit/537.36 (KHTML, like Gecko) Chrome/135.0.0.0 Safari/537.36","WebKit","Chrome","135.0.0.0","Windows","10.0","https://hz8g1ckzuq.cognition.run/","en-US,en;q=0.9,de-DE;q=0.8,de;q=0.7","2tnz3m9qzcx4zbb","28","[""Black or African-American""]","No","Male","1564207.5999999642","3817","","","{""product_choice"":""C""}","choice","tdc","attraction_2","2","washing machines","null","null","null","null","null","null","1","50","60","40","60","50","60","Average lifespan","Energy savings","",""
"","","","","","choice_trial_setup","html-keyboard-response","116","1327989","0.0-5.0-0.16","39","1","2025-04-11 14:11:53","bb671e3ae32f654b8954ea4c4635f915","","Mozilla/5.0 (Windows NT 10.0; Win64; x64) AppleWebKit/537.36 (KHTML, like Gecko) Chrome/135.0.0.0 Safari/537.36","WebKit","Chrome","135.0.0.0","Windows","10.0","https://hz8g1ckzuq.cognition.run/","en-US,en;q=0.9,de-DE;q=0.8,de;q=0.7","2tnz3m9qzcx4zbb","28","[""Black or African-American""]","No","Male","1564207.5999999642","null","","<p></p>","null","choice","dct","attraction_1","2","washing machines","null","null","null","null","null","null","1","","","","","","","","","",""
"","","","","","choice_trial","survey-html-form","117","1335224","0.0-5.0-1.16","39","1","2025-04-11 14:11:53","bb671e3ae32f654b8954ea4c4635f915","","Mozilla/5.0 (Windows NT 10.0; Win64; x64) AppleWebKit/537.36 (KHTML, like Gecko) Chrome/135.0.0.0 Safari/537.36","WebKit","Chrome","135.0.0.0","Windows","10.0","https://hz8g1ckzuq.cognition.run/","en-US,en;q=0.9,de-DE;q=0.8,de;q=0.7","2tnz3m9qzcx4zbb","28","[""Black or African-American""]","No","Male","1564207.5999999642","7232","","","{""product_choice"":""B""}","choice","dct","attraction_1","2","washing machines","null","null","null","null","null","null","1","50","60","45","60","50","60","Average lifespan","Energy savings","",""
"","","","","","choice_trial_setup","html-keyboard-response","118","1335526","0.0-5.0-0.17","39","1","2025-04-11 14:11:53","bb671e3ae32f654b8954ea4c4635f915","","Mozilla/5.0 (Windows NT 10.0; Win64; x64) AppleWebKit/537.36 (KHTML, like Gecko) Chrome/135.0.0.0 Safari/537.36","WebKit","Chrome","135.0.0.0","Windows","10.0","https://hz8g1ckzuq.cognition.run/","en-US,en;q=0.9,de-DE;q=0.8,de;q=0.7","2tnz3m9qzcx4zbb","28","[""Black or African-American""]","No","Male","1564207.5999999642","null","","<p></p>","null","choice","tdc","attraction_1","1","microwave ovens","null","null","null","null","null","null","1","","","","","","","","","",""
"","","","","","choice_trial","survey-html-form","119","1337511","0.0-5.0-1.17","39","1","2025-04-11 14:11:53","bb671e3ae32f654b8954ea4c4635f915","","Mozilla/5.0 (Windows NT 10.0; Win64; x64) AppleWebKit/537.36 (KHTML, like Gecko) Chrome/135.0.0.0 Safari/537.36","WebKit","Chrome","135.0.0.0","Windows","10.0","https://hz8g1ckzuq.cognition.run/","en-US,en;q=0.9,de-DE;q=0.8,de;q=0.7","2tnz3m9qzcx4zbb","28","[""Black or African-American""]","No","Male","1564207.5999999642","1983","","","{""product_choice"":""C""}","choice","tdc","attraction_1","1","microwave ovens","null","null","null","null","null","null","1","60","50","60","50","60","45","Warranty","Cooking power","",""
"","","","","","choice_trial_setup","html-keyboard-response","120","1337814","0.0-5.0-0.18","39","1","2025-04-11 14:11:53","bb671e3ae32f654b8954ea4c4635f915","","Mozilla/5.0 (Windows NT 10.0; Win64; x64) AppleWebKit/537.36 (KHTML, like Gecko) Chrome/135.0.0.0 Safari/537.36","WebKit","Chrome","135.0.0.0","Windows","10.0","https://hz8g1ckzuq.cognition.run/","en-US,en;q=0.9,de-DE;q=0.8,de;q=0.7","2tnz3m9qzcx4zbb","28","[""Black or African-American""]","No","Male","1564207.5999999642","null","","<p></p>","null","choice","tcd","repulsion_2","2","microwave ovens","null","null","null","null","null","null","1","","","","","","","","","",""
"","","","","","choice_trial","survey-html-form","121","1340469","0.0-5.0-1.18","39","1","2025-04-11 14:11:53","bb671e3ae32f654b8954ea4c4635f915","","Mozilla/5.0 (Windows NT 10.0; Win64; x64) AppleWebKit/537.36 (KHTML, like Gecko) Chrome/135.0.0.0 Safari/537.36","WebKit","Chrome","135.0.0.0","Windows","10.0","https://hz8g1ckzuq.cognition.run/","en-US,en;q=0.9,de-DE;q=0.8,de;q=0.7","2tnz3m9qzcx4zbb","28","[""Black or African-American""]","No","Male","1564207.5999999642","2653","","","{""product_choice"":""A""}","choice","tcd","repulsion_2","2","microwave ovens","null","null","null","null","null","null","1","30","40","20","100","90","100","Warranty","Cooking power","",""
"","","","","","choice_trial_setup","html-keyboard-response","122","1340772","0.0-5.0-0.19","39","1","2025-04-11 14:11:53","bb671e3ae32f654b8954ea4c4635f915","","Mozilla/5.0 (Windows NT 10.0; Win64; x64) AppleWebKit/537.36 (KHTML, like Gecko) Chrome/135.0.0.0 Safari/537.36","WebKit","Chrome","135.0.0.0","Windows","10.0","https://hz8g1ckzuq.cognition.run/","en-US,en;q=0.9,de-DE;q=0.8,de;q=0.7","2tnz3m9qzcx4zbb","28","[""Black or African-American""]","No","Male","1564207.5999999642","null","","<p></p>","null","choice","bww","catch","null","washing machines","65","60","5","40","15","30","1","","","","","","","","","",""
"","","","","","choice_trial","survey-html-form","123","1343326","0.0-5.0-1.19","39","1","2025-04-11 14:11:53","bb671e3ae32f654b8954ea4c4635f915","","Mozilla/5.0 (Windows NT 10.0; Win64; x64) AppleWebKit/537.36 (KHTML, like Gecko) Chrome/135.0.0.0 Safari/537.36","WebKit","Chrome","135.0.0.0","Windows","10.0","https://hz8g1ckzuq.cognition.run/","en-US,en;q=0.9,de-DE;q=0.8,de;q=0.7","2tnz3m9qzcx4zbb","28","[""Black or African-American""]","No","Male","1564207.5999999642","2552","","","{""product_choice"":""A""}","choice","bww","catch","null","washing machines","65","60","5","40","15","30","1","null","null","null","null","null","null","Average lifespan","Energy savings","",""
"","","","","","choice_trial_setup","html-keyboard-response","124","1343629","0.0-5.0-0.20","39","1","2025-04-11 14:11:53","bb671e3ae32f654b8954ea4c4635f915","","Mozilla/5.0 (Windows NT 10.0; Win64; x64) AppleWebKit/537.36 (KHTML, like Gecko) Chrome/135.0.0.0 Safari/537.36","WebKit","Chrome","135.0.0.0","Windows","10.0","https://hz8g1ckzuq.cognition.run/","en-US,en;q=0.9,de-DE;q=0.8,de;q=0.7","2tnz3m9qzcx4zbb","28","[""Black or African-American""]","No","Male","1564207.5999999642","null","","<p></p>","null","choice","dtc","attraction_1","2","laptops","null","null","null","null","null","null","2","","","","","","","","","",""
"","","","","","choice_trial","survey-html-form","125","1348359","0.0-5.0-1.20","39","1","2025-04-11 14:11:53","bb671e3ae32f654b8954ea4c4635f915","","Mozilla/5.0 (Windows NT 10.0; Win64; x64) AppleWebKit/537.36 (KHTML, like Gecko) Chrome/135.0.0.0 Safari/537.36","WebKit","Chrome","135.0.0.0","Windows","10.0","https://hz8g1ckzuq.cognition.run/","en-US,en;q=0.9,de-DE;q=0.8,de;q=0.7","2tnz3m9qzcx4zbb","28","[""Black or African-American""]","No","Male","1564207.5999999642","4727","","","{""product_choice"":""C""}","choice","dtc","attraction_1","2","laptops","null","null","null","null","null","null","2","50","60","45","60","50","60","Processing speed","Memory (RAM)","",""
"","","","","","choice_trial_setup","html-keyboard-response","126","1348661","0.0-5.0-0.21","39","1","2025-04-11 14:11:53","bb671e3ae32f654b8954ea4c4635f915","","Mozilla/5.0 (Windows NT 10.0; Win64; x64) AppleWebKit/537.36 (KHTML, like Gecko) Chrome/135.0.0.0 Safari/537.36","WebKit","Chrome","135.0.0.0","Windows","10.0","https://hz8g1ckzuq.cognition.run/","en-US,en;q=0.9,de-DE;q=0.8,de;q=0.7","2tnz3m9qzcx4zbb","28","[""Black or African-American""]","No","Male","1564207.5999999642","null","","<p></p>","null","choice","cdt","repulsion_1","2","microwave ovens","null","null","null","null","null","null","1","","","","","","","","","",""
"","","","","","choice_trial","survey-html-form","127","1350857","0.0-5.0-1.21","39","1","2025-04-11 14:11:53","bb671e3ae32f654b8954ea4c4635f915","","Mozilla/5.0 (Windows NT 10.0; Win64; x64) AppleWebKit/537.36 (KHTML, like Gecko) Chrome/135.0.0.0 Safari/537.36","WebKit","Chrome","135.0.0.0","Windows","10.0","https://hz8g1ckzuq.cognition.run/","en-US,en;q=0.9,de-DE;q=0.8,de;q=0.7","2tnz3m9qzcx4zbb","28","[""Black or African-American""]","No","Male","1564207.5999999642","2194","","","{""product_choice"":""C""}","choice","cdt","repulsion_1","2","microwave ovens","null","null","null","null","null","null","1","30","40","25","100","90","100","Warranty","Cooking power","",""
"","","","","","choice_trial_setup","html-keyboard-response","128","1351159","0.0-5.0-0.22","39","1","2025-04-11 14:11:53","bb671e3ae32f654b8954ea4c4635f915","","Mozilla/5.0 (Windows NT 10.0; Win64; x64) AppleWebKit/537.36 (KHTML, like Gecko) Chrome/135.0.0.0 Safari/537.36","WebKit","Chrome","135.0.0.0","Windows","10.0","https://hz8g1ckzuq.cognition.run/","en-US,en;q=0.9,de-DE;q=0.8,de;q=0.7","2tnz3m9qzcx4zbb","28","[""Black or African-American""]","No","Male","1564207.5999999642","null","","<p></p>","null","choice","wbw","catch","null","microwave ovens","80","55","20","25","35","50","2","","","","","","","","","",""
"","","","","","choice_trial","survey-html-form","129","1356028","0.0-5.0-1.22","39","1","2025-04-11 14:11:53","bb671e3ae32f654b8954ea4c4635f915","","Mozilla/5.0 (Windows NT 10.0; Win64; x64) AppleWebKit/537.36 (KHTML, like Gecko) Chrome/135.0.0.0 Safari/537.36","WebKit","Chrome","135.0.0.0","Windows","10.0","https://hz8g1ckzuq.cognition.run/","en-US,en;q=0.9,de-DE;q=0.8,de;q=0.7","2tnz3m9qzcx4zbb","28","[""Black or African-American""]","No","Male","1564207.5999999642","4866","","","{""product_choice"":""B""}","choice","wbw","catch","null","microwave ovens","80","55","20","25","35","50","2","null","null","null","null","null","null","Warranty","Cooking power","",""
"","","","","","choice_trial_setup","html-keyboard-response","130","1356331","0.0-5.0-0.23","39","1","2025-04-11 14:11:53","bb671e3ae32f654b8954ea4c4635f915","","Mozilla/5.0 (Windows NT 10.0; Win64; x64) AppleWebKit/537.36 (KHTML, like Gecko) Chrome/135.0.0.0 Safari/537.36","WebKit","Chrome","135.0.0.0","Windows","10.0","https://hz8g1ckzuq.cognition.run/","en-US,en;q=0.9,de-DE;q=0.8,de;q=0.7","2tnz3m9qzcx4zbb","28","[""Black or African-American""]","No","Male","1564207.5999999642","null","","<p></p>","null","choice","wbw","catch","null","televisions","85","85","50","45","15","25","2","","","","","","","","","",""
"","","","","","choice_trial","survey-html-form","131","1362400","0.0-5.0-1.23","39","1","2025-04-11 14:11:53","bb671e3ae32f654b8954ea4c4635f915","","Mozilla/5.0 (Windows NT 10.0; Win64; x64) AppleWebKit/537.36 (KHTML, like Gecko) Chrome/135.0.0.0 Safari/537.36","WebKit","Chrome","135.0.0.0","Windows","10.0","https://hz8g1ckzuq.cognition.run/","en-US,en;q=0.9,de-DE;q=0.8,de;q=0.7","2tnz3m9qzcx4zbb","28","[""Black or African-American""]","No","Male","1564207.5999999642","6067","","","{""product_choice"":""B""}","choice","wbw","catch","null","televisions","85","85","50","45","15","25","2","null","null","null","null","null","null","Screen size","Average lifespan","",""
"","","","","","choice_trial_setup","html-keyboard-response","132","1362702","0.0-5.0-0.24","39","1","2025-04-11 14:11:53","bb671e3ae32f654b8954ea4c4635f915","","Mozilla/5.0 (Windows NT 10.0; Win64; x64) AppleWebKit/537.36 (KHTML, like Gecko) Chrome/135.0.0.0 Safari/537.36","WebKit","Chrome","135.0.0.0","Windows","10.0","https://hz8g1ckzuq.cognition.run/","en-US,en;q=0.9,de-DE;q=0.8,de;q=0.7","2tnz3m9qzcx4zbb","28","[""Black or African-American""]","No","Male","1564207.5999999642","null","","<p></p>","null","choice","dct","repulsion_2","2","televisions","null","null","null","null","null","null","1","","","","","","","","","",""
"","","","","","choice_trial","survey-html-form","133","1368878","0.0-5.0-1.24","39","1","2025-04-11 14:11:53","bb671e3ae32f654b8954ea4c4635f915","","Mozilla/5.0 (Windows NT 10.0; Win64; x64) AppleWebKit/537.36 (KHTML, like Gecko) Chrome/135.0.0.0 Safari/537.36","WebKit","Chrome","135.0.0.0","Windows","10.0","https://hz8g1ckzuq.cognition.run/","en-US,en;q=0.9,de-DE;q=0.8,de;q=0.7","2tnz3m9qzcx4zbb","28","[""Black or African-American""]","No","Male","1564207.5999999642","6173","","","{""product_choice"":""B""}","choice","dct","repulsion_2","2","televisions","null","null","null","null","null","null","1","30","40","20","100","90","100","Screen size","Average lifespan","",""
"","","","","","choice_trial_setup","html-keyboard-response","134","1369182","0.0-5.0-0.25","39","1","2025-04-11 14:11:53","bb671e3ae32f654b8954ea4c4635f915","","Mozilla/5.0 (Windows NT 10.0; Win64; x64) AppleWebKit/537.36 (KHTML, like Gecko) Chrome/135.0.0.0 Safari/537.36","WebKit","Chrome","135.0.0.0","Windows","10.0","https://hz8g1ckzuq.cognition.run/","en-US,en;q=0.9,de-DE;q=0.8,de;q=0.7","2tnz3m9qzcx4zbb","28","[""Black or African-American""]","No","Male","1564207.5999999642","null","","<p></p>","null","choice","cdt","repulsion_2","2","laptops","null","null","null","null","null","null","1","","","","","","","","","",""
"","","","","","choice_trial","survey-html-form","135","1373493","0.0-5.0-1.25","39","1","2025-04-11 14:11:53","bb671e3ae32f654b8954ea4c4635f915","","Mozilla/5.0 (Windows NT 10.0; Win64; x64) AppleWebKit/537.36 (KHTML, like Gecko) Chrome/135.0.0.0 Safari/537.36","WebKit","Chrome","135.0.0.0","Windows","10.0","https://hz8g1ckzuq.cognition.run/","en-US,en;q=0.9,de-DE;q=0.8,de;q=0.7","2tnz3m9qzcx4zbb","28","[""Black or African-American""]","No","Male","1564207.5999999642","4309","","","{""product_choice"":""A""}","choice","cdt","repulsion_2","2","laptops","null","null","null","null","null","null","1","30","40","20","100","90","100","Processing speed","Memory (RAM)","",""
"","","","","","choice_trial_setup","html-keyboard-response","136","1373795","0.0-5.0-0.26","39","1","2025-04-11 14:11:53","bb671e3ae32f654b8954ea4c4635f915","","Mozilla/5.0 (Windows NT 10.0; Win64; x64) AppleWebKit/537.36 (KHTML, like Gecko) Chrome/135.0.0.0 Safari/537.36","WebKit","Chrome","135.0.0.0","Windows","10.0","https://hz8g1ckzuq.cognition.run/","en-US,en;q=0.9,de-DE;q=0.8,de;q=0.7","2tnz3m9qzcx4zbb","28","[""Black or African-American""]","No","Male","1564207.5999999642","null","","<p></p>","null","choice","dtc","repulsion_2","1","televisions","null","null","null","null","null","null","1","","","","","","","","","",""
"","","","","","choice_trial","survey-html-form","137","1380782","0.0-5.0-1.26","39","1","2025-04-11 14:11:53","bb671e3ae32f654b8954ea4c4635f915","","Mozilla/5.0 (Windows NT 10.0; Win64; x64) AppleWebKit/537.36 (KHTML, like Gecko) Chrome/135.0.0.0 Safari/537.36","WebKit","Chrome","135.0.0.0","Windows","10.0","https://hz8g1ckzuq.cognition.run/","en-US,en;q=0.9,de-DE;q=0.8,de;q=0.7","2tnz3m9qzcx4zbb","28","[""Black or African-American""]","No","Male","1564207.5999999642","6984","","","{""product_choice"":""B""}","choice","dtc","repulsion_2","1","televisions","null","null","null","null","null","null","1","100","90","100","30","40","20","Screen size","Average lifespan","",""
"","","","","","choice_trial_setup","html-keyboard-response","138","1381085","0.0-5.0-0.27","39","1","2025-04-11 14:11:53","bb671e3ae32f654b8954ea4c4635f915","","Mozilla/5.0 (Windows NT 10.0; Win64; x64) AppleWebKit/537.36 (KHTML, like Gecko) Chrome/135.0.0.0 Safari/537.36","WebKit","Chrome","135.0.0.0","Windows","10.0","https://hz8g1ckzuq.cognition.run/","en-US,en;q=0.9,de-DE;q=0.8,de;q=0.7","2tnz3m9qzcx4zbb","28","[""Black or African-American""]","No","Male","1564207.5999999642","null","","<p></p>","null","choice","ctd","repulsion_1","2","televisions","null","null","null","null","null","null","1","","","","","","","","","",""
"","","","","","choice_trial","survey-html-form","139","1383550","0.0-5.0-1.27","39","1","2025-04-11 14:11:53","bb671e3ae32f654b8954ea4c4635f915","","Mozilla/5.0 (Windows NT 10.0; Win64; x64) AppleWebKit/537.36 (KHTML, like Gecko) Chrome/135.0.0.0 Safari/537.36","WebKit","Chrome","135.0.0.0","Windows","10.0","https://hz8g1ckzuq.cognition.run/","en-US,en;q=0.9,de-DE;q=0.8,de;q=0.7","2tnz3m9qzcx4zbb","28","[""Black or African-American""]","No","Male","1564207.5999999642","2464","","","{""product_choice"":""A""}","choice","ctd","repulsion_1","2","televisions","null","null","null","null","null","null","1","30","40","25","100","90","100","Screen size","Average lifespan","",""
"","","","","","choice_trial_setup","html-keyboard-response","140","1383853","0.0-5.0-0.28","39","1","2025-04-11 14:11:53","bb671e3ae32f654b8954ea4c4635f915","","Mozilla/5.0 (Windows NT 10.0; Win64; x64) AppleWebKit/537.36 (KHTML, like Gecko) Chrome/135.0.0.0 Safari/537.36","WebKit","Chrome","135.0.0.0","Windows","10.0","https://hz8g1ckzuq.cognition.run/","en-US,en;q=0.9,de-DE;q=0.8,de;q=0.7","2tnz3m9qzcx4zbb","28","[""Black or African-American""]","No","Male","1564207.5999999642","null","","<p></p>","null","choice","cdt","attraction_2","2","laptops","null","null","null","null","null","null","2","","","","","","","","","",""
"","","","","","choice_trial","survey-html-form","141","1387055","0.0-5.0-1.28","39","1","2025-04-11 14:11:53","bb671e3ae32f654b8954ea4c4635f915","","Mozilla/5.0 (Windows NT 10.0; Win64; x64) AppleWebKit/537.36 (KHTML, like Gecko) Chrome/135.0.0.0 Safari/537.36","WebKit","Chrome","135.0.0.0","Windows","10.0","https://hz8g1ckzuq.cognition.run/","en-US,en;q=0.9,de-DE;q=0.8,de;q=0.7","2tnz3m9qzcx4zbb","28","[""Black or African-American""]","No","Male","1564207.5999999642","3200","","","{""product_choice"":""A""}","choice","cdt","attraction_2","2","laptops","null","null","null","null","null","null","2","50","60","40","60","50","60","Processing speed","Memory (RAM)","",""
"","","","","","choice_trial_setup","html-keyboard-response","142","1387357","0.0-5.0-0.29","39","1","2025-04-11 14:11:53","bb671e3ae32f654b8954ea4c4635f915","","Mozilla/5.0 (Windows NT 10.0; Win64; x64) AppleWebKit/537.36 (KHTML, like Gecko) Chrome/135.0.0.0 Safari/537.36","WebKit","Chrome","135.0.0.0","Windows","10.0","https://hz8g1ckzuq.cognition.run/","en-US,en;q=0.9,de-DE;q=0.8,de;q=0.7","2tnz3m9qzcx4zbb","28","[""Black or African-American""]","No","Male","1564207.5999999642","null","","<p></p>","null","choice","cdt","attraction_2","2","microwave ovens","null","null","null","null","null","null","1","","","","","","","","","",""
"","","","","","choice_trial","survey-html-form","143","1393988","0.0-5.0-1.29","39","1","2025-04-11 14:11:53","bb671e3ae32f654b8954ea4c4635f915","","Mozilla/5.0 (Windows NT 10.0; Win64; x64) AppleWebKit/537.36 (KHTML, like Gecko) Chrome/135.0.0.0 Safari/537.36","WebKit","Chrome","135.0.0.0","Windows","10.0","https://hz8g1ckzuq.cognition.run/","en-US,en;q=0.9,de-DE;q=0.8,de;q=0.7","2tnz3m9qzcx4zbb","28","[""Black or African-American""]","No","Male","1564207.5999999642","6629","","","{""product_choice"":""C""}","choice","cdt","attraction_2","2","microwave ovens","null","null","null","null","null","null","1","50","60","40","60","50","60","Warranty","Cooking power","",""
"","","","","","choice_trial_setup","html-keyboard-response","144","1394290","0.0-5.0-0.30","39","1","2025-04-11 14:11:53","bb671e3ae32f654b8954ea4c4635f915","","Mozilla/5.0 (Windows NT 10.0; Win64; x64) AppleWebKit/537.36 (KHTML, like Gecko) Chrome/135.0.0.0 Safari/537.36","WebKit","Chrome","135.0.0.0","Windows","10.0","https://hz8g1ckzuq.cognition.run/","en-US,en;q=0.9,de-DE;q=0.8,de;q=0.7","2tnz3m9qzcx4zbb","28","[""Black or African-American""]","No","Male","1564207.5999999642","null","","<p></p>","null","choice","cdt","repulsion_1","1","microwave ovens","null","null","null","null","null","null","2","","","","","","","","","",""
"","","","","","choice_trial","survey-html-form","145","1398010","0.0-5.0-1.30","39","1","2025-04-11 14:11:53","bb671e3ae32f654b8954ea4c4635f915","","Mozilla/5.0 (Windows NT 10.0; Win64; x64) AppleWebKit/537.36 (KHTML, like Gecko) Chrome/135.0.0.0 Safari/537.36","WebKit","Chrome","135.0.0.0","Windows","10.0","https://hz8g1ckzuq.cognition.run/","en-US,en;q=0.9,de-DE;q=0.8,de;q=0.7","2tnz3m9qzcx4zbb","28","[""Black or African-American""]","No","Male","1564207.5999999642","3718","","","{""product_choice"":""A""}","choice","cdt","repulsion_1","1","microwave ovens","null","null","null","null","null","null","2","100","90","100","30","40","25","Warranty","Cooking power","",""
"","","","","","choice_trial_setup","html-keyboard-response","146","1398312","0.0-5.0-0.31","39","1","2025-04-11 14:11:53","bb671e3ae32f654b8954ea4c4635f915","","Mozilla/5.0 (Windows NT 10.0; Win64; x64) AppleWebKit/537.36 (KHTML, like Gecko) Chrome/135.0.0.0 Safari/537.36","WebKit","Chrome","135.0.0.0","Windows","10.0","https://hz8g1ckzuq.cognition.run/","en-US,en;q=0.9,de-DE;q=0.8,de;q=0.7","2tnz3m9qzcx4zbb","28","[""Black or African-American""]","No","Male","1564207.5999999642","null","","<p></p>","null","choice","dct","repulsion_1","2","washing machines","null","null","null","null","null","null","2","","","","","","","","","",""
"","","","","","choice_trial","survey-html-form","147","1401907","0.0-5.0-1.31","39","1","2025-04-11 14:11:53","bb671e3ae32f654b8954ea4c4635f915","","Mozilla/5.0 (Windows NT 10.0; Win64; x64) AppleWebKit/537.36 (KHTML, like Gecko) Chrome/135.0.0.0 Safari/537.36","WebKit","Chrome","135.0.0.0","Windows","10.0","https://hz8g1ckzuq.cognition.run/","en-US,en;q=0.9,de-DE;q=0.8,de;q=0.7","2tnz3m9qzcx4zbb","28","[""Black or African-American""]","No","Male","1564207.5999999642","3593","","","{""product_choice"":""B""}","choice","dct","repulsion_1","2","washing machines","null","null","null","null","null","null","2","30","40","25","100","90","100","Average lifespan","Energy savings","",""
