"success","timeout","failed_images","failed_audio","failed_video","screen_id","trial_type","trial_index","time_elapsed","internal_node_id","run_id","condition","recorded_at","source_code_version","ip","user_agent","device","browser","browser_version","platform","platform_version","referer","accept_language","ppt_id","final_score","age","race","ethnicity","gender","exp_duration","rt","view_history","stimulus","response","phase","order","effect","t_high","category","d1_best","d2_best","d1_worst1","d2_worst1","d1_worst2","d2_worst2","first_dim","d1_t","d1_c","d1_d","d2_t","d2_c","d2_d","d1_name","d2_name","strategy_response","trialType","question_order"
"true","false","[]","[]","[]","img preload","preload","0","3791","0.0-0.0","4","1","2025-04-10 18:10:25","7bd189e8e4882776c700e1dae255cdf5","","Mozilla/5.0 (Windows NT 10.0; Win64; x64) AppleWebKit/537.36 (KHTML, like Gecko) Chrome/134.0.0.0 Safari/537.36","WebKit","Chrome","134.0.0.0","Windows","10.0","https://hz8g1ckzuq.cognition.run/","en-US,en;q=0.9","3yaa6b0udk0wysn","","32","[""White""]","No","Female","1714419.6999998093","","","","","","","","","","","","","","","","","","","","","","","","","","",""
"true","","","","","","fullscreen","1","7282","0.0-1.0","4","1","2025-04-10 18:10:25","7bd189e8e4882776c700e1dae255cdf5","","Mozilla/5.0 (Windows NT 10.0; Win64; x64) AppleWebKit/537.36 (KHTML, like Gecko) Chrome/134.0.0.0 Safari/537.36","WebKit","Chrome","134.0.0.0","Windows","10.0","https://hz8g1ckzuq.cognition.run/","en-US,en;q=0.9","3yaa6b0udk0wysn","","32","[""White""]","No","Female","1714419.6999998093","2487","","","","","","","","","","","","","","","","","","","","","","","","","",""
"","","","","","","instructions","2","162960","0.0-2.0","4","1","2025-04-10 18:10:25","7bd189e8e4882776c700e1dae255cdf5","","Mozilla/5.0 (Windows NT 10.0; Win64; x64) AppleWebKit/537.36 (KHTML, like Gecko) Chrome/134.0.0.0 Safari/537.36","WebKit","Chrome","134.0.0.0","Windows","10.0","https://hz8g1ckzuq.cognition.run/","en-US,en;q=0.9","3yaa6b0udk0wysn","","32","[""White""]","No","Female","1714419.6999998093","155677","[{""page_index"":0,""viewing_time"":1767},{""page_index"":1,""viewing_time"":5709},{""page_index"":2,""viewing_time"":21928},{""page_index"":3,""viewing_time"":32352},{""page_index"":4,""viewing_time"":11024},{""page_index"":5,""viewing_time"":9728},{""page_index"":4,""viewing_time"":12449},{""page_index"":5,""viewing_time"":3458},{""page_index"":6,""viewing_time"":10582},{""page_index"":7,""viewing_time"":31658},{""page_index"":8,""viewing_time"":6863},{""page_index"":9,""viewing_time"":8159}]","","","","","","","","","","","","","","","","","","","","","","","","",""
"","","","","","rating_trial_setup","html-keyboard-response","3","163266","0.0-3.0-0.0","4","1","2025-04-10 18:10:25","7bd189e8e4882776c700e1dae255cdf5","","Mozilla/5.0 (Windows NT 10.0; Win64; x64) AppleWebKit/537.36 (KHTML, like Gecko) Chrome/134.0.0.0 Safari/537.36","WebKit","Chrome","134.0.0.0","Windows","10.0","https://hz8g1ckzuq.cognition.run/","en-US,en;q=0.9","3yaa6b0udk0wysn","","32","[""White""]","No","Female","1714419.6999998093","null","","<p></p>","null","rating","tdc","repulsion_1","2","televisions","null","null","null","null","null","null","1","","","","","","","","","","",""
"","","","","","rating_trial","survey-html-form","4","198818","0.0-3.0-1.0","4","1","2025-04-10 18:10:25","7bd189e8e4882776c700e1dae255cdf5","","Mozilla/5.0 (Windows NT 10.0; Win64; x64) AppleWebKit/537.36 (KHTML, like Gecko) Chrome/134.0.0.0 Safari/537.36","WebKit","Chrome","134.0.0.0","Windows","10.0","https://hz8g1ckzuq.cognition.run/","en-US,en;q=0.9","3yaa6b0udk0wysn","","32","[""White""]","No","Female","1714419.6999998093","35544","","","{""price_1"":""120"",""price_2"":""200"",""price_3"":""190""}","rating","tdc","repulsion_1","2","televisions","null","null","null","null","null","null","1","30","40","25","100","90","100","Screen size","Average lifespan","","",""
"","","","","","rating_trial_setup","html-keyboard-response","5","199120","0.0-3.0-0.1","4","1","2025-04-10 18:10:25","7bd189e8e4882776c700e1dae255cdf5","","Mozilla/5.0 (Windows NT 10.0; Win64; x64) AppleWebKit/537.36 (KHTML, like Gecko) Chrome/134.0.0.0 Safari/537.36","WebKit","Chrome","134.0.0.0","Windows","10.0","https://hz8g1ckzuq.cognition.run/","en-US,en;q=0.9","3yaa6b0udk0wysn","","32","[""White""]","No","Female","1714419.6999998093","null","","<p></p>","null","rating","dtc","attraction_1","1","microwave ovens","null","null","null","null","null","null","2","","","","","","","","","","",""
"","","","","","rating_trial","survey-html-form","6","218288","0.0-3.0-1.1","4","1","2025-04-10 18:10:25","7bd189e8e4882776c700e1dae255cdf5","","Mozilla/5.0 (Windows NT 10.0; Win64; x64) AppleWebKit/537.36 (KHTML, like Gecko) Chrome/134.0.0.0 Safari/537.36","WebKit","Chrome","134.0.0.0","Windows","10.0","https://hz8g1ckzuq.cognition.run/","en-US,en;q=0.9","3yaa6b0udk0wysn","","32","[""White""]","No","Female","1714419.6999998093","19167","","","{""price_1"":""150"",""price_2"":""200"",""price_3"":""200""}","rating","dtc","attraction_1","1","microwave ovens","null","null","null","null","null","null","2","60","50","60","50","60","45","Warranty","Cooking power","","",""
"","","","","","rating_trial_setup","html-keyboard-response","7","218591","0.0-3.0-0.2","4","1","2025-04-10 18:10:25","7bd189e8e4882776c700e1dae255cdf5","","Mozilla/5.0 (Windows NT 10.0; Win64; x64) AppleWebKit/537.36 (KHTML, like Gecko) Chrome/134.0.0.0 Safari/537.36","WebKit","Chrome","134.0.0.0","Windows","10.0","https://hz8g1ckzuq.cognition.run/","en-US,en;q=0.9","3yaa6b0udk0wysn","","32","[""White""]","No","Female","1714419.6999998093","null","","<p></p>","null","rating","tdc","repulsion_2","1","televisions","null","null","null","null","null","null","2","","","","","","","","","","",""
"","","","","","rating_trial","survey-html-form","8","234769","0.0-3.0-1.2","4","1","2025-04-10 18:10:25","7bd189e8e4882776c700e1dae255cdf5","","Mozilla/5.0 (Windows NT 10.0; Win64; x64) AppleWebKit/537.36 (KHTML, like Gecko) Chrome/134.0.0.0 Safari/537.36","WebKit","Chrome","134.0.0.0","Windows","10.0","https://hz8g1ckzuq.cognition.run/","en-US,en;q=0.9","3yaa6b0udk0wysn","","32","[""White""]","No","Female","1714419.6999998093","16172","","","{""price_1"":""120"",""price_2"":""100"",""price_3"":""190""}","rating","tdc","repulsion_2","1","televisions","null","null","null","null","null","null","2","100","90","100","30","40","20","Screen size","Average lifespan","","",""
"","","","","","rating_trial_setup","html-keyboard-response","9","235072","0.0-3.0-0.3","4","1","2025-04-10 18:10:25","7bd189e8e4882776c700e1dae255cdf5","","Mozilla/5.0 (Windows NT 10.0; Win64; x64) AppleWebKit/537.36 (KHTML, like Gecko) Chrome/134.0.0.0 Safari/537.36","WebKit","Chrome","134.0.0.0","Windows","10.0","https://hz8g1ckzuq.cognition.run/","en-US,en;q=0.9","3yaa6b0udk0wysn","","32","[""White""]","No","Female","1714419.6999998093","null","","<p></p>","null","rating","cdt","repulsion_1","2","laptops","null","null","null","null","null","null","2","","","","","","","","","","",""
"","","","","","rating_trial","survey-html-form","10","259865","0.0-3.0-1.3","4","1","2025-04-10 18:10:25","7bd189e8e4882776c700e1dae255cdf5","","Mozilla/5.0 (Windows NT 10.0; Win64; x64) AppleWebKit/537.36 (KHTML, like Gecko) Chrome/134.0.0.0 Safari/537.36","WebKit","Chrome","134.0.0.0","Windows","10.0","https://hz8g1ckzuq.cognition.run/","en-US,en;q=0.9","3yaa6b0udk0wysn","","32","[""White""]","No","Female","1714419.6999998093","24790","","","{""price_1"":""200"",""price_2"":""170"",""price_3"":""170""}","rating","cdt","repulsion_1","2","laptops","null","null","null","null","null","null","2","30","40","25","100","90","100","Processing speed","Memory (RAM)","","",""
"","","","","","rating_trial_setup","html-keyboard-response","11","260169","0.0-3.0-0.4","4","1","2025-04-10 18:10:25","7bd189e8e4882776c700e1dae255cdf5","","Mozilla/5.0 (Windows NT 10.0; Win64; x64) AppleWebKit/537.36 (KHTML, like Gecko) Chrome/134.0.0.0 Safari/537.36","WebKit","Chrome","134.0.0.0","Windows","10.0","https://hz8g1ckzuq.cognition.run/","en-US,en;q=0.9","3yaa6b0udk0wysn","","32","[""White""]","No","Female","1714419.6999998093","null","","<p></p>","null","rating","ctd","attraction_1","1","televisions","null","null","null","null","null","null","2","","","","","","","","","","",""
"","","","","","rating_trial","survey-html-form","12","302825","0.0-3.0-1.4","4","1","2025-04-10 18:10:25","7bd189e8e4882776c700e1dae255cdf5","","Mozilla/5.0 (Windows NT 10.0; Win64; x64) AppleWebKit/537.36 (KHTML, like Gecko) Chrome/134.0.0.0 Safari/537.36","WebKit","Chrome","134.0.0.0","Windows","10.0","https://hz8g1ckzuq.cognition.run/","en-US,en;q=0.9","3yaa6b0udk0wysn","","32","[""White""]","No","Female","1714419.6999998093","42651","","","{""price_1"":""120"",""price_2"":""130"",""price_3"":""191""}","rating","ctd","attraction_1","1","televisions","null","null","null","null","null","null","2","60","50","60","50","60","45","Screen size","Average lifespan","","",""
"","","","","","rating_trial_setup","html-keyboard-response","13","303129","0.0-3.0-0.5","4","1","2025-04-10 18:10:25","7bd189e8e4882776c700e1dae255cdf5","","Mozilla/5.0 (Windows NT 10.0; Win64; x64) AppleWebKit/537.36 (KHTML, like Gecko) Chrome/134.0.0.0 Safari/537.36","WebKit","Chrome","134.0.0.0","Windows","10.0","https://hz8g1ckzuq.cognition.run/","en-US,en;q=0.9","3yaa6b0udk0wysn","","32","[""White""]","No","Female","1714419.6999998093","null","","<p></p>","null","rating","cdt","attraction_1","1","washing machines","null","null","null","null","null","null","2","","","","","","","","","","",""
"","","","","","rating_trial","survey-html-form","14","337217","0.0-3.0-1.5","4","1","2025-04-10 18:10:25","7bd189e8e4882776c700e1dae255cdf5","","Mozilla/5.0 (Windows NT 10.0; Win64; x64) AppleWebKit/537.36 (KHTML, like Gecko) Chrome/134.0.0.0 Safari/537.36","WebKit","Chrome","134.0.0.0","Windows","10.0","https://hz8g1ckzuq.cognition.run/","en-US,en;q=0.9","3yaa6b0udk0wysn","","32","[""White""]","No","Female","1714419.6999998093","34083","","","{""price_1"":""200"",""price_2"":""180"",""price_3"":""220""}","rating","cdt","attraction_1","1","washing machines","null","null","null","null","null","null","2","60","50","60","50","60","45","Average lifespan","Energy savings","","",""
"","","","","","rating_trial_setup","html-keyboard-response","15","337520","0.0-3.0-0.6","4","1","2025-04-10 18:10:25","7bd189e8e4882776c700e1dae255cdf5","","Mozilla/5.0 (Windows NT 10.0; Win64; x64) AppleWebKit/537.36 (KHTML, like Gecko) Chrome/134.0.0.0 Safari/537.36","WebKit","Chrome","134.0.0.0","Windows","10.0","https://hz8g1ckzuq.cognition.run/","en-US,en;q=0.9","3yaa6b0udk0wysn","","32","[""White""]","No","Female","1714419.6999998093","null","","<p></p>","null","rating","ctd","repulsion_2","1","washing machines","null","null","null","null","null","null","2","","","","","","","","","","",""
"","","","","","rating_trial","survey-html-form","16","360440","0.0-3.0-1.6","4","1","2025-04-10 18:10:25","7bd189e8e4882776c700e1dae255cdf5","","Mozilla/5.0 (Windows NT 10.0; Win64; x64) AppleWebKit/537.36 (KHTML, like Gecko) Chrome/134.0.0.0 Safari/537.36","WebKit","Chrome","134.0.0.0","Windows","10.0","https://hz8g1ckzuq.cognition.run/","en-US,en;q=0.9","3yaa6b0udk0wysn","","32","[""White""]","No","Female","1714419.6999998093","22917","","","{""price_1"":""240"",""price_2"":""220"",""price_3"":""190""}","rating","ctd","repulsion_2","1","washing machines","null","null","null","null","null","null","2","100","90","100","30","40","20","Average lifespan","Energy savings","","",""
"","","","","","rating_trial_setup","html-keyboard-response","17","360743","0.0-3.0-0.7","4","1","2025-04-10 18:10:25","7bd189e8e4882776c700e1dae255cdf5","","Mozilla/5.0 (Windows NT 10.0; Win64; x64) AppleWebKit/537.36 (KHTML, like Gecko) Chrome/134.0.0.0 Safari/537.36","WebKit","Chrome","134.0.0.0","Windows","10.0","https://hz8g1ckzuq.cognition.run/","en-US,en;q=0.9","3yaa6b0udk0wysn","","32","[""White""]","No","Female","1714419.6999998093","null","","<p></p>","null","rating","dct","repulsion_1","1","televisions","null","null","null","null","null","null","2","","","","","","","","","","",""
"","","","","","rating_trial","survey-html-form","18","381953","0.0-3.0-1.7","4","1","2025-04-10 18:10:25","7bd189e8e4882776c700e1dae255cdf5","","Mozilla/5.0 (Windows NT 10.0; Win64; x64) AppleWebKit/537.36 (KHTML, like Gecko) Chrome/134.0.0.0 Safari/537.36","WebKit","Chrome","134.0.0.0","Windows","10.0","https://hz8g1ckzuq.cognition.run/","en-US,en;q=0.9","3yaa6b0udk0wysn","","32","[""White""]","No","Female","1714419.6999998093","21205","","","{""price_1"":""120"",""price_2"":""140"",""price_3"":""150""}","rating","dct","repulsion_1","1","televisions","null","null","null","null","null","null","2","100","90","100","30","40","25","Screen size","Average lifespan","","",""
"","","","","","rating_trial_setup","html-keyboard-response","19","382257","0.0-3.0-0.8","4","1","2025-04-10 18:10:25","7bd189e8e4882776c700e1dae255cdf5","","Mozilla/5.0 (Windows NT 10.0; Win64; x64) AppleWebKit/537.36 (KHTML, like Gecko) Chrome/134.0.0.0 Safari/537.36","WebKit","Chrome","134.0.0.0","Windows","10.0","https://hz8g1ckzuq.cognition.run/","en-US,en;q=0.9","3yaa6b0udk0wysn","","32","[""White""]","No","Female","1714419.6999998093","null","","<p></p>","null","rating","tcd","attraction_2","2","washing machines","null","null","null","null","null","null","1","","","","","","","","","","",""
"","","","","","rating_trial","survey-html-form","20","400139","0.0-3.0-1.8","4","1","2025-04-10 18:10:25","7bd189e8e4882776c700e1dae255cdf5","","Mozilla/5.0 (Windows NT 10.0; Win64; x64) AppleWebKit/537.36 (KHTML, like Gecko) Chrome/134.0.0.0 Safari/537.36","WebKit","Chrome","134.0.0.0","Windows","10.0","https://hz8g1ckzuq.cognition.run/","en-US,en;q=0.9","3yaa6b0udk0wysn","","32","[""White""]","No","Female","1714419.6999998093","17874","","","{""price_1"":""200"",""price_2"":""230"",""price_3"":""200""}","rating","tcd","attraction_2","2","washing machines","null","null","null","null","null","null","1","50","60","40","60","50","60","Average lifespan","Energy savings","","",""
"","","","","","rating_trial_setup","html-keyboard-response","21","400445","0.0-3.0-0.9","4","1","2025-04-10 18:10:25","7bd189e8e4882776c700e1dae255cdf5","","Mozilla/5.0 (Windows NT 10.0; Win64; x64) AppleWebKit/537.36 (KHTML, like Gecko) Chrome/134.0.0.0 Safari/537.36","WebKit","Chrome","134.0.0.0","Windows","10.0","https://hz8g1ckzuq.cognition.run/","en-US,en;q=0.9","3yaa6b0udk0wysn","","32","[""White""]","No","Female","1714419.6999998093","null","","<p></p>","null","rating","cdt","attraction_1","2","laptops","null","null","null","null","null","null","1","","","","","","","","","","",""
"","","","","","rating_trial","survey-html-form","22","415582","0.0-3.0-1.9","4","1","2025-04-10 18:10:25","7bd189e8e4882776c700e1dae255cdf5","","Mozilla/5.0 (Windows NT 10.0; Win64; x64) AppleWebKit/537.36 (KHTML, like Gecko) Chrome/134.0.0.0 Safari/537.36","WebKit","Chrome","134.0.0.0","Windows","10.0","https://hz8g1ckzuq.cognition.run/","en-US,en;q=0.9","3yaa6b0udk0wysn","","32","[""White""]","No","Female","1714419.6999998093","15131","","","{""price_1"":""120"",""price_2"":""200"",""price_3"":""120""}","rating","cdt","attraction_1","2","laptops","null","null","null","null","null","null","1","50","60","45","60","50","60","Processing speed","Memory (RAM)","","",""
"","","","","","rating_trial_setup","html-keyboard-response","23","415887","0.0-3.0-0.10","4","1","2025-04-10 18:10:25","7bd189e8e4882776c700e1dae255cdf5","","Mozilla/5.0 (Windows NT 10.0; Win64; x64) AppleWebKit/537.36 (KHTML, like Gecko) Chrome/134.0.0.0 Safari/537.36","WebKit","Chrome","134.0.0.0","Windows","10.0","https://hz8g1ckzuq.cognition.run/","en-US,en;q=0.9","3yaa6b0udk0wysn","","32","[""White""]","No","Female","1714419.6999998093","null","","<p></p>","null","rating","tdc","repulsion_1","1","microwave ovens","null","null","null","null","null","null","2","","","","","","","","","","",""
"","","","","","rating_trial","survey-html-form","24","446918","0.0-3.0-1.10","4","1","2025-04-10 18:10:25","7bd189e8e4882776c700e1dae255cdf5","","Mozilla/5.0 (Windows NT 10.0; Win64; x64) AppleWebKit/537.36 (KHTML, like Gecko) Chrome/134.0.0.0 Safari/537.36","WebKit","Chrome","134.0.0.0","Windows","10.0","https://hz8g1ckzuq.cognition.run/","en-US,en;q=0.9","3yaa6b0udk0wysn","","32","[""White""]","No","Female","1714419.6999998093","31024","","","{""price_1"":""200"",""price_2"":""230"",""price_3"":""215""}","rating","tdc","repulsion_1","1","microwave ovens","null","null","null","null","null","null","2","100","90","100","30","40","25","Warranty","Cooking power","","",""
"","","","","","rating_trial_setup","html-keyboard-response","25","447221","0.0-3.0-0.11","4","1","2025-04-10 18:10:25","7bd189e8e4882776c700e1dae255cdf5","","Mozilla/5.0 (Windows NT 10.0; Win64; x64) AppleWebKit/537.36 (KHTML, like Gecko) Chrome/134.0.0.0 Safari/537.36","WebKit","Chrome","134.0.0.0","Windows","10.0","https://hz8g1ckzuq.cognition.run/","en-US,en;q=0.9","3yaa6b0udk0wysn","","32","[""White""]","No","Female","1714419.6999998093","null","","<p></p>","null","rating","tdc","attraction_2","2","microwave ovens","null","null","null","null","null","null","2","","","","","","","","","","",""
"","","","","","rating_trial","survey-html-form","26","481219","0.0-3.0-1.11","4","1","2025-04-10 18:10:25","7bd189e8e4882776c700e1dae255cdf5","","Mozilla/5.0 (Windows NT 10.0; Win64; x64) AppleWebKit/537.36 (KHTML, like Gecko) Chrome/134.0.0.0 Safari/537.36","WebKit","Chrome","134.0.0.0","Windows","10.0","https://hz8g1ckzuq.cognition.run/","en-US,en;q=0.9","3yaa6b0udk0wysn","","32","[""White""]","No","Female","1714419.6999998093","33994","","","{""price_1"":""200"",""price_2"":""210"",""price_3"":""212""}","rating","tdc","attraction_2","2","microwave ovens","null","null","null","null","null","null","2","50","60","40","60","50","60","Warranty","Cooking power","","",""
"","","","","","rating_trial_setup","html-keyboard-response","27","481523","0.0-3.0-0.12","4","1","2025-04-10 18:10:25","7bd189e8e4882776c700e1dae255cdf5","","Mozilla/5.0 (Windows NT 10.0; Win64; x64) AppleWebKit/537.36 (KHTML, like Gecko) Chrome/134.0.0.0 Safari/537.36","WebKit","Chrome","134.0.0.0","Windows","10.0","https://hz8g1ckzuq.cognition.run/","en-US,en;q=0.9","3yaa6b0udk0wysn","","32","[""White""]","No","Female","1714419.6999998093","null","","<p></p>","null","rating","tcd","attraction_1","2","washing machines","null","null","null","null","null","null","1","","","","","","","","","","",""
"","","","","","rating_trial","survey-html-form","28","499096","0.0-3.0-1.12","4","1","2025-04-10 18:10:25","7bd189e8e4882776c700e1dae255cdf5","","Mozilla/5.0 (Windows NT 10.0; Win64; x64) AppleWebKit/537.36 (KHTML, like Gecko) Chrome/134.0.0.0 Safari/537.36","WebKit","Chrome","134.0.0.0","Windows","10.0","https://hz8g1ckzuq.cognition.run/","en-US,en;q=0.9","3yaa6b0udk0wysn","","32","[""White""]","No","Female","1714419.6999998093","17568","","","{""price_1"":""210"",""price_2"":""220"",""price_3"":""240""}","rating","tcd","attraction_1","2","washing machines","null","null","null","null","null","null","1","50","60","45","60","50","60","Average lifespan","Energy savings","","",""
"","","","","","rating_trial_setup","html-keyboard-response","29","499399","0.0-3.0-0.13","4","1","2025-04-10 18:10:25","7bd189e8e4882776c700e1dae255cdf5","","Mozilla/5.0 (Windows NT 10.0; Win64; x64) AppleWebKit/537.36 (KHTML, like Gecko) Chrome/134.0.0.0 Safari/537.36","WebKit","Chrome","134.0.0.0","Windows","10.0","https://hz8g1ckzuq.cognition.run/","en-US,en;q=0.9","3yaa6b0udk0wysn","","32","[""White""]","No","Female","1714419.6999998093","null","","<p></p>","null","rating","cdt","repulsion_2","2","washing machines","null","null","null","null","null","null","1","","","","","","","","","","",""
"","","","","","rating_trial","survey-html-form","30","563809","0.0-3.0-1.13","4","1","2025-04-10 18:10:25","7bd189e8e4882776c700e1dae255cdf5","","Mozilla/5.0 (Windows NT 10.0; Win64; x64) AppleWebKit/537.36 (KHTML, like Gecko) Chrome/134.0.0.0 Safari/537.36","WebKit","Chrome","134.0.0.0","Windows","10.0","https://hz8g1ckzuq.cognition.run/","en-US,en;q=0.9","3yaa6b0udk0wysn","","32","[""White""]","No","Female","1714419.6999998093","64408","","","{""price_1"":""220"",""price_2"":""200"",""price_3"":""210""}","rating","cdt","repulsion_2","2","washing machines","null","null","null","null","null","null","1","30","40","20","100","90","100","Average lifespan","Energy savings","","",""
"","","","","","rating_trial_setup","html-keyboard-response","31","564113","0.0-3.0-0.14","4","1","2025-04-10 18:10:25","7bd189e8e4882776c700e1dae255cdf5","","Mozilla/5.0 (Windows NT 10.0; Win64; x64) AppleWebKit/537.36 (KHTML, like Gecko) Chrome/134.0.0.0 Safari/537.36","WebKit","Chrome","134.0.0.0","Windows","10.0","https://hz8g1ckzuq.cognition.run/","en-US,en;q=0.9","3yaa6b0udk0wysn","","32","[""White""]","No","Female","1714419.6999998093","null","","<p></p>","null","rating","bww","catch","null","washing machines","95","60","25","30","15","35","1","","","","","","","","","","",""
"","","","","","rating_trial","survey-html-form","32","574170","0.0-3.0-1.14","4","1","2025-04-10 18:10:25","7bd189e8e4882776c700e1dae255cdf5","","Mozilla/5.0 (Windows NT 10.0; Win64; x64) AppleWebKit/537.36 (KHTML, like Gecko) Chrome/134.0.0.0 Safari/537.36","WebKit","Chrome","134.0.0.0","Windows","10.0","https://hz8g1ckzuq.cognition.run/","en-US,en;q=0.9","3yaa6b0udk0wysn","","32","[""White""]","No","Female","1714419.6999998093","10054","","","{""price_1"":""230"",""price_2"":""220"",""price_3"":""210""}","rating","bww","catch","null","washing machines","95","60","25","30","15","35","1","null","null","null","null","null","null","Average lifespan","Energy savings","","",""
"","","","","","rating_trial_setup","html-keyboard-response","33","574474","0.0-3.0-0.15","4","1","2025-04-10 18:10:25","7bd189e8e4882776c700e1dae255cdf5","","Mozilla/5.0 (Windows NT 10.0; Win64; x64) AppleWebKit/537.36 (KHTML, like Gecko) Chrome/134.0.0.0 Safari/537.36","WebKit","Chrome","134.0.0.0","Windows","10.0","https://hz8g1ckzuq.cognition.run/","en-US,en;q=0.9","3yaa6b0udk0wysn","","32","[""White""]","No","Female","1714419.6999998093","null","","<p></p>","null","rating","tdc","attraction_2","1","laptops","null","null","null","null","null","null","1","","","","","","","","","","",""
"","","","","","rating_trial","survey-html-form","34","583561","0.0-3.0-1.15","4","1","2025-04-10 18:10:25","7bd189e8e4882776c700e1dae255cdf5","","Mozilla/5.0 (Windows NT 10.0; Win64; x64) AppleWebKit/537.36 (KHTML, like Gecko) Chrome/134.0.0.0 Safari/537.36","WebKit","Chrome","134.0.0.0","Windows","10.0","https://hz8g1ckzuq.cognition.run/","en-US,en;q=0.9","3yaa6b0udk0wysn","","32","[""White""]","No","Female","1714419.6999998093","9081","","","{""price_1"":""120"",""price_2"":""130"",""price_3"":""140""}","rating","tdc","attraction_2","1","laptops","null","null","null","null","null","null","1","60","50","60","50","60","40","Processing speed","Memory (RAM)","","",""
"","","","","","rating_trial_setup","html-keyboard-response","35","583865","0.0-3.0-0.16","4","1","2025-04-10 18:10:25","7bd189e8e4882776c700e1dae255cdf5","","Mozilla/5.0 (Windows NT 10.0; Win64; x64) AppleWebKit/537.36 (KHTML, like Gecko) Chrome/134.0.0.0 Safari/537.36","WebKit","Chrome","134.0.0.0","Windows","10.0","https://hz8g1ckzuq.cognition.run/","en-US,en;q=0.9","3yaa6b0udk0wysn","","32","[""White""]","No","Female","1714419.6999998093","null","","<p></p>","null","rating","dtc","attraction_1","2","televisions","null","null","null","null","null","null","1","","","","","","","","","","",""
"","","","","","rating_trial","survey-html-form","36","618736","0.0-3.0-1.16","4","1","2025-04-10 18:10:25","7bd189e8e4882776c700e1dae255cdf5","","Mozilla/5.0 (Windows NT 10.0; Win64; x64) AppleWebKit/537.36 (KHTML, like Gecko) Chrome/134.0.0.0 Safari/537.36","WebKit","Chrome","134.0.0.0","Windows","10.0","https://hz8g1ckzuq.cognition.run/","en-US,en;q=0.9","3yaa6b0udk0wysn","","32","[""White""]","No","Female","1714419.6999998093","34866","","","{""price_1"":""210"",""price_2"":""210"",""price_3"":""210""}","rating","dtc","attraction_1","2","televisions","null","null","null","null","null","null","1","50","60","45","60","50","60","Screen size","Average lifespan","","",""
"","","","","","rating_trial_setup","html-keyboard-response","37","619040","0.0-3.0-0.17","4","1","2025-04-10 18:10:25","7bd189e8e4882776c700e1dae255cdf5","","Mozilla/5.0 (Windows NT 10.0; Win64; x64) AppleWebKit/537.36 (KHTML, like Gecko) Chrome/134.0.0.0 Safari/537.36","WebKit","Chrome","134.0.0.0","Windows","10.0","https://hz8g1ckzuq.cognition.run/","en-US,en;q=0.9","3yaa6b0udk0wysn","","32","[""White""]","No","Female","1714419.6999998093","null","","<p></p>","null","rating","wbw","catch","null","microwave ovens","80","85","5","30","25","35","2","","","","","","","","","","",""
"","","","","","rating_trial","survey-html-form","38","628586","0.0-3.0-1.17","4","1","2025-04-10 18:10:25","7bd189e8e4882776c700e1dae255cdf5","","Mozilla/5.0 (Windows NT 10.0; Win64; x64) AppleWebKit/537.36 (KHTML, like Gecko) Chrome/134.0.0.0 Safari/537.36","WebKit","Chrome","134.0.0.0","Windows","10.0","https://hz8g1ckzuq.cognition.run/","en-US,en;q=0.9","3yaa6b0udk0wysn","","32","[""White""]","No","Female","1714419.6999998093","9540","","","{""price_1"":""210"",""price_2"":""220"",""price_3"":""200""}","rating","wbw","catch","null","microwave ovens","80","85","5","30","25","35","2","null","null","null","null","null","null","Warranty","Cooking power","","",""
"","","","","","rating_trial_setup","html-keyboard-response","39","628890","0.0-3.0-0.18","4","1","2025-04-10 18:10:25","7bd189e8e4882776c700e1dae255cdf5","","Mozilla/5.0 (Windows NT 10.0; Win64; x64) AppleWebKit/537.36 (KHTML, like Gecko) Chrome/134.0.0.0 Safari/537.36","WebKit","Chrome","134.0.0.0","Windows","10.0","https://hz8g1ckzuq.cognition.run/","en-US,en;q=0.9","3yaa6b0udk0wysn","","32","[""White""]","No","Female","1714419.6999998093","null","","<p></p>","null","rating","bww","catch","null","washing machines","85","75","5","15","10","25","2","","","","","","","","","","",""
"","","","","","rating_trial","survey-html-form","40","646697","0.0-3.0-1.18","4","1","2025-04-10 18:10:25","7bd189e8e4882776c700e1dae255cdf5","","Mozilla/5.0 (Windows NT 10.0; Win64; x64) AppleWebKit/537.36 (KHTML, like Gecko) Chrome/134.0.0.0 Safari/537.36","WebKit","Chrome","134.0.0.0","Windows","10.0","https://hz8g1ckzuq.cognition.run/","en-US,en;q=0.9","3yaa6b0udk0wysn","","32","[""White""]","No","Female","1714419.6999998093","17804","","","{""price_1"":""210"",""price_2"":""100"",""price_3"":""100""}","rating","bww","catch","null","washing machines","85","75","5","15","10","25","2","null","null","null","null","null","null","Average lifespan","Energy savings","","",""
"","","","","","rating_trial_setup","html-keyboard-response","41","647000","0.0-3.0-0.19","4","1","2025-04-10 18:10:25","7bd189e8e4882776c700e1dae255cdf5","","Mozilla/5.0 (Windows NT 10.0; Win64; x64) AppleWebKit/537.36 (KHTML, like Gecko) Chrome/134.0.0.0 Safari/537.36","WebKit","Chrome","134.0.0.0","Windows","10.0","https://hz8g1ckzuq.cognition.run/","en-US,en;q=0.9","3yaa6b0udk0wysn","","32","[""White""]","No","Female","1714419.6999998093","null","","<p></p>","null","rating","dct","repulsion_2","1","laptops","null","null","null","null","null","null","2","","","","","","","","","","",""
"","","","","","rating_trial","survey-html-form","42","663840","0.0-3.0-1.19","4","1","2025-04-10 18:10:25","7bd189e8e4882776c700e1dae255cdf5","","Mozilla/5.0 (Windows NT 10.0; Win64; x64) AppleWebKit/537.36 (KHTML, like Gecko) Chrome/134.0.0.0 Safari/537.36","WebKit","Chrome","134.0.0.0","Windows","10.0","https://hz8g1ckzuq.cognition.run/","en-US,en;q=0.9","3yaa6b0udk0wysn","","32","[""White""]","No","Female","1714419.6999998093","16836","","","{""price_1"":""120"",""price_2"":""150"",""price_3"":""170""}","rating","dct","repulsion_2","1","laptops","null","null","null","null","null","null","2","100","90","100","30","40","20","Processing speed","Memory (RAM)","","",""
"","","","","","rating_trial_setup","html-keyboard-response","43","664144","0.0-3.0-0.20","4","1","2025-04-10 18:10:25","7bd189e8e4882776c700e1dae255cdf5","","Mozilla/5.0 (Windows NT 10.0; Win64; x64) AppleWebKit/537.36 (KHTML, like Gecko) Chrome/134.0.0.0 Safari/537.36","WebKit","Chrome","134.0.0.0","Windows","10.0","https://hz8g1ckzuq.cognition.run/","en-US,en;q=0.9","3yaa6b0udk0wysn","","32","[""White""]","No","Female","1714419.6999998093","null","","<p></p>","null","rating","tdc","repulsion_2","2","microwave ovens","null","null","null","null","null","null","2","","","","","","","","","","",""
"","","","","","rating_trial","survey-html-form","44","673921","0.0-3.0-1.20","4","1","2025-04-10 18:10:25","7bd189e8e4882776c700e1dae255cdf5","","Mozilla/5.0 (Windows NT 10.0; Win64; x64) AppleWebKit/537.36 (KHTML, like Gecko) Chrome/134.0.0.0 Safari/537.36","WebKit","Chrome","134.0.0.0","Windows","10.0","https://hz8g1ckzuq.cognition.run/","en-US,en;q=0.9","3yaa6b0udk0wysn","","32","[""White""]","No","Female","1714419.6999998093","9774","","","{""price_1"":""150"",""price_2"":""140"",""price_3"":""130""}","rating","tdc","repulsion_2","2","microwave ovens","null","null","null","null","null","null","2","30","40","20","100","90","100","Warranty","Cooking power","","",""
"","","","","","rating_trial_setup","html-keyboard-response","45","674227","0.0-3.0-0.21","4","1","2025-04-10 18:10:25","7bd189e8e4882776c700e1dae255cdf5","","Mozilla/5.0 (Windows NT 10.0; Win64; x64) AppleWebKit/537.36 (KHTML, like Gecko) Chrome/134.0.0.0 Safari/537.36","WebKit","Chrome","134.0.0.0","Windows","10.0","https://hz8g1ckzuq.cognition.run/","en-US,en;q=0.9","3yaa6b0udk0wysn","","32","[""White""]","No","Female","1714419.6999998093","null","","<p></p>","null","rating","dct","repulsion_1","1","laptops","null","null","null","null","null","null","1","","","","","","","","","","",""
"","","","","","rating_trial","survey-html-form","46","683145","0.0-3.0-1.21","4","1","2025-04-10 18:10:25","7bd189e8e4882776c700e1dae255cdf5","","Mozilla/5.0 (Windows NT 10.0; Win64; x64) AppleWebKit/537.36 (KHTML, like Gecko) Chrome/134.0.0.0 Safari/537.36","WebKit","Chrome","134.0.0.0","Windows","10.0","https://hz8g1ckzuq.cognition.run/","en-US,en;q=0.9","3yaa6b0udk0wysn","","32","[""White""]","No","Female","1714419.6999998093","8912","","","{""price_1"":""140"",""price_2"":""130"",""price_3"":""140""}","rating","dct","repulsion_1","1","laptops","null","null","null","null","null","null","1","100","90","100","30","40","25","Processing speed","Memory (RAM)","","",""
"","","","","","rating_trial_setup","html-keyboard-response","47","683449","0.0-3.0-0.22","4","1","2025-04-10 18:10:25","7bd189e8e4882776c700e1dae255cdf5","","Mozilla/5.0 (Windows NT 10.0; Win64; x64) AppleWebKit/537.36 (KHTML, like Gecko) Chrome/134.0.0.0 Safari/537.36","WebKit","Chrome","134.0.0.0","Windows","10.0","https://hz8g1ckzuq.cognition.run/","en-US,en;q=0.9","3yaa6b0udk0wysn","","32","[""White""]","No","Female","1714419.6999998093","null","","<p></p>","null","rating","wwb","catch","null","televisions","65","70","40","35","35","10","2","","","","","","","","","","",""
"","","","","","rating_trial","survey-html-form","48","715186","0.0-3.0-1.22","4","1","2025-04-10 18:10:25","7bd189e8e4882776c700e1dae255cdf5","","Mozilla/5.0 (Windows NT 10.0; Win64; x64) AppleWebKit/537.36 (KHTML, like Gecko) Chrome/134.0.0.0 Safari/537.36","WebKit","Chrome","134.0.0.0","Windows","10.0","https://hz8g1ckzuq.cognition.run/","en-US,en;q=0.9","3yaa6b0udk0wysn","","32","[""White""]","No","Female","1714419.6999998093","31732","","","{""price_1"":""150"",""price_2"":""140"",""price_3"":""130""}","rating","wwb","catch","null","televisions","65","70","40","35","35","10","2","null","null","null","null","null","null","Screen size","Average lifespan","","",""
"","","","","","rating_trial_setup","html-keyboard-response","49","715489","0.0-3.0-0.23","4","1","2025-04-10 18:10:25","7bd189e8e4882776c700e1dae255cdf5","","Mozilla/5.0 (Windows NT 10.0; Win64; x64) AppleWebKit/537.36 (KHTML, like Gecko) Chrome/134.0.0.0 Safari/537.36","WebKit","Chrome","134.0.0.0","Windows","10.0","https://hz8g1ckzuq.cognition.run/","en-US,en;q=0.9","3yaa6b0udk0wysn","","32","[""White""]","No","Female","1714419.6999998093","null","","<p></p>","null","rating","dct","repulsion_1","2","microwave ovens","null","null","null","null","null","null","2","","","","","","","","","","",""
"","","","","","rating_trial","survey-html-form","50","731353","0.0-3.0-1.23","4","1","2025-04-10 18:10:25","7bd189e8e4882776c700e1dae255cdf5","","Mozilla/5.0 (Windows NT 10.0; Win64; x64) AppleWebKit/537.36 (KHTML, like Gecko) Chrome/134.0.0.0 Safari/537.36","WebKit","Chrome","134.0.0.0","Windows","10.0","https://hz8g1ckzuq.cognition.run/","en-US,en;q=0.9","3yaa6b0udk0wysn","","32","[""White""]","No","Female","1714419.6999998093","15856","","","{""price_1"":""200"",""price_2"":""200"",""price_3"":""230""}","rating","dct","repulsion_1","2","microwave ovens","null","null","null","null","null","null","2","30","40","25","100","90","100","Warranty","Cooking power","","",""
"","","","","","rating_trial_setup","html-keyboard-response","51","731657","0.0-3.0-0.24","4","1","2025-04-10 18:10:25","7bd189e8e4882776c700e1dae255cdf5","","Mozilla/5.0 (Windows NT 10.0; Win64; x64) AppleWebKit/537.36 (KHTML, like Gecko) Chrome/134.0.0.0 Safari/537.36","WebKit","Chrome","134.0.0.0","Windows","10.0","https://hz8g1ckzuq.cognition.run/","en-US,en;q=0.9","3yaa6b0udk0wysn","","32","[""White""]","No","Female","1714419.6999998093","null","","<p></p>","null","rating","wwb","catch","null","microwave ovens","75","80","40","25","40","30","2","","","","","","","","","","",""
"","","","","","rating_trial","survey-html-form","52","745585","0.0-3.0-1.24","4","1","2025-04-10 18:10:25","7bd189e8e4882776c700e1dae255cdf5","","Mozilla/5.0 (Windows NT 10.0; Win64; x64) AppleWebKit/537.36 (KHTML, like Gecko) Chrome/134.0.0.0 Safari/537.36","WebKit","Chrome","134.0.0.0","Windows","10.0","https://hz8g1ckzuq.cognition.run/","en-US,en;q=0.9","3yaa6b0udk0wysn","","32","[""White""]","No","Female","1714419.6999998093","13925","","","{""price_1"":""130"",""price_2"":""140"",""price_3"":""180""}","rating","wwb","catch","null","microwave ovens","75","80","40","25","40","30","2","null","null","null","null","null","null","Warranty","Cooking power","","",""
"","","","","","rating_trial_setup","html-keyboard-response","53","745890","0.0-3.0-0.25","4","1","2025-04-10 18:10:25","7bd189e8e4882776c700e1dae255cdf5","","Mozilla/5.0 (Windows NT 10.0; Win64; x64) AppleWebKit/537.36 (KHTML, like Gecko) Chrome/134.0.0.0 Safari/537.36","WebKit","Chrome","134.0.0.0","Windows","10.0","https://hz8g1ckzuq.cognition.run/","en-US,en;q=0.9","3yaa6b0udk0wysn","","32","[""White""]","No","Female","1714419.6999998093","null","","<p></p>","null","rating","dct","repulsion_1","1","washing machines","null","null","null","null","null","null","1","","","","","","","","","","",""
"","","","","","rating_trial","survey-html-form","54","769457","0.0-3.0-1.25","4","1","2025-04-10 18:10:25","7bd189e8e4882776c700e1dae255cdf5","","Mozilla/5.0 (Windows NT 10.0; Win64; x64) AppleWebKit/537.36 (KHTML, like Gecko) Chrome/134.0.0.0 Safari/537.36","WebKit","Chrome","134.0.0.0","Windows","10.0","https://hz8g1ckzuq.cognition.run/","en-US,en;q=0.9","3yaa6b0udk0wysn","","32","[""White""]","No","Female","1714419.6999998093","23559","","","{""price_1"":""200"",""price_2"":""120"",""price_3"":""200""}","rating","dct","repulsion_1","1","washing machines","null","null","null","null","null","null","1","100","90","100","30","40","25","Average lifespan","Energy savings","","",""
"","","","","","rating_trial_setup","html-keyboard-response","55","769770","0.0-3.0-0.26","4","1","2025-04-10 18:10:25","7bd189e8e4882776c700e1dae255cdf5","","Mozilla/5.0 (Windows NT 10.0; Win64; x64) AppleWebKit/537.36 (KHTML, like Gecko) Chrome/134.0.0.0 Safari/537.36","WebKit","Chrome","134.0.0.0","Windows","10.0","https://hz8g1ckzuq.cognition.run/","en-US,en;q=0.9","3yaa6b0udk0wysn","","32","[""White""]","No","Female","1714419.6999998093","null","","<p></p>","null","rating","tcd","repulsion_1","2","washing machines","null","null","null","null","null","null","2","","","","","","","","","","",""
"","","","","","rating_trial","survey-html-form","56","790528","0.0-3.0-1.26","4","1","2025-04-10 18:10:25","7bd189e8e4882776c700e1dae255cdf5","","Mozilla/5.0 (Windows NT 10.0; Win64; x64) AppleWebKit/537.36 (KHTML, like Gecko) Chrome/134.0.0.0 Safari/537.36","WebKit","Chrome","134.0.0.0","Windows","10.0","https://hz8g1ckzuq.cognition.run/","en-US,en;q=0.9","3yaa6b0udk0wysn","","32","[""White""]","No","Female","1714419.6999998093","20752","","","{""price_1"":""194"",""price_2"":""150"",""price_3"":""200""}","rating","tcd","repulsion_1","2","washing machines","null","null","null","null","null","null","2","30","40","25","100","90","100","Average lifespan","Energy savings","","",""
"","","","","","rating_trial_setup","html-keyboard-response","57","790833","0.0-3.0-0.27","4","1","2025-04-10 18:10:25","7bd189e8e4882776c700e1dae255cdf5","","Mozilla/5.0 (Windows NT 10.0; Win64; x64) AppleWebKit/537.36 (KHTML, like Gecko) Chrome/134.0.0.0 Safari/537.36","WebKit","Chrome","134.0.0.0","Windows","10.0","https://hz8g1ckzuq.cognition.run/","en-US,en;q=0.9","3yaa6b0udk0wysn","","32","[""White""]","No","Female","1714419.6999998093","null","","<p></p>","null","rating","bww","catch","null","laptops","50","55","50","10","40","45","1","","","","","","","","","","",""
"","","","","","rating_trial","survey-html-form","58","805752","0.0-3.0-1.27","4","1","2025-04-10 18:10:25","7bd189e8e4882776c700e1dae255cdf5","","Mozilla/5.0 (Windows NT 10.0; Win64; x64) AppleWebKit/537.36 (KHTML, like Gecko) Chrome/134.0.0.0 Safari/537.36","WebKit","Chrome","134.0.0.0","Windows","10.0","https://hz8g1ckzuq.cognition.run/","en-US,en;q=0.9","3yaa6b0udk0wysn","","32","[""White""]","No","Female","1714419.6999998093","14909","","","{""price_1"":""170"",""price_2"":""140"",""price_3"":""110""}","rating","bww","catch","null","laptops","50","55","50","10","40","45","1","null","null","null","null","null","null","Processing speed","Memory (RAM)","","",""
"","","","","","rating_trial_setup","html-keyboard-response","59","806055","0.0-3.0-0.28","4","1","2025-04-10 18:10:25","7bd189e8e4882776c700e1dae255cdf5","","Mozilla/5.0 (Windows NT 10.0; Win64; x64) AppleWebKit/537.36 (KHTML, like Gecko) Chrome/134.0.0.0 Safari/537.36","WebKit","Chrome","134.0.0.0","Windows","10.0","https://hz8g1ckzuq.cognition.run/","en-US,en;q=0.9","3yaa6b0udk0wysn","","32","[""White""]","No","Female","1714419.6999998093","null","","<p></p>","null","rating","dtc","attraction_2","2","laptops","null","null","null","null","null","null","1","","","","","","","","","","",""
"","","","","","rating_trial","survey-html-form","60","817307","0.0-3.0-1.28","4","1","2025-04-10 18:10:25","7bd189e8e4882776c700e1dae255cdf5","","Mozilla/5.0 (Windows NT 10.0; Win64; x64) AppleWebKit/537.36 (KHTML, like Gecko) Chrome/134.0.0.0 Safari/537.36","WebKit","Chrome","134.0.0.0","Windows","10.0","https://hz8g1ckzuq.cognition.run/","en-US,en;q=0.9","3yaa6b0udk0wysn","","32","[""White""]","No","Female","1714419.6999998093","11246","","","{""price_1"":""120"",""price_2"":""140"",""price_3"":""130""}","rating","dtc","attraction_2","2","laptops","null","null","null","null","null","null","1","50","60","40","60","50","60","Processing speed","Memory (RAM)","","",""
"","","","","","rating_trial_setup","html-keyboard-response","61","817610","0.0-3.0-0.29","4","1","2025-04-10 18:10:25","7bd189e8e4882776c700e1dae255cdf5","","Mozilla/5.0 (Windows NT 10.0; Win64; x64) AppleWebKit/537.36 (KHTML, like Gecko) Chrome/134.0.0.0 Safari/537.36","WebKit","Chrome","134.0.0.0","Windows","10.0","https://hz8g1ckzuq.cognition.run/","en-US,en;q=0.9","3yaa6b0udk0wysn","","32","[""White""]","No","Female","1714419.6999998093","null","","<p></p>","null","rating","bww","catch","null","televisions","55","60","15","10","45","35","2","","","","","","","","","","",""
"","","","","","rating_trial","survey-html-form","62","841210","0.0-3.0-1.29","4","1","2025-04-10 18:10:25","7bd189e8e4882776c700e1dae255cdf5","","Mozilla/5.0 (Windows NT 10.0; Win64; x64) AppleWebKit/537.36 (KHTML, like Gecko) Chrome/134.0.0.0 Safari/537.36","WebKit","Chrome","134.0.0.0","Windows","10.0","https://hz8g1ckzuq.cognition.run/","en-US,en;q=0.9","3yaa6b0udk0wysn","","32","[""White""]","No","Female","1714419.6999998093","23596","","","{""price_1"":""130"",""price_2"":""140"",""price_3"":""150""}","rating","bww","catch","null","televisions","55","60","15","10","45","35","2","null","null","null","null","null","null","Screen size","Average lifespan","","",""
"","","","","","rating_trial_setup","html-keyboard-response","63","841515","0.0-3.0-0.30","4","1","2025-04-10 18:10:25","7bd189e8e4882776c700e1dae255cdf5","","Mozilla/5.0 (Windows NT 10.0; Win64; x64) AppleWebKit/537.36 (KHTML, like Gecko) Chrome/134.0.0.0 Safari/537.36","WebKit","Chrome","134.0.0.0","Windows","10.0","https://hz8g1ckzuq.cognition.run/","en-US,en;q=0.9","3yaa6b0udk0wysn","","32","[""White""]","No","Female","1714419.6999998093","null","","<p></p>","null","rating","dct","attraction_2","1","microwave ovens","null","null","null","null","null","null","2","","","","","","","","","","",""
"","","","","","rating_trial","survey-html-form","64","851362","0.0-3.0-1.30","4","1","2025-04-10 18:10:25","7bd189e8e4882776c700e1dae255cdf5","","Mozilla/5.0 (Windows NT 10.0; Win64; x64) AppleWebKit/537.36 (KHTML, like Gecko) Chrome/134.0.0.0 Safari/537.36","WebKit","Chrome","134.0.0.0","Windows","10.0","https://hz8g1ckzuq.cognition.run/","en-US,en;q=0.9","3yaa6b0udk0wysn","","32","[""White""]","No","Female","1714419.6999998093","9841","","","{""price_1"":""140"",""price_2"":""160"",""price_3"":""200""}","rating","dct","attraction_2","1","microwave ovens","null","null","null","null","null","null","2","60","50","60","50","60","40","Warranty","Cooking power","","",""
"","","","","","rating_trial_setup","html-keyboard-response","65","851666","0.0-3.0-0.31","4","1","2025-04-10 18:10:25","7bd189e8e4882776c700e1dae255cdf5","","Mozilla/5.0 (Windows NT 10.0; Win64; x64) AppleWebKit/537.36 (KHTML, like Gecko) Chrome/134.0.0.0 Safari/537.36","WebKit","Chrome","134.0.0.0","Windows","10.0","https://hz8g1ckzuq.cognition.run/","en-US,en;q=0.9","3yaa6b0udk0wysn","","32","[""White""]","No","Female","1714419.6999998093","null","","<p></p>","null","rating","cdt","repulsion_2","2","televisions","null","null","null","null","null","null","2","","","","","","","","","","",""
"","","","","","rating_trial","survey-html-form","66","867281","0.0-3.0-1.31","4","1","2025-04-10 18:10:25","7bd189e8e4882776c700e1dae255cdf5","","Mozilla/5.0 (Windows NT 10.0; Win64; x64) AppleWebKit/537.36 (KHTML, like Gecko) Chrome/134.0.0.0 Safari/537.36","WebKit","Chrome","134.0.0.0","Windows","10.0","https://hz8g1ckzuq.cognition.run/","en-US,en;q=0.9","3yaa6b0udk0wysn","","32","[""White""]","No","Female","1714419.6999998093","15611","","","{""price_1"":""150"",""price_2"":""160"",""price_3"":""200""}","rating","cdt","repulsion_2","2","televisions","null","null","null","null","null","null","2","30","40","20","100","90","100","Screen size","Average lifespan","","",""
"","","","","","rating_trial_setup","html-keyboard-response","67","867586","0.0-3.0-0.32","4","1","2025-04-10 18:10:25","7bd189e8e4882776c700e1dae255cdf5","","Mozilla/5.0 (Windows NT 10.0; Win64; x64) AppleWebKit/537.36 (KHTML, like Gecko) Chrome/134.0.0.0 Safari/537.36","WebKit","Chrome","134.0.0.0","Windows","10.0","https://hz8g1ckzuq.cognition.run/","en-US,en;q=0.9","3yaa6b0udk0wysn","","32","[""White""]","No","Female","1714419.6999998093","null","","<p></p>","null","rating","cdt","repulsion_2","2","laptops","null","null","null","null","null","null","2","","","","","","","","","","",""
"","","","","","rating_trial","survey-html-form","68","902401","0.0-3.0-1.32","4","1","2025-04-10 18:10:25","7bd189e8e4882776c700e1dae255cdf5","","Mozilla/5.0 (Windows NT 10.0; Win64; x64) AppleWebKit/537.36 (KHTML, like Gecko) Chrome/134.0.0.0 Safari/537.36","WebKit","Chrome","134.0.0.0","Windows","10.0","https://hz8g1ckzuq.cognition.run/","en-US,en;q=0.9","3yaa6b0udk0wysn","","32","[""White""]","No","Female","1714419.6999998093","34804","","","{""price_1"":""140"",""price_2"":""150"",""price_3"":""150""}","rating","cdt","repulsion_2","2","laptops","null","null","null","null","null","null","2","30","40","20","100","90","100","Processing speed","Memory (RAM)","","",""
"","","","","","rating_trial_setup","html-keyboard-response","69","902706","0.0-3.0-0.33","4","1","2025-04-10 18:10:25","7bd189e8e4882776c700e1dae255cdf5","","Mozilla/5.0 (Windows NT 10.0; Win64; x64) AppleWebKit/537.36 (KHTML, like Gecko) Chrome/134.0.0.0 Safari/537.36","WebKit","Chrome","134.0.0.0","Windows","10.0","https://hz8g1ckzuq.cognition.run/","en-US,en;q=0.9","3yaa6b0udk0wysn","","32","[""White""]","No","Female","1714419.6999998093","null","","<p></p>","null","rating","cdt","attraction_1","1","laptops","null","null","null","null","null","null","1","","","","","","","","","","",""
"","","","","","rating_trial","survey-html-form","70","924617","0.0-3.0-1.33","4","1","2025-04-10 18:10:25","7bd189e8e4882776c700e1dae255cdf5","","Mozilla/5.0 (Windows NT 10.0; Win64; x64) AppleWebKit/537.36 (KHTML, like Gecko) Chrome/134.0.0.0 Safari/537.36","WebKit","Chrome","134.0.0.0","Windows","10.0","https://hz8g1ckzuq.cognition.run/","en-US,en;q=0.9","3yaa6b0udk0wysn","","32","[""White""]","No","Female","1714419.6999998093","21904","","","{""price_1"":""140"",""price_2"":""140"",""price_3"":""130""}","rating","cdt","attraction_1","1","laptops","null","null","null","null","null","null","1","60","50","60","50","60","45","Processing speed","Memory (RAM)","","",""
"","","","","","rating_trial_setup","html-keyboard-response","71","924922","0.0-3.0-0.34","4","1","2025-04-10 18:10:25","7bd189e8e4882776c700e1dae255cdf5","","Mozilla/5.0 (Windows NT 10.0; Win64; x64) AppleWebKit/537.36 (KHTML, like Gecko) Chrome/134.0.0.0 Safari/537.36","WebKit","Chrome","134.0.0.0","Windows","10.0","https://hz8g1ckzuq.cognition.run/","en-US,en;q=0.9","3yaa6b0udk0wysn","","32","[""White""]","No","Female","1714419.6999998093","null","","<p></p>","null","rating","tcd","attraction_2","1","televisions","null","null","null","null","null","null","1","","","","","","","","","","",""
"","","","","","rating_trial","survey-html-form","72","938129","0.0-3.0-1.34","4","1","2025-04-10 18:10:25","7bd189e8e4882776c700e1dae255cdf5","","Mozilla/5.0 (Windows NT 10.0; Win64; x64) AppleWebKit/537.36 (KHTML, like Gecko) Chrome/134.0.0.0 Safari/537.36","WebKit","Chrome","134.0.0.0","Windows","10.0","https://hz8g1ckzuq.cognition.run/","en-US,en;q=0.9","3yaa6b0udk0wysn","","32","[""White""]","No","Female","1714419.6999998093","13202","","","{""price_1"":""150"",""price_2"":""130"",""price_3"":""120""}","rating","tcd","attraction_2","1","televisions","null","null","null","null","null","null","1","60","50","60","50","60","40","Screen size","Average lifespan","","",""
"","","","","","rating_trial_setup","html-keyboard-response","73","938433","0.0-3.0-0.35","4","1","2025-04-10 18:10:25","7bd189e8e4882776c700e1dae255cdf5","","Mozilla/5.0 (Windows NT 10.0; Win64; x64) AppleWebKit/537.36 (KHTML, like Gecko) Chrome/134.0.0.0 Safari/537.36","WebKit","Chrome","134.0.0.0","Windows","10.0","https://hz8g1ckzuq.cognition.run/","en-US,en;q=0.9","3yaa6b0udk0wysn","","32","[""White""]","No","Female","1714419.6999998093","null","","<p></p>","null","rating","dct","attraction_1","2","microwave ovens","null","null","null","null","null","null","2","","","","","","","","","","",""
"","","","","","rating_trial","survey-html-form","74","971497","0.0-3.0-1.35","4","1","2025-04-10 18:10:25","7bd189e8e4882776c700e1dae255cdf5","","Mozilla/5.0 (Windows NT 10.0; Win64; x64) AppleWebKit/537.36 (KHTML, like Gecko) Chrome/134.0.0.0 Safari/537.36","WebKit","Chrome","134.0.0.0","Windows","10.0","https://hz8g1ckzuq.cognition.run/","en-US,en;q=0.9","3yaa6b0udk0wysn","","32","[""White""]","No","Female","1714419.6999998093","33061","","","{""price_1"":""130"",""price_2"":""140"",""price_3"":""150""}","rating","dct","attraction_1","2","microwave ovens","null","null","null","null","null","null","2","50","60","45","60","50","60","Warranty","Cooking power","","",""
"","","","","","rating_trial_setup","html-keyboard-response","75","971802","0.0-3.0-0.36","4","1","2025-04-10 18:10:25","7bd189e8e4882776c700e1dae255cdf5","","Mozilla/5.0 (Windows NT 10.0; Win64; x64) AppleWebKit/537.36 (KHTML, like Gecko) Chrome/134.0.0.0 Safari/537.36","WebKit","Chrome","134.0.0.0","Windows","10.0","https://hz8g1ckzuq.cognition.run/","en-US,en;q=0.9","3yaa6b0udk0wysn","","32","[""White""]","No","Female","1714419.6999998093","null","","<p></p>","null","rating","tdc","attraction_2","1","washing machines","null","null","null","null","null","null","2","","","","","","","","","","",""
"","","","","","rating_trial","survey-html-form","76","1002977","0.0-3.0-1.36","4","1","2025-04-10 18:10:25","7bd189e8e4882776c700e1dae255cdf5","","Mozilla/5.0 (Windows NT 10.0; Win64; x64) AppleWebKit/537.36 (KHTML, like Gecko) Chrome/134.0.0.0 Safari/537.36","WebKit","Chrome","134.0.0.0","Windows","10.0","https://hz8g1ckzuq.cognition.run/","en-US,en;q=0.9","3yaa6b0udk0wysn","","32","[""White""]","No","Female","1714419.6999998093","31170","","","{""price_1"":""160"",""price_2"":""140"",""price_3"":""170""}","rating","tdc","attraction_2","1","washing machines","null","null","null","null","null","null","2","60","50","60","50","60","40","Average lifespan","Energy savings","","",""
"","","","","","rating_trial_setup","html-keyboard-response","77","1003280","0.0-3.0-0.37","4","1","2025-04-10 18:10:25","7bd189e8e4882776c700e1dae255cdf5","","Mozilla/5.0 (Windows NT 10.0; Win64; x64) AppleWebKit/537.36 (KHTML, like Gecko) Chrome/134.0.0.0 Safari/537.36","WebKit","Chrome","134.0.0.0","Windows","10.0","https://hz8g1ckzuq.cognition.run/","en-US,en;q=0.9","3yaa6b0udk0wysn","","32","[""White""]","No","Female","1714419.6999998093","null","","<p></p>","null","rating","cdt","repulsion_2","1","microwave ovens","null","null","null","null","null","null","1","","","","","","","","","","",""
"","","","","","rating_trial","survey-html-form","78","1046347","0.0-3.0-1.37","4","1","2025-04-10 18:10:25","7bd189e8e4882776c700e1dae255cdf5","","Mozilla/5.0 (Windows NT 10.0; Win64; x64) AppleWebKit/537.36 (KHTML, like Gecko) Chrome/134.0.0.0 Safari/537.36","WebKit","Chrome","134.0.0.0","Windows","10.0","https://hz8g1ckzuq.cognition.run/","en-US,en;q=0.9","3yaa6b0udk0wysn","","32","[""White""]","No","Female","1714419.6999998093","43061","","","{""price_1"":""200"",""price_2"":""170"",""price_3"":""190""}","rating","cdt","repulsion_2","1","microwave ovens","null","null","null","null","null","null","1","100","90","100","30","40","20","Warranty","Cooking power","","",""
"","","","","","rating_trial_setup","html-keyboard-response","79","1046650","0.0-3.0-0.38","4","1","2025-04-10 18:10:25","7bd189e8e4882776c700e1dae255cdf5","","Mozilla/5.0 (Windows NT 10.0; Win64; x64) AppleWebKit/537.36 (KHTML, like Gecko) Chrome/134.0.0.0 Safari/537.36","WebKit","Chrome","134.0.0.0","Windows","10.0","https://hz8g1ckzuq.cognition.run/","en-US,en;q=0.9","3yaa6b0udk0wysn","","32","[""White""]","No","Female","1714419.6999998093","null","","<p></p>","null","rating","wwb","catch","null","laptops","95","95","20","15","30","30","2","","","","","","","","","","",""
"","","","","","rating_trial","survey-html-form","80","1069209","0.0-3.0-1.38","4","1","2025-04-10 18:10:25","7bd189e8e4882776c700e1dae255cdf5","","Mozilla/5.0 (Windows NT 10.0; Win64; x64) AppleWebKit/537.36 (KHTML, like Gecko) Chrome/134.0.0.0 Safari/537.36","WebKit","Chrome","134.0.0.0","Windows","10.0","https://hz8g1ckzuq.cognition.run/","en-US,en;q=0.9","3yaa6b0udk0wysn","","32","[""White""]","No","Female","1714419.6999998093","22550","","","{""price_1"":""110"",""price_2"":""140"",""price_3"":""200""}","rating","wwb","catch","null","laptops","95","95","20","15","30","30","2","null","null","null","null","null","null","Processing speed","Memory (RAM)","","",""
"","","","","","rating_trial_setup","html-keyboard-response","81","1069517","0.0-3.0-0.39","4","1","2025-04-10 18:10:25","7bd189e8e4882776c700e1dae255cdf5","","Mozilla/5.0 (Windows NT 10.0; Win64; x64) AppleWebKit/537.36 (KHTML, like Gecko) Chrome/134.0.0.0 Safari/537.36","WebKit","Chrome","134.0.0.0","Windows","10.0","https://hz8g1ckzuq.cognition.run/","en-US,en;q=0.9","3yaa6b0udk0wysn","","32","[""White""]","No","Female","1714419.6999998093","null","","<p></p>","null","rating","ctd","attraction_2","2","televisions","null","null","null","null","null","null","2","","","","","","","","","","",""
"","","","","","rating_trial","survey-html-form","82","1091947","0.0-3.0-1.39","4","1","2025-04-10 18:10:25","7bd189e8e4882776c700e1dae255cdf5","","Mozilla/5.0 (Windows NT 10.0; Win64; x64) AppleWebKit/537.36 (KHTML, like Gecko) Chrome/134.0.0.0 Safari/537.36","WebKit","Chrome","134.0.0.0","Windows","10.0","https://hz8g1ckzuq.cognition.run/","en-US,en;q=0.9","3yaa6b0udk0wysn","","32","[""White""]","No","Female","1714419.6999998093","22418","","","{""price_1"":""200"",""price_2"":""230"",""price_3"":""240""}","rating","ctd","attraction_2","2","televisions","null","null","null","null","null","null","2","50","60","40","60","50","60","Screen size","Average lifespan","","",""
"","","","","","","instructions","83","1167001","0.0-4.0","4","1","2025-04-10 18:10:25","7bd189e8e4882776c700e1dae255cdf5","","Mozilla/5.0 (Windows NT 10.0; Win64; x64) AppleWebKit/537.36 (KHTML, like Gecko) Chrome/134.0.0.0 Safari/537.36","WebKit","Chrome","134.0.0.0","Windows","10.0","https://hz8g1ckzuq.cognition.run/","en-US,en;q=0.9","3yaa6b0udk0wysn","","32","[""White""]","No","Female","1714419.6999998093","75049","[{""page_index"":0,""viewing_time"":1745},{""page_index"":1,""viewing_time"":14832},{""page_index"":2,""viewing_time"":5616},{""page_index"":3,""viewing_time"":9375},{""page_index"":4,""viewing_time"":5369},{""page_index"":5,""viewing_time"":23072},{""page_index"":6,""viewing_time"":11288},{""page_index"":7,""viewing_time"":3752}]","","","","","","","","","","","","","","","","","","","","","","","","",""
"","","","","","choice_trial_setup","html-keyboard-response","84","1167307","0.0-5.0-0.0","4","1","2025-04-10 18:10:25","7bd189e8e4882776c700e1dae255cdf5","","Mozilla/5.0 (Windows NT 10.0; Win64; x64) AppleWebKit/537.36 (KHTML, like Gecko) Chrome/134.0.0.0 Safari/537.36","WebKit","Chrome","134.0.0.0","Windows","10.0","https://hz8g1ckzuq.cognition.run/","en-US,en;q=0.9","3yaa6b0udk0wysn","","32","[""White""]","No","Female","1714419.6999998093","null","","<p></p>","null","choice","cdt","repulsion_2","2","laptops","null","null","null","null","null","null","1","","","","","","","","","","",""
"","","","","","choice_trial","survey-html-form","85","1180297","0.0-5.0-1.0","4","1","2025-04-10 18:10:25","7bd189e8e4882776c700e1dae255cdf5","","Mozilla/5.0 (Windows NT 10.0; Win64; x64) AppleWebKit/537.36 (KHTML, like Gecko) Chrome/134.0.0.0 Safari/537.36","WebKit","Chrome","134.0.0.0","Windows","10.0","https://hz8g1ckzuq.cognition.run/","en-US,en;q=0.9","3yaa6b0udk0wysn","","32","[""White""]","No","Female","1714419.6999998093","12977","","","{""product_choice"":""A""}","choice","cdt","repulsion_2","2","laptops","null","null","null","null","null","null","1","30","40","20","100","90","100","Processing speed","Memory (RAM)","","",""
"","","","","","choice_trial_setup","html-keyboard-response","86","1180602","0.0-5.0-0.1","4","1","2025-04-10 18:10:25","7bd189e8e4882776c700e1dae255cdf5","","Mozilla/5.0 (Windows NT 10.0; Win64; x64) AppleWebKit/537.36 (KHTML, like Gecko) Chrome/134.0.0.0 Safari/537.36","WebKit","Chrome","134.0.0.0","Windows","10.0","https://hz8g1ckzuq.cognition.run/","en-US,en;q=0.9","3yaa6b0udk0wysn","","32","[""White""]","No","Female","1714419.6999998093","null","","<p></p>","null","choice","tdc","repulsion_2","2","washing machines","null","null","null","null","null","null","2","","","","","","","","","","",""
"","","","","","choice_trial","survey-html-form","87","1187482","0.0-5.0-1.1","4","1","2025-04-10 18:10:25","7bd189e8e4882776c700e1dae255cdf5","","Mozilla/5.0 (Windows NT 10.0; Win64; x64) AppleWebKit/537.36 (KHTML, like Gecko) Chrome/134.0.0.0 Safari/537.36","WebKit","Chrome","134.0.0.0","Windows","10.0","https://hz8g1ckzuq.cognition.run/","en-US,en;q=0.9","3yaa6b0udk0wysn","","32","[""White""]","No","Female","1714419.6999998093","6873","","","{""product_choice"":""C""}","choice","tdc","repulsion_2","2","washing machines","null","null","null","null","null","null","2","30","40","20","100","90","100","Average lifespan","Energy savings","","",""
"","","","","","choice_trial_setup","html-keyboard-response","88","1187785","0.0-5.0-0.2","4","1","2025-04-10 18:10:25","7bd189e8e4882776c700e1dae255cdf5","","Mozilla/5.0 (Windows NT 10.0; Win64; x64) AppleWebKit/537.36 (KHTML, like Gecko) Chrome/134.0.0.0 Safari/537.36","WebKit","Chrome","134.0.0.0","Windows","10.0","https://hz8g1ckzuq.cognition.run/","en-US,en;q=0.9","3yaa6b0udk0wysn","","32","[""White""]","No","Female","1714419.6999998093","null","","<p></p>","null","choice","tcd","repulsion_2","1","washing machines","null","null","null","null","null","null","1","","","","","","","","","","",""
"","","","","","choice_trial","survey-html-form","89","1191825","0.0-5.0-1.2","4","1","2025-04-10 18:10:25","7bd189e8e4882776c700e1dae255cdf5","","Mozilla/5.0 (Windows NT 10.0; Win64; x64) AppleWebKit/537.36 (KHTML, like Gecko) Chrome/134.0.0.0 Safari/537.36","WebKit","Chrome","134.0.0.0","Windows","10.0","https://hz8g1ckzuq.cognition.run/","en-US,en;q=0.9","3yaa6b0udk0wysn","","32","[""White""]","No","Female","1714419.6999998093","4037","","","{""product_choice"":""B""}","choice","tcd","repulsion_2","1","washing machines","null","null","null","null","null","null","1","100","90","100","30","40","20","Average lifespan","Energy savings","","",""
"","","","","","choice_trial_setup","html-keyboard-response","90","1192129","0.0-5.0-0.3","4","1","2025-04-10 18:10:25","7bd189e8e4882776c700e1dae255cdf5","","Mozilla/5.0 (Windows NT 10.0; Win64; x64) AppleWebKit/537.36 (KHTML, like Gecko) Chrome/134.0.0.0 Safari/537.36","WebKit","Chrome","134.0.0.0","Windows","10.0","https://hz8g1ckzuq.cognition.run/","en-US,en;q=0.9","3yaa6b0udk0wysn","","32","[""White""]","No","Female","1714419.6999998093","null","","<p></p>","null","choice","cdt","repulsion_2","1","televisions","null","null","null","null","null","null","1","","","","","","","","","","",""
"","","","","","choice_trial","survey-html-form","91","1195289","0.0-5.0-1.3","4","1","2025-04-10 18:10:25","7bd189e8e4882776c700e1dae255cdf5","","Mozilla/5.0 (Windows NT 10.0; Win64; x64) AppleWebKit/537.36 (KHTML, like Gecko) Chrome/134.0.0.0 Safari/537.36","WebKit","Chrome","134.0.0.0","Windows","10.0","https://hz8g1ckzuq.cognition.run/","en-US,en;q=0.9","3yaa6b0udk0wysn","","32","[""White""]","No","Female","1714419.6999998093","3153","","","{""product_choice"":""A""}","choice","cdt","repulsion_2","1","televisions","null","null","null","null","null","null","1","100","90","100","30","40","20","Screen size","Average lifespan","","",""
"","","","","","choice_trial_setup","html-keyboard-response","92","1195593","0.0-5.0-0.4","4","1","2025-04-10 18:10:25","7bd189e8e4882776c700e1dae255cdf5","","Mozilla/5.0 (Windows NT 10.0; Win64; x64) AppleWebKit/537.36 (KHTML, like Gecko) Chrome/134.0.0.0 Safari/537.36","WebKit","Chrome","134.0.0.0","Windows","10.0","https://hz8g1ckzuq.cognition.run/","en-US,en;q=0.9","3yaa6b0udk0wysn","","32","[""White""]","No","Female","1714419.6999998093","null","","<p></p>","null","choice","tdc","attraction_1","1","microwave ovens","null","null","null","null","null","null","2","","","","","","","","","","",""
"","","","","","choice_trial","survey-html-form","93","1199304","0.0-5.0-1.4","4","1","2025-04-10 18:10:25","7bd189e8e4882776c700e1dae255cdf5","","Mozilla/5.0 (Windows NT 10.0; Win64; x64) AppleWebKit/537.36 (KHTML, like Gecko) Chrome/134.0.0.0 Safari/537.36","WebKit","Chrome","134.0.0.0","Windows","10.0","https://hz8g1ckzuq.cognition.run/","en-US,en;q=0.9","3yaa6b0udk0wysn","","32","[""White""]","No","Female","1714419.6999998093","3704","","","{""product_choice"":""C""}","choice","tdc","attraction_1","1","microwave ovens","null","null","null","null","null","null","2","60","50","60","50","60","45","Warranty","Cooking power","","",""
"","","","","","choice_trial_setup","html-keyboard-response","94","1199607","0.0-5.0-0.5","4","1","2025-04-10 18:10:25","7bd189e8e4882776c700e1dae255cdf5","","Mozilla/5.0 (Windows NT 10.0; Win64; x64) AppleWebKit/537.36 (KHTML, like Gecko) Chrome/134.0.0.0 Safari/537.36","WebKit","Chrome","134.0.0.0","Windows","10.0","https://hz8g1ckzuq.cognition.run/","en-US,en;q=0.9","3yaa6b0udk0wysn","","32","[""White""]","No","Female","1714419.6999998093","null","","<p></p>","null","choice","tcd","repulsion_1","1","washing machines","null","null","null","null","null","null","2","","","","","","","","","","",""
"","","","","","choice_trial","survey-html-form","95","1205210","0.0-5.0-1.5","4","1","2025-04-10 18:10:25","7bd189e8e4882776c700e1dae255cdf5","","Mozilla/5.0 (Windows NT 10.0; Win64; x64) AppleWebKit/537.36 (KHTML, like Gecko) Chrome/134.0.0.0 Safari/537.36","WebKit","Chrome","134.0.0.0","Windows","10.0","https://hz8g1ckzuq.cognition.run/","en-US,en;q=0.9","3yaa6b0udk0wysn","","32","[""White""]","No","Female","1714419.6999998093","5599","","","{""product_choice"":""B""}","choice","tcd","repulsion_1","1","washing machines","null","null","null","null","null","null","2","100","90","100","30","40","25","Average lifespan","Energy savings","","",""
"","","","","","choice_trial_setup","html-keyboard-response","96","1205517","0.0-5.0-0.6","4","1","2025-04-10 18:10:25","7bd189e8e4882776c700e1dae255cdf5","","Mozilla/5.0 (Windows NT 10.0; Win64; x64) AppleWebKit/537.36 (KHTML, like Gecko) Chrome/134.0.0.0 Safari/537.36","WebKit","Chrome","134.0.0.0","Windows","10.0","https://hz8g1ckzuq.cognition.run/","en-US,en;q=0.9","3yaa6b0udk0wysn","","32","[""White""]","No","Female","1714419.6999998093","null","","<p></p>","null","choice","bww","catch","null","washing machines","75","75","35","30","50","40","1","","","","","","","","","","",""
"","","","","","choice_trial","survey-html-form","97","1210356","0.0-5.0-1.6","4","1","2025-04-10 18:10:25","7bd189e8e4882776c700e1dae255cdf5","","Mozilla/5.0 (Windows NT 10.0; Win64; x64) AppleWebKit/537.36 (KHTML, like Gecko) Chrome/134.0.0.0 Safari/537.36","WebKit","Chrome","134.0.0.0","Windows","10.0","https://hz8g1ckzuq.cognition.run/","en-US,en;q=0.9","3yaa6b0udk0wysn","","32","[""White""]","No","Female","1714419.6999998093","4824","","","{""product_choice"":""A""}","choice","bww","catch","null","washing machines","75","75","35","30","50","40","1","null","null","null","null","null","null","Average lifespan","Energy savings","","",""
"","","","","","choice_trial_setup","html-keyboard-response","98","1210662","0.0-5.0-0.7","4","1","2025-04-10 18:10:25","7bd189e8e4882776c700e1dae255cdf5","","Mozilla/5.0 (Windows NT 10.0; Win64; x64) AppleWebKit/537.36 (KHTML, like Gecko) Chrome/134.0.0.0 Safari/537.36","WebKit","Chrome","134.0.0.0","Windows","10.0","https://hz8g1ckzuq.cognition.run/","en-US,en;q=0.9","3yaa6b0udk0wysn","","32","[""White""]","No","Female","1714419.6999998093","null","","<p></p>","null","choice","dtc","attraction_1","2","washing machines","null","null","null","null","null","null","1","","","","","","","","","","",""
"","","","","","choice_trial","survey-html-form","99","1217162","0.0-5.0-1.7","4","1","2025-04-10 18:10:25","7bd189e8e4882776c700e1dae255cdf5","","Mozilla/5.0 (Windows NT 10.0; Win64; x64) AppleWebKit/537.36 (KHTML, like Gecko) Chrome/134.0.0.0 Safari/537.36","WebKit","Chrome","134.0.0.0","Windows","10.0","https://hz8g1ckzuq.cognition.run/","en-US,en;q=0.9","3yaa6b0udk0wysn","","32","[""White""]","No","Female","1714419.6999998093","6493","","","{""product_choice"":""B""}","choice","dtc","attraction_1","2","washing machines","null","null","null","null","null","null","1","50","60","45","60","50","60","Average lifespan","Energy savings","","",""
"","","","","","choice_trial_setup","html-keyboard-response","100","1217467","0.0-5.0-0.8","4","1","2025-04-10 18:10:25","7bd189e8e4882776c700e1dae255cdf5","","Mozilla/5.0 (Windows NT 10.0; Win64; x64) AppleWebKit/537.36 (KHTML, like Gecko) Chrome/134.0.0.0 Safari/537.36","WebKit","Chrome","134.0.0.0","Windows","10.0","https://hz8g1ckzuq.cognition.run/","en-US,en;q=0.9","3yaa6b0udk0wysn","","32","[""White""]","No","Female","1714419.6999998093","null","","<p></p>","null","choice","tcd","attraction_1","1","laptops","null","null","null","null","null","null","1","","","","","","","","","","",""
"","","","","","choice_trial","survey-html-form","101","1226298","0.0-5.0-1.8","4","1","2025-04-10 18:10:25","7bd189e8e4882776c700e1dae255cdf5","","Mozilla/5.0 (Windows NT 10.0; Win64; x64) AppleWebKit/537.36 (KHTML, like Gecko) Chrome/134.0.0.0 Safari/537.36","WebKit","Chrome","134.0.0.0","Windows","10.0","https://hz8g1ckzuq.cognition.run/","en-US,en;q=0.9","3yaa6b0udk0wysn","","32","[""White""]","No","Female","1714419.6999998093","8827","","","{""product_choice"":""A""}","choice","tcd","attraction_1","1","laptops","null","null","null","null","null","null","1","60","50","60","50","60","45","Processing speed","Memory (RAM)","","",""
"","","","","","choice_trial_setup","html-keyboard-response","102","1226604","0.0-5.0-0.9","4","1","2025-04-10 18:10:25","7bd189e8e4882776c700e1dae255cdf5","","Mozilla/5.0 (Windows NT 10.0; Win64; x64) AppleWebKit/537.36 (KHTML, like Gecko) Chrome/134.0.0.0 Safari/537.36","WebKit","Chrome","134.0.0.0","Windows","10.0","https://hz8g1ckzuq.cognition.run/","en-US,en;q=0.9","3yaa6b0udk0wysn","","32","[""White""]","No","Female","1714419.6999998093","null","","<p></p>","null","choice","wwb","catch","null","laptops","90","55","5","40","15","35","1","","","","","","","","","","",""
"","","","","","choice_trial","survey-html-form","103","1229089","0.0-5.0-1.9","4","1","2025-04-10 18:10:25","7bd189e8e4882776c700e1dae255cdf5","","Mozilla/5.0 (Windows NT 10.0; Win64; x64) AppleWebKit/537.36 (KHTML, like Gecko) Chrome/134.0.0.0 Safari/537.36","WebKit","Chrome","134.0.0.0","Windows","10.0","https://hz8g1ckzuq.cognition.run/","en-US,en;q=0.9","3yaa6b0udk0wysn","","32","[""White""]","No","Female","1714419.6999998093","2475","","","{""product_choice"":""C""}","choice","wwb","catch","null","laptops","90","55","5","40","15","35","1","null","null","null","null","null","null","Processing speed","Memory (RAM)","","",""
"","","","","","choice_trial_setup","html-keyboard-response","104","1229396","0.0-5.0-0.10","4","1","2025-04-10 18:10:25","7bd189e8e4882776c700e1dae255cdf5","","Mozilla/5.0 (Windows NT 10.0; Win64; x64) AppleWebKit/537.36 (KHTML, like Gecko) Chrome/134.0.0.0 Safari/537.36","WebKit","Chrome","134.0.0.0","Windows","10.0","https://hz8g1ckzuq.cognition.run/","en-US,en;q=0.9","3yaa6b0udk0wysn","","32","[""White""]","No","Female","1714419.6999998093","null","","<p></p>","null","choice","tdc","attraction_2","2","laptops","null","null","null","null","null","null","1","","","","","","","","","","",""
"","","","","","choice_trial","survey-html-form","105","1235562","0.0-5.0-1.10","4","1","2025-04-10 18:10:25","7bd189e8e4882776c700e1dae255cdf5","","Mozilla/5.0 (Windows NT 10.0; Win64; x64) AppleWebKit/537.36 (KHTML, like Gecko) Chrome/134.0.0.0 Safari/537.36","WebKit","Chrome","134.0.0.0","Windows","10.0","https://hz8g1ckzuq.cognition.run/","en-US,en;q=0.9","3yaa6b0udk0wysn","","32","[""White""]","No","Female","1714419.6999998093","6159","","","{""product_choice"":""C""}","choice","tdc","attraction_2","2","laptops","null","null","null","null","null","null","1","50","60","40","60","50","60","Processing speed","Memory (RAM)","","",""
"","","","","","choice_trial_setup","html-keyboard-response","106","1235867","0.0-5.0-0.11","4","1","2025-04-10 18:10:25","7bd189e8e4882776c700e1dae255cdf5","","Mozilla/5.0 (Windows NT 10.0; Win64; x64) AppleWebKit/537.36 (KHTML, like Gecko) Chrome/134.0.0.0 Safari/537.36","WebKit","Chrome","134.0.0.0","Windows","10.0","https://hz8g1ckzuq.cognition.run/","en-US,en;q=0.9","3yaa6b0udk0wysn","","32","[""White""]","No","Female","1714419.6999998093","null","","<p></p>","null","choice","cdt","attraction_2","1","laptops","null","null","null","null","null","null","2","","","","","","","","","","",""
"","","","","","choice_trial","survey-html-form","107","1243881","0.0-5.0-1.11","4","1","2025-04-10 18:10:25","7bd189e8e4882776c700e1dae255cdf5","","Mozilla/5.0 (Windows NT 10.0; Win64; x64) AppleWebKit/537.36 (KHTML, like Gecko) Chrome/134.0.0.0 Safari/537.36","WebKit","Chrome","134.0.0.0","Windows","10.0","https://hz8g1ckzuq.cognition.run/","en-US,en;q=0.9","3yaa6b0udk0wysn","","32","[""White""]","No","Female","1714419.6999998093","8007","","","{""product_choice"":""C""}","choice","cdt","attraction_2","1","laptops","null","null","null","null","null","null","2","60","50","60","50","60","40","Processing speed","Memory (RAM)","","",""
"","","","","","choice_trial_setup","html-keyboard-response","108","1244185","0.0-5.0-0.12","4","1","2025-04-10 18:10:25","7bd189e8e4882776c700e1dae255cdf5","","Mozilla/5.0 (Windows NT 10.0; Win64; x64) AppleWebKit/537.36 (KHTML, like Gecko) Chrome/134.0.0.0 Safari/537.36","WebKit","Chrome","134.0.0.0","Windows","10.0","https://hz8g1ckzuq.cognition.run/","en-US,en;q=0.9","3yaa6b0udk0wysn","","32","[""White""]","No","Female","1714419.6999998093","null","","<p></p>","null","choice","wwb","catch","null","televisions","75","50","20","15","15","35","1","","","","","","","","","","",""
"","","","","","choice_trial","survey-html-form","109","1249362","0.0-5.0-1.12","4","1","2025-04-10 18:10:25","7bd189e8e4882776c700e1dae255cdf5","","Mozilla/5.0 (Windows NT 10.0; Win64; x64) AppleWebKit/537.36 (KHTML, like Gecko) Chrome/134.0.0.0 Safari/537.36","WebKit","Chrome","134.0.0.0","Windows","10.0","https://hz8g1ckzuq.cognition.run/","en-US,en;q=0.9","3yaa6b0udk0wysn","","32","[""White""]","No","Female","1714419.6999998093","5171","","","{""product_choice"":""C""}","choice","wwb","catch","null","televisions","75","50","20","15","15","35","1","null","null","null","null","null","null","Screen size","Average lifespan","","",""
"","","","","","choice_trial_setup","html-keyboard-response","110","1249668","0.0-5.0-0.13","4","1","2025-04-10 18:10:25","7bd189e8e4882776c700e1dae255cdf5","","Mozilla/5.0 (Windows NT 10.0; Win64; x64) AppleWebKit/537.36 (KHTML, like Gecko) Chrome/134.0.0.0 Safari/537.36","WebKit","Chrome","134.0.0.0","Windows","10.0","https://hz8g1ckzuq.cognition.run/","en-US,en;q=0.9","3yaa6b0udk0wysn","","32","[""White""]","No","Female","1714419.6999998093","null","","<p></p>","null","choice","tcd","attraction_2","2","microwave ovens","null","null","null","null","null","null","2","","","","","","","","","","",""
"","","","","","choice_trial","survey-html-form","111","1255065","0.0-5.0-1.13","4","1","2025-04-10 18:10:25","7bd189e8e4882776c700e1dae255cdf5","","Mozilla/5.0 (Windows NT 10.0; Win64; x64) AppleWebKit/537.36 (KHTML, like Gecko) Chrome/134.0.0.0 Safari/537.36","WebKit","Chrome","134.0.0.0","Windows","10.0","https://hz8g1ckzuq.cognition.run/","en-US,en;q=0.9","3yaa6b0udk0wysn","","32","[""White""]","No","Female","1714419.6999998093","5390","","","{""product_choice"":""B""}","choice","tcd","attraction_2","2","microwave ovens","null","null","null","null","null","null","2","50","60","40","60","50","60","Warranty","Cooking power","","",""
"","","","","","choice_trial_setup","html-keyboard-response","112","1255370","0.0-5.0-0.14","4","1","2025-04-10 18:10:25","7bd189e8e4882776c700e1dae255cdf5","","Mozilla/5.0 (Windows NT 10.0; Win64; x64) AppleWebKit/537.36 (KHTML, like Gecko) Chrome/134.0.0.0 Safari/537.36","WebKit","Chrome","134.0.0.0","Windows","10.0","https://hz8g1ckzuq.cognition.run/","en-US,en;q=0.9","3yaa6b0udk0wysn","","32","[""White""]","No","Female","1714419.6999998093","null","","<p></p>","null","choice","dtc","repulsion_1","1","televisions","null","null","null","null","null","null","1","","","","","","","","","","",""
"","","","","","choice_trial","survey-html-form","113","1262897","0.0-5.0-1.14","4","1","2025-04-10 18:10:25","7bd189e8e4882776c700e1dae255cdf5","","Mozilla/5.0 (Windows NT 10.0; Win64; x64) AppleWebKit/537.36 (KHTML, like Gecko) Chrome/134.0.0.0 Safari/537.36","WebKit","Chrome","134.0.0.0","Windows","10.0","https://hz8g1ckzuq.cognition.run/","en-US,en;q=0.9","3yaa6b0udk0wysn","","32","[""White""]","No","Female","1714419.6999998093","7520","","","{""product_choice"":""C""}","choice","dtc","repulsion_1","1","televisions","null","null","null","null","null","null","1","100","90","100","30","40","25","Screen size","Average lifespan","","",""
"","","","","","choice_trial_setup","html-keyboard-response","114","1263202","0.0-5.0-0.15","4","1","2025-04-10 18:10:25","7bd189e8e4882776c700e1dae255cdf5","","Mozilla/5.0 (Windows NT 10.0; Win64; x64) AppleWebKit/537.36 (KHTML, like Gecko) Chrome/134.0.0.0 Safari/537.36","WebKit","Chrome","134.0.0.0","Windows","10.0","https://hz8g1ckzuq.cognition.run/","en-US,en;q=0.9","3yaa6b0udk0wysn","","32","[""White""]","No","Female","1714419.6999998093","null","","<p></p>","null","choice","cdt","attraction_2","1","televisions","null","null","null","null","null","null","2","","","","","","","","","","",""
"","","","","","choice_trial","survey-html-form","115","1267891","0.0-5.0-1.15","4","1","2025-04-10 18:10:25","7bd189e8e4882776c700e1dae255cdf5","","Mozilla/5.0 (Windows NT 10.0; Win64; x64) AppleWebKit/537.36 (KHTML, like Gecko) Chrome/134.0.0.0 Safari/537.36","WebKit","Chrome","134.0.0.0","Windows","10.0","https://hz8g1ckzuq.cognition.run/","en-US,en;q=0.9","3yaa6b0udk0wysn","","32","[""White""]","No","Female","1714419.6999998093","4681","","","{""product_choice"":""A""}","choice","cdt","attraction_2","1","televisions","null","null","null","null","null","null","2","60","50","60","50","60","40","Screen size","Average lifespan","","",""
"","","","","","choice_trial_setup","html-keyboard-response","116","1268198","0.0-5.0-0.16","4","1","2025-04-10 18:10:25","7bd189e8e4882776c700e1dae255cdf5","","Mozilla/5.0 (Windows NT 10.0; Win64; x64) AppleWebKit/537.36 (KHTML, like Gecko) Chrome/134.0.0.0 Safari/537.36","WebKit","Chrome","134.0.0.0","Windows","10.0","https://hz8g1ckzuq.cognition.run/","en-US,en;q=0.9","3yaa6b0udk0wysn","","32","[""White""]","No","Female","1714419.6999998093","null","","<p></p>","null","choice","dct","attraction_2","1","washing machines","null","null","null","null","null","null","2","","","","","","","","","","",""
"","","","","","choice_trial","survey-html-form","117","1272282","0.0-5.0-1.16","4","1","2025-04-10 18:10:25","7bd189e8e4882776c700e1dae255cdf5","","Mozilla/5.0 (Windows NT 10.0; Win64; x64) AppleWebKit/537.36 (KHTML, like Gecko) Chrome/134.0.0.0 Safari/537.36","WebKit","Chrome","134.0.0.0","Windows","10.0","https://hz8g1ckzuq.cognition.run/","en-US,en;q=0.9","3yaa6b0udk0wysn","","32","[""White""]","No","Female","1714419.6999998093","4076","","","{""product_choice"":""A""}","choice","dct","attraction_2","1","washing machines","null","null","null","null","null","null","2","60","50","60","50","60","40","Average lifespan","Energy savings","","",""
"","","","","","choice_trial_setup","html-keyboard-response","118","1272589","0.0-5.0-0.17","4","1","2025-04-10 18:10:25","7bd189e8e4882776c700e1dae255cdf5","","Mozilla/5.0 (Windows NT 10.0; Win64; x64) AppleWebKit/537.36 (KHTML, like Gecko) Chrome/134.0.0.0 Safari/537.36","WebKit","Chrome","134.0.0.0","Windows","10.0","https://hz8g1ckzuq.cognition.run/","en-US,en;q=0.9","3yaa6b0udk0wysn","","32","[""White""]","No","Female","1714419.6999998093","null","","<p></p>","null","choice","bww","catch","null","laptops","65","85","20","10","45","45","1","","","","","","","","","","",""
"","","","","","choice_trial","survey-html-form","119","1276107","0.0-5.0-1.17","4","1","2025-04-10 18:10:25","7bd189e8e4882776c700e1dae255cdf5","","Mozilla/5.0 (Windows NT 10.0; Win64; x64) AppleWebKit/537.36 (KHTML, like Gecko) Chrome/134.0.0.0 Safari/537.36","WebKit","Chrome","134.0.0.0","Windows","10.0","https://hz8g1ckzuq.cognition.run/","en-US,en;q=0.9","3yaa6b0udk0wysn","","32","[""White""]","No","Female","1714419.6999998093","3510","","","{""product_choice"":""A""}","choice","bww","catch","null","laptops","65","85","20","10","45","45","1","null","null","null","null","null","null","Processing speed","Memory (RAM)","","",""
"","","","","","choice_trial_setup","html-keyboard-response","120","1276415","0.0-5.0-0.18","4","1","2025-04-10 18:10:25","7bd189e8e4882776c700e1dae255cdf5","","Mozilla/5.0 (Windows NT 10.0; Win64; x64) AppleWebKit/537.36 (KHTML, like Gecko) Chrome/134.0.0.0 Safari/537.36","WebKit","Chrome","134.0.0.0","Windows","10.0","https://hz8g1ckzuq.cognition.run/","en-US,en;q=0.9","3yaa6b0udk0wysn","","32","[""White""]","No","Female","1714419.6999998093","null","","<p></p>","null","choice","ctd","attraction_1","2","televisions","null","null","null","null","null","null","2","","","","","","","","","","",""
"","","","","","choice_trial","survey-html-form","121","1282545","0.0-5.0-1.18","4","1","2025-04-10 18:10:25","7bd189e8e4882776c700e1dae255cdf5","","Mozilla/5.0 (Windows NT 10.0; Win64; x64) AppleWebKit/537.36 (KHTML, like Gecko) Chrome/134.0.0.0 Safari/537.36","WebKit","Chrome","134.0.0.0","Windows","10.0","https://hz8g1ckzuq.cognition.run/","en-US,en;q=0.9","3yaa6b0udk0wysn","","32","[""White""]","No","Female","1714419.6999998093","6124","","","{""product_choice"":""A""}","choice","ctd","attraction_1","2","televisions","null","null","null","null","null","null","2","50","60","45","60","50","60","Screen size","Average lifespan","","",""
"","","","","","choice_trial_setup","html-keyboard-response","122","1282850","0.0-5.0-0.19","4","1","2025-04-10 18:10:25","7bd189e8e4882776c700e1dae255cdf5","","Mozilla/5.0 (Windows NT 10.0; Win64; x64) AppleWebKit/537.36 (KHTML, like Gecko) Chrome/134.0.0.0 Safari/537.36","WebKit","Chrome","134.0.0.0","Windows","10.0","https://hz8g1ckzuq.cognition.run/","en-US,en;q=0.9","3yaa6b0udk0wysn","","32","[""White""]","No","Female","1714419.6999998093","null","","<p></p>","null","choice","ctd","attraction_2","2","televisions","null","null","null","null","null","null","1","","","","","","","","","","",""
"","","","","","choice_trial","survey-html-form","123","1286482","0.0-5.0-1.19","4","1","2025-04-10 18:10:25","7bd189e8e4882776c700e1dae255cdf5","","Mozilla/5.0 (Windows NT 10.0; Win64; x64) AppleWebKit/537.36 (KHTML, like Gecko) Chrome/134.0.0.0 Safari/537.36","WebKit","Chrome","134.0.0.0","Windows","10.0","https://hz8g1ckzuq.cognition.run/","en-US,en;q=0.9","3yaa6b0udk0wysn","","32","[""White""]","No","Female","1714419.6999998093","3616","","","{""product_choice"":""A""}","choice","ctd","attraction_2","2","televisions","null","null","null","null","null","null","1","50","60","40","60","50","60","Screen size","Average lifespan","","",""
"","","","","","choice_trial_setup","html-keyboard-response","124","1286790","0.0-5.0-0.20","4","1","2025-04-10 18:10:25","7bd189e8e4882776c700e1dae255cdf5","","Mozilla/5.0 (Windows NT 10.0; Win64; x64) AppleWebKit/537.36 (KHTML, like Gecko) Chrome/134.0.0.0 Safari/537.36","WebKit","Chrome","134.0.0.0","Windows","10.0","https://hz8g1ckzuq.cognition.run/","en-US,en;q=0.9","3yaa6b0udk0wysn","","32","[""White""]","No","Female","1714419.6999998093","null","","<p></p>","null","choice","dtc","repulsion_1","2","laptops","null","null","null","null","null","null","2","","","","","","","","","","",""
"","","","","","choice_trial","survey-html-form","125","1290801","0.0-5.0-1.20","4","1","2025-04-10 18:10:25","7bd189e8e4882776c700e1dae255cdf5","","Mozilla/5.0 (Windows NT 10.0; Win64; x64) AppleWebKit/537.36 (KHTML, like Gecko) Chrome/134.0.0.0 Safari/537.36","WebKit","Chrome","134.0.0.0","Windows","10.0","https://hz8g1ckzuq.cognition.run/","en-US,en;q=0.9","3yaa6b0udk0wysn","","32","[""White""]","No","Female","1714419.6999998093","4004","","","{""product_choice"":""C""}","choice","dtc","repulsion_1","2","laptops","null","null","null","null","null","null","2","30","40","25","100","90","100","Processing speed","Memory (RAM)","","",""
"","","","","","choice_trial_setup","html-keyboard-response","126","1291109","0.0-5.0-0.21","4","1","2025-04-10 18:10:25","7bd189e8e4882776c700e1dae255cdf5","","Mozilla/5.0 (Windows NT 10.0; Win64; x64) AppleWebKit/537.36 (KHTML, like Gecko) Chrome/134.0.0.0 Safari/537.36","WebKit","Chrome","134.0.0.0","Windows","10.0","https://hz8g1ckzuq.cognition.run/","en-US,en;q=0.9","3yaa6b0udk0wysn","","32","[""White""]","No","Female","1714419.6999998093","null","","<p></p>","null","choice","tdc","attraction_1","1","washing machines","null","null","null","null","null","null","2","","","","","","","","","","",""
"","","","","","choice_trial","survey-html-form","127","1294921","0.0-5.0-1.21","4","1","2025-04-10 18:10:25","7bd189e8e4882776c700e1dae255cdf5","","Mozilla/5.0 (Windows NT 10.0; Win64; x64) AppleWebKit/537.36 (KHTML, like Gecko) Chrome/134.0.0.0 Safari/537.36","WebKit","Chrome","134.0.0.0","Windows","10.0","https://hz8g1ckzuq.cognition.run/","en-US,en;q=0.9","3yaa6b0udk0wysn","","32","[""White""]","No","Female","1714419.6999998093","3804","","","{""product_choice"":""C""}","choice","tdc","attraction_1","1","washing machines","null","null","null","null","null","null","2","60","50","60","50","60","45","Average lifespan","Energy savings","","",""
"","","","","","choice_trial_setup","html-keyboard-response","128","1295237","0.0-5.0-0.22","4","1","2025-04-10 18:10:25","7bd189e8e4882776c700e1dae255cdf5","","Mozilla/5.0 (Windows NT 10.0; Win64; x64) AppleWebKit/537.36 (KHTML, like Gecko) Chrome/134.0.0.0 Safari/537.36","WebKit","Chrome","134.0.0.0","Windows","10.0","https://hz8g1ckzuq.cognition.run/","en-US,en;q=0.9","3yaa6b0udk0wysn","","32","[""White""]","No","Female","1714419.6999998093","null","","<p></p>","null","choice","dct","repulsion_1","2","televisions","null","null","null","null","null","null","1","","","","","","","","","","",""
"","","","","","choice_trial","survey-html-form","129","1298361","0.0-5.0-1.22","4","1","2025-04-10 18:10:25","7bd189e8e4882776c700e1dae255cdf5","","Mozilla/5.0 (Windows NT 10.0; Win64; x64) AppleWebKit/537.36 (KHTML, like Gecko) Chrome/134.0.0.0 Safari/537.36","WebKit","Chrome","134.0.0.0","Windows","10.0","https://hz8g1ckzuq.cognition.run/","en-US,en;q=0.9","3yaa6b0udk0wysn","","32","[""White""]","No","Female","1714419.6999998093","3116","","","{""product_choice"":""B""}","choice","dct","repulsion_1","2","televisions","null","null","null","null","null","null","1","30","40","25","100","90","100","Screen size","Average lifespan","","",""
"","","","","","choice_trial_setup","html-keyboard-response","130","1298666","0.0-5.0-0.23","4","1","2025-04-10 18:10:25","7bd189e8e4882776c700e1dae255cdf5","","Mozilla/5.0 (Windows NT 10.0; Win64; x64) AppleWebKit/537.36 (KHTML, like Gecko) Chrome/134.0.0.0 Safari/537.36","WebKit","Chrome","134.0.0.0","Windows","10.0","https://hz8g1ckzuq.cognition.run/","en-US,en;q=0.9","3yaa6b0udk0wysn","","32","[""White""]","No","Female","1714419.6999998093","null","","<p></p>","null","choice","dct","attraction_2","2","washing machines","null","null","null","null","null","null","2","","","","","","","","","","",""
"","","","","","choice_trial","survey-html-form","131","1302914","0.0-5.0-1.23","4","1","2025-04-10 18:10:25","7bd189e8e4882776c700e1dae255cdf5","","Mozilla/5.0 (Windows NT 10.0; Win64; x64) AppleWebKit/537.36 (KHTML, like Gecko) Chrome/134.0.0.0 Safari/537.36","WebKit","Chrome","134.0.0.0","Windows","10.0","https://hz8g1ckzuq.cognition.run/","en-US,en;q=0.9","3yaa6b0udk0wysn","","32","[""White""]","No","Female","1714419.6999998093","4234","","","{""product_choice"":""C""}","choice","dct","attraction_2","2","washing machines","null","null","null","null","null","null","2","50","60","40","60","50","60","Average lifespan","Energy savings","","",""
"","","","","","choice_trial_setup","html-keyboard-response","132","1303223","0.0-5.0-0.24","4","1","2025-04-10 18:10:25","7bd189e8e4882776c700e1dae255cdf5","","Mozilla/5.0 (Windows NT 10.0; Win64; x64) AppleWebKit/537.36 (KHTML, like Gecko) Chrome/134.0.0.0 Safari/537.36","WebKit","Chrome","134.0.0.0","Windows","10.0","https://hz8g1ckzuq.cognition.run/","en-US,en;q=0.9","3yaa6b0udk0wysn","","32","[""White""]","No","Female","1714419.6999998093","null","","<p></p>","null","choice","ctd","attraction_1","1","televisions","null","null","null","null","null","null","2","","","","","","","","","","",""
"","","","","","choice_trial","survey-html-form","133","1310138","0.0-5.0-1.24","4","1","2025-04-10 18:10:25","7bd189e8e4882776c700e1dae255cdf5","","Mozilla/5.0 (Windows NT 10.0; Win64; x64) AppleWebKit/537.36 (KHTML, like Gecko) Chrome/134.0.0.0 Safari/537.36","WebKit","Chrome","134.0.0.0","Windows","10.0","https://hz8g1ckzuq.cognition.run/","en-US,en;q=0.9","3yaa6b0udk0wysn","","32","[""White""]","No","Female","1714419.6999998093","6910","","","{""product_choice"":""B""}","choice","ctd","attraction_1","1","televisions","null","null","null","null","null","null","2","60","50","60","50","60","45","Screen size","Average lifespan","","",""
"","","","","","choice_trial_setup","html-keyboard-response","134","1310445","0.0-5.0-0.25","4","1","2025-04-10 18:10:25","7bd189e8e4882776c700e1dae255cdf5","","Mozilla/5.0 (Windows NT 10.0; Win64; x64) AppleWebKit/537.36 (KHTML, like Gecko) Chrome/134.0.0.0 Safari/537.36","WebKit","Chrome","134.0.0.0","Windows","10.0","https://hz8g1ckzuq.cognition.run/","en-US,en;q=0.9","3yaa6b0udk0wysn","","32","[""White""]","No","Female","1714419.6999998093","null","","<p></p>","null","choice","dct","attraction_2","1","microwave ovens","null","null","null","null","null","null","2","","","","","","","","","","",""
"","","","","","choice_trial","survey-html-form","135","1314834","0.0-5.0-1.25","4","1","2025-04-10 18:10:25","7bd189e8e4882776c700e1dae255cdf5","","Mozilla/5.0 (Windows NT 10.0; Win64; x64) AppleWebKit/537.36 (KHTML, like Gecko) Chrome/134.0.0.0 Safari/537.36","WebKit","Chrome","134.0.0.0","Windows","10.0","https://hz8g1ckzuq.cognition.run/","en-US,en;q=0.9","3yaa6b0udk0wysn","","32","[""White""]","No","Female","1714419.6999998093","4381","","","{""product_choice"":""C""}","choice","dct","attraction_2","1","microwave ovens","null","null","null","null","null","null","2","60","50","60","50","60","40","Warranty","Cooking power","","",""
"","","","","","choice_trial_setup","html-keyboard-response","136","1315140","0.0-5.0-0.26","4","1","2025-04-10 18:10:25","7bd189e8e4882776c700e1dae255cdf5","","Mozilla/5.0 (Windows NT 10.0; Win64; x64) AppleWebKit/537.36 (KHTML, like Gecko) Chrome/134.0.0.0 Safari/537.36","WebKit","Chrome","134.0.0.0","Windows","10.0","https://hz8g1ckzuq.cognition.run/","en-US,en;q=0.9","3yaa6b0udk0wysn","","32","[""White""]","No","Female","1714419.6999998093","null","","<p></p>","null","choice","wbw","catch","null","microwave ovens","60","90","40","25","10","10","1","","","","","","","","","","",""
"","","","","","choice_trial","survey-html-form","137","1318618","0.0-5.0-1.26","4","1","2025-04-10 18:10:25","7bd189e8e4882776c700e1dae255cdf5","","Mozilla/5.0 (Windows NT 10.0; Win64; x64) AppleWebKit/537.36 (KHTML, like Gecko) Chrome/134.0.0.0 Safari/537.36","WebKit","Chrome","134.0.0.0","Windows","10.0","https://hz8g1ckzuq.cognition.run/","en-US,en;q=0.9","3yaa6b0udk0wysn","","32","[""White""]","No","Female","1714419.6999998093","3467","","","{""product_choice"":""B""}","choice","wbw","catch","null","microwave ovens","60","90","40","25","10","10","1","null","null","null","null","null","null","Warranty","Cooking power","","",""
"","","","","","choice_trial_setup","html-keyboard-response","138","1318928","0.0-5.0-0.27","4","1","2025-04-10 18:10:25","7bd189e8e4882776c700e1dae255cdf5","","Mozilla/5.0 (Windows NT 10.0; Win64; x64) AppleWebKit/537.36 (KHTML, like Gecko) Chrome/134.0.0.0 Safari/537.36","WebKit","Chrome","134.0.0.0","Windows","10.0","https://hz8g1ckzuq.cognition.run/","en-US,en;q=0.9","3yaa6b0udk0wysn","","32","[""White""]","No","Female","1714419.6999998093","null","","<p></p>","null","choice","tcd","repulsion_1","2","washing machines","null","null","null","null","null","null","2","","","","","","","","","","",""
"","","","","","choice_trial","survey-html-form","139","1322042","0.0-5.0-1.27","4","1","2025-04-10 18:10:25","7bd189e8e4882776c700e1dae255cdf5","","Mozilla/5.0 (Windows NT 10.0; Win64; x64) AppleWebKit/537.36 (KHTML, like Gecko) Chrome/134.0.0.0 Safari/537.36","WebKit","Chrome","134.0.0.0","Windows","10.0","https://hz8g1ckzuq.cognition.run/","en-US,en;q=0.9","3yaa6b0udk0wysn","","32","[""White""]","No","Female","1714419.6999998093","3105","","","{""product_choice"":""B""}","choice","tcd","repulsion_1","2","washing machines","null","null","null","null","null","null","2","30","40","25","100","90","100","Average lifespan","Energy savings","","",""
"","","","","","choice_trial_setup","html-keyboard-response","140","1322349","0.0-5.0-0.28","4","1","2025-04-10 18:10:25","7bd189e8e4882776c700e1dae255cdf5","","Mozilla/5.0 (Windows NT 10.0; Win64; x64) AppleWebKit/537.36 (KHTML, like Gecko) Chrome/134.0.0.0 Safari/537.36","WebKit","Chrome","134.0.0.0","Windows","10.0","https://hz8g1ckzuq.cognition.run/","en-US,en;q=0.9","3yaa6b0udk0wysn","","32","[""White""]","No","Female","1714419.6999998093","null","","<p></p>","null","choice","dct","repulsion_2","2","microwave ovens","null","null","null","null","null","null","2","","","","","","","","","","",""
"","","","","","choice_trial","survey-html-form","141","1325626","0.0-5.0-1.28","4","1","2025-04-10 18:10:25","7bd189e8e4882776c700e1dae255cdf5","","Mozilla/5.0 (Windows NT 10.0; Win64; x64) AppleWebKit/537.36 (KHTML, like Gecko) Chrome/134.0.0.0 Safari/537.36","WebKit","Chrome","134.0.0.0","Windows","10.0","https://hz8g1ckzuq.cognition.run/","en-US,en;q=0.9","3yaa6b0udk0wysn","","32","[""White""]","No","Female","1714419.6999998093","3272","","","{""product_choice"":""B""}","choice","dct","repulsion_2","2","microwave ovens","null","null","null","null","null","null","2","30","40","20","100","90","100","Warranty","Cooking power","","",""
"","","","","","choice_trial_setup","html-keyboard-response","142","1325932","0.0-5.0-0.29","4","1","2025-04-10 18:10:25","7bd189e8e4882776c700e1dae255cdf5","","Mozilla/5.0 (Windows NT 10.0; Win64; x64) AppleWebKit/537.36 (KHTML, like Gecko) Chrome/134.0.0.0 Safari/537.36","WebKit","Chrome","134.0.0.0","Windows","10.0","https://hz8g1ckzuq.cognition.run/","en-US,en;q=0.9","3yaa6b0udk0wysn","","32","[""White""]","No","Female","1714419.6999998093","null","","<p></p>","null","choice","tdc","repulsion_2","1","laptops","null","null","null","null","null","null","2","","","","","","","","","","",""
"","","","","","choice_trial","survey-html-form","143","1329473","0.0-5.0-1.29","4","1","2025-04-10 18:10:25","7bd189e8e4882776c700e1dae255cdf5","","Mozilla/5.0 (Windows NT 10.0; Win64; x64) AppleWebKit/537.36 (KHTML, like Gecko) Chrome/134.0.0.0 Safari/537.36","WebKit","Chrome","134.0.0.0","Windows","10.0","https://hz8g1ckzuq.cognition.run/","en-US,en;q=0.9","3yaa6b0udk0wysn","","32","[""White""]","No","Female","1714419.6999998093","3532","","","{""product_choice"":""C""}","choice","tdc","repulsion_2","1","laptops","null","null","null","null","null","null","2","100","90","100","30","40","20","Processing speed","Memory (RAM)","","",""
"","","","","","choice_trial_setup","html-keyboard-response","144","1329778","0.0-5.0-0.30","4","1","2025-04-10 18:10:25","7bd189e8e4882776c700e1dae255cdf5","","Mozilla/5.0 (Windows NT 10.0; Win64; x64) AppleWebKit/537.36 (KHTML, like Gecko) Chrome/134.0.0.0 Safari/537.36","WebKit","Chrome","134.0.0.0","Windows","10.0","https://hz8g1ckzuq.cognition.run/","en-US,en;q=0.9","3yaa6b0udk0wysn","","32","[""White""]","No","Female","1714419.6999998093","null","","<p></p>","null","choice","ctd","attraction_1","2","laptops","null","null","null","null","null","null","1","","","","","","","","","","",""
"","","","","","choice_trial","survey-html-form","145","1336970","0.0-5.0-1.30","4","1","2025-04-10 18:10:25","7bd189e8e4882776c700e1dae255cdf5","","Mozilla/5.0 (Windows NT 10.0; Win64; x64) AppleWebKit/537.36 (KHTML, like Gecko) Chrome/134.0.0.0 Safari/537.36","WebKit","Chrome","134.0.0.0","Windows","10.0","https://hz8g1ckzuq.cognition.run/","en-US,en;q=0.9","3yaa6b0udk0wysn","","32","[""White""]","No","Female","1714419.6999998093","7187","","","{""product_choice"":""B""}","choice","ctd","attraction_1","2","laptops","null","null","null","null","null","null","1","50","60","45","60","50","60","Processing speed","Memory (RAM)","","",""
"","","","","","choice_trial_setup","html-keyboard-response","146","1337278","0.0-5.0-0.31","4","1","2025-04-10 18:10:25","7bd189e8e4882776c700e1dae255cdf5","","Mozilla/5.0 (Windows NT 10.0; Win64; x64) AppleWebKit/537.36 (KHTML, like Gecko) Chrome/134.0.0.0 Safari/537.36","WebKit","Chrome","134.0.0.0","Windows","10.0","https://hz8g1ckzuq.cognition.run/","en-US,en;q=0.9","3yaa6b0udk0wysn","","32","[""White""]","No","Female","1714419.6999998093","null","","<p></p>","null","choice","tcd","repulsion_2","2","televisions","null","null","null","null","null","null","2","","","","","","","","","","",""
"","","","","","choice_trial","survey-html-form","147","1339986","0.0-5.0-1.31","4","1","2025-04-10 18:10:25","7bd189e8e4882776c700e1dae255cdf5","","Mozilla/5.0 (Windows NT 10.0; Win64; x64) AppleWebKit/537.36 (KHTML, like Gecko) Chrome/134.0.0.0 Safari/537.36","WebKit","Chrome","134.0.0.0","Windows","10.0","https://hz8g1ckzuq.cognition.run/","en-US,en;q=0.9","3yaa6b0udk0wysn","","32","[""White""]","No","Female","1714419.6999998093","2704","","","{""product_choice"":""B""}","choice","tcd","repulsion_2","2","televisions","null","null","null","null","null","null","2","30","40","20","100","90","100","Screen size","Average lifespan","","",""
"","","","","","choice_trial_setup","html-keyboard-response","148","1340294","0.0-5.0-0.32","4","1","2025-04-10 18:10:25","7bd189e8e4882776c700e1dae255cdf5","","Mozilla/5.0 (Windows NT 10.0; Win64; x64) AppleWebKit/537.36 (KHTML, like Gecko) Chrome/134.0.0.0 Safari/537.36","WebKit","Chrome","134.0.0.0","Windows","10.0","https://hz8g1ckzuq.cognition.run/","en-US,en;q=0.9","3yaa6b0udk0wysn","","32","[""White""]","No","Female","1714419.6999998093","null","","<p></p>","null","choice","tdc","repulsion_1","1","laptops","null","null","null","null","null","null","2","","","","","","","","","","",""
"","","","","","choice_trial","survey-html-form","149","1343081","0.0-5.0-1.32","4","1","2025-04-10 18:10:25","7bd189e8e4882776c700e1dae255cdf5","","Mozilla/5.0 (Windows NT 10.0; Win64; x64) AppleWebKit/537.36 (KHTML, like Gecko) Chrome/134.0.0.0 Safari/537.36","WebKit","Chrome","134.0.0.0","Windows","10.0","https://hz8g1ckzuq.cognition.run/","en-US,en;q=0.9","3yaa6b0udk0wysn","","32","[""White""]","No","Female","1714419.6999998093","2783","","","{""product_choice"":""C""}","choice","tdc","repulsion_1","1","laptops","null","null","null","null","null","null","2","100","90","100","30","40","25","Processing speed","Memory (RAM)","","",""
"","","","","","choice_trial_setup","html-keyboard-response","150","1343390","0.0-5.0-0.33","4","1","2025-04-10 18:10:25","7bd189e8e4882776c700e1dae255cdf5","","Mozilla/5.0 (Windows NT 10.0; Win64; x64) AppleWebKit/537.36 (KHTML, like Gecko) Chrome/134.0.0.0 Safari/537.36","WebKit","Chrome","134.0.0.0","Windows","10.0","https://hz8g1ckzuq.cognition.run/","en-US,en;q=0.9","3yaa6b0udk0wysn","","32","[""White""]","No","Female","1714419.6999998093","null","","<p></p>","null","choice","ctd","repulsion_1","2","microwave ovens","null","null","null","null","null","null","1","","","","","","","","","","",""
"","","","","","choice_trial","survey-html-form","151","1348050","0.0-5.0-1.33","4","1","2025-04-10 18:10:25","7bd189e8e4882776c700e1dae255cdf5","","Mozilla/5.0 (Windows NT 10.0; Win64; x64) AppleWebKit/537.36 (KHTML, like Gecko) Chrome/134.0.0.0 Safari/537.36","WebKit","Chrome","134.0.0.0","Windows","10.0","https://hz8g1ckzuq.cognition.run/","en-US,en;q=0.9","3yaa6b0udk0wysn","","32","[""White""]","No","Female","1714419.6999998093","4652","","","{""product_choice"":""A""}","choice","ctd","repulsion_1","2","microwave ovens","null","null","null","null","null","null","1","30","40","25","100","90","100","Warranty","Cooking power","","",""
"","","","","","choice_trial_setup","html-keyboard-response","152","1348359","0.0-5.0-0.34","4","1","2025-04-10 18:10:25","7bd189e8e4882776c700e1dae255cdf5","","Mozilla/5.0 (Windows NT 10.0; Win64; x64) AppleWebKit/537.36 (KHTML, like Gecko) Chrome/134.0.0.0 Safari/537.36","WebKit","Chrome","134.0.0.0","Windows","10.0","https://hz8g1ckzuq.cognition.run/","en-US,en;q=0.9","3yaa6b0udk0wysn","","32","[""White""]","No","Female","1714419.6999998093","null","","<p></p>","null","choice","dtc","repulsion_1","1","microwave ovens","null","null","null","null","null","null","1","","","","","","","","","","",""
"","","","","","choice_trial","survey-html-form","153","1358156","0.0-5.0-1.34","4","1","2025-04-10 18:10:25","7bd189e8e4882776c700e1dae255cdf5","","Mozilla/5.0 (Windows NT 10.0; Win64; x64) AppleWebKit/537.36 (KHTML, like Gecko) Chrome/134.0.0.0 Safari/537.36","WebKit","Chrome","134.0.0.0","Windows","10.0","https://hz8g1ckzuq.cognition.run/","en-US,en;q=0.9","3yaa6b0udk0wysn","","32","[""White""]","No","Female","1714419.6999998093","9788","","","{""product_choice"":""C""}","choice","dtc","repulsion_1","1","microwave ovens","null","null","null","null","null","null","1","100","90","100","30","40","25","Warranty","Cooking power","","",""
"","","","","","choice_trial_setup","html-keyboard-response","154","1358461","0.0-5.0-0.35","4","1","2025-04-10 18:10:25","7bd189e8e4882776c700e1dae255cdf5","","Mozilla/5.0 (Windows NT 10.0; Win64; x64) AppleWebKit/537.36 (KHTML, like Gecko) Chrome/134.0.0.0 Safari/537.36","WebKit","Chrome","134.0.0.0","Windows","10.0","https://hz8g1ckzuq.cognition.run/","en-US,en;q=0.9","3yaa6b0udk0wysn","","32","[""White""]","No","Female","1714419.6999998093","null","","<p></p>","null","choice","wbw","catch","null","televisions","80","70","40","35","5","50","1","","","","","","","","","","",""
"","","","","","choice_trial","survey-html-form","155","1363633","0.0-5.0-1.35","4","1","2025-04-10 18:10:25","7bd189e8e4882776c700e1dae255cdf5","","Mozilla/5.0 (Windows NT 10.0; Win64; x64) AppleWebKit/537.36 (KHTML, like Gecko) Chrome/134.0.0.0 Safari/537.36","WebKit","Chrome","134.0.0.0","Windows","10.0","https://hz8g1ckzuq.cognition.run/","en-US,en;q=0.9","3yaa6b0udk0wysn","","32","[""White""]","No","Female","1714419.6999998093","5156","","","{""product_choice"":""B""}","choice","wbw","catch","null","televisions","80","70","40","35","5","50","1","null","null","null","null","null","null","Screen size","Average lifespan","","",""
