"success","timeout","failed_images","failed_audio","failed_video","screen_id","trial_type","trial_index","time_elapsed","internal_node_id","run_id","condition","recorded_at","source_code_version","ip","user_agent","device","browser","browser_version","platform","platform_version","referer","accept_language","ppt_id","age","race","ethnicity","gender","exp_duration","rt","view_history","stimulus","response","phase","order","effect","t_high","category","d1_best","d2_best","d1_worst1","d2_worst1","d1_worst2","d2_worst2","first_dim","d1_t","d1_c","d1_d","d2_t","d2_c","d2_d","d1_name","d2_name","strategy_response","question_order"
"true","false","[]","[]","[]","img preload","preload","0","3297","0.0-0.0","40","1","2025-04-11 14:12:19","bb671e3ae32f654b8954ea4c4635f915","","Mozilla/5.0 (Windows NT 10.0; Win64; x64) AppleWebKit/537.36 (KHTML, like Gecko) Chrome/120.0.0.0 Safari/537.36","WebKit","Chrome","120.0.0.0","Windows","10.0","https://hz8g1ckzuq.cognition.run/","en,en-US","qo6o22n1cayn58e","51","[""Black or African-American""]","No","Male","2136924.3999999985","","","","","","","","","","","","","","","","","","","","","","","","","",""
"true","","","","","","fullscreen","1","9252","0.0-1.0","40","1","2025-04-11 14:12:19","bb671e3ae32f654b8954ea4c4635f915","","Mozilla/5.0 (Windows NT 10.0; Win64; x64) AppleWebKit/537.36 (KHTML, like Gecko) Chrome/120.0.0.0 Safari/537.36","WebKit","Chrome","120.0.0.0","Windows","10.0","https://hz8g1ckzuq.cognition.run/","en,en-US","qo6o22n1cayn58e","51","[""Black or African-American""]","No","Male","2136924.3999999985","4938","","","","","","","","","","","","","","","","","","","","","","","","",""
"","","","","","","instructions","2","192453","0.0-2.0","40","1","2025-04-11 14:12:19","bb671e3ae32f654b8954ea4c4635f915","","Mozilla/5.0 (Windows NT 10.0; Win64; x64) AppleWebKit/537.36 (KHTML, like Gecko) Chrome/120.0.0.0 Safari/537.36","WebKit","Chrome","120.0.0.0","Windows","10.0","https://hz8g1ckzuq.cognition.run/","en,en-US","qo6o22n1cayn58e","51","[""Black or African-American""]","No","Male","2136924.3999999985","183197","[{""page_index"":0,""viewing_time"":3160},{""page_index"":1,""viewing_time"":9083},{""page_index"":2,""viewing_time"":7076},{""page_index"":3,""viewing_time"":11345},{""page_index"":4,""viewing_time"":13576},{""page_index"":5,""viewing_time"":7763},{""page_index"":6,""viewing_time"":7645},{""page_index"":7,""viewing_time"":17501},{""page_index"":8,""viewing_time"":7447},{""page_index"":9,""viewing_time"":98600}]","","","","","","","","","","","","","","","","","","","","","","","",""
"","","","","","rating_trial_setup","html-keyboard-response","3","192763","0.0-3.0-0.0","40","1","2025-04-11 14:12:19","bb671e3ae32f654b8954ea4c4635f915","","Mozilla/5.0 (Windows NT 10.0; Win64; x64) AppleWebKit/537.36 (KHTML, like Gecko) Chrome/120.0.0.0 Safari/537.36","WebKit","Chrome","120.0.0.0","Windows","10.0","https://hz8g1ckzuq.cognition.run/","en,en-US","qo6o22n1cayn58e","51","[""Black or African-American""]","No","Male","2136924.3999999985","null","","<p></p>","null","rating","cdt","repulsion_1","1","washing machines","null","null","null","null","null","null","2","","","","","","","","","",""
"","","","","","rating_trial","survey-html-form","4","295275","0.0-3.0-1.0","40","1","2025-04-11 14:12:19","bb671e3ae32f654b8954ea4c4635f915","","Mozilla/5.0 (Windows NT 10.0; Win64; x64) AppleWebKit/537.36 (KHTML, like Gecko) Chrome/120.0.0.0 Safari/537.36","WebKit","Chrome","120.0.0.0","Windows","10.0","https://hz8g1ckzuq.cognition.run/","en,en-US","qo6o22n1cayn58e","51","[""Black or African-American""]","No","Male","2136924.3999999985","102505","","","{""price_1"":""500"",""price_2"":""400"",""price_3"":""700""}","rating","cdt","repulsion_1","1","washing machines","null","null","null","null","null","null","2","100","90","100","30","40","25","Average lifespan","Energy savings","",""
"","","","","","rating_trial_setup","html-keyboard-response","5","295579","0.0-3.0-0.1","40","1","2025-04-11 14:12:19","bb671e3ae32f654b8954ea4c4635f915","","Mozilla/5.0 (Windows NT 10.0; Win64; x64) AppleWebKit/537.36 (KHTML, like Gecko) Chrome/120.0.0.0 Safari/537.36","WebKit","Chrome","120.0.0.0","Windows","10.0","https://hz8g1ckzuq.cognition.run/","en,en-US","qo6o22n1cayn58e","51","[""Black or African-American""]","No","Male","2136924.3999999985","null","","<p></p>","null","rating","wwb","catch","null","washing machines","95","80","10","30","30","35","2","","","","","","","","","",""
"","","","","","rating_trial","survey-html-form","6","330172","0.0-3.0-1.1","40","1","2025-04-11 14:12:19","bb671e3ae32f654b8954ea4c4635f915","","Mozilla/5.0 (Windows NT 10.0; Win64; x64) AppleWebKit/537.36 (KHTML, like Gecko) Chrome/120.0.0.0 Safari/537.36","WebKit","Chrome","120.0.0.0","Windows","10.0","https://hz8g1ckzuq.cognition.run/","en,en-US","qo6o22n1cayn58e","51","[""Black or African-American""]","No","Male","2136924.3999999985","34591","","","{""price_1"":""200"",""price_2"":""400"",""price_3"":""700""}","rating","wwb","catch","null","washing machines","95","80","10","30","30","35","2","null","null","null","null","null","null","Average lifespan","Energy savings","",""
"","","","","","rating_trial_setup","html-keyboard-response","7","330477","0.0-3.0-0.2","40","1","2025-04-11 14:12:19","bb671e3ae32f654b8954ea4c4635f915","","Mozilla/5.0 (Windows NT 10.0; Win64; x64) AppleWebKit/537.36 (KHTML, like Gecko) Chrome/120.0.0.0 Safari/537.36","WebKit","Chrome","120.0.0.0","Windows","10.0","https://hz8g1ckzuq.cognition.run/","en,en-US","qo6o22n1cayn58e","51","[""Black or African-American""]","No","Male","2136924.3999999985","null","","<p></p>","null","rating","ctd","attraction_1","1","washing machines","null","null","null","null","null","null","1","","","","","","","","","",""
"","","","","","rating_trial","survey-html-form","8","385897","0.0-3.0-1.2","40","1","2025-04-11 14:12:19","bb671e3ae32f654b8954ea4c4635f915","","Mozilla/5.0 (Windows NT 10.0; Win64; x64) AppleWebKit/537.36 (KHTML, like Gecko) Chrome/120.0.0.0 Safari/537.36","WebKit","Chrome","120.0.0.0","Windows","10.0","https://hz8g1ckzuq.cognition.run/","en,en-US","qo6o22n1cayn58e","51","[""Black or African-American""]","No","Male","2136924.3999999985","55417","","","{""price_1"":""500"",""price_2"":""450"",""price_3"":""350""}","rating","ctd","attraction_1","1","washing machines","null","null","null","null","null","null","1","60","50","60","50","60","45","Average lifespan","Energy savings","",""
"","","","","","rating_trial_setup","html-keyboard-response","9","386202","0.0-3.0-0.3","40","1","2025-04-11 14:12:19","bb671e3ae32f654b8954ea4c4635f915","","Mozilla/5.0 (Windows NT 10.0; Win64; x64) AppleWebKit/537.36 (KHTML, like Gecko) Chrome/120.0.0.0 Safari/537.36","WebKit","Chrome","120.0.0.0","Windows","10.0","https://hz8g1ckzuq.cognition.run/","en,en-US","qo6o22n1cayn58e","51","[""Black or African-American""]","No","Male","2136924.3999999985","null","","<p></p>","null","rating","tcd","attraction_1","1","televisions","null","null","null","null","null","null","2","","","","","","","","","",""
"","","","","","rating_trial","survey-html-form","10","431843","0.0-3.0-1.3","40","1","2025-04-11 14:12:19","bb671e3ae32f654b8954ea4c4635f915","","Mozilla/5.0 (Windows NT 10.0; Win64; x64) AppleWebKit/537.36 (KHTML, like Gecko) Chrome/120.0.0.0 Safari/537.36","WebKit","Chrome","120.0.0.0","Windows","10.0","https://hz8g1ckzuq.cognition.run/","en,en-US","qo6o22n1cayn58e","51","[""Black or African-American""]","No","Male","2136924.3999999985","45636","","","{""price_1"":""700"",""price_2"":""700"",""price_3"":""650""}","rating","tcd","attraction_1","1","televisions","null","null","null","null","null","null","2","60","50","60","50","60","45","Screen size","Average lifespan","",""
"","","","","","rating_trial_setup","html-keyboard-response","11","432149","0.0-3.0-0.4","40","1","2025-04-11 14:12:19","bb671e3ae32f654b8954ea4c4635f915","","Mozilla/5.0 (Windows NT 10.0; Win64; x64) AppleWebKit/537.36 (KHTML, like Gecko) Chrome/120.0.0.0 Safari/537.36","WebKit","Chrome","120.0.0.0","Windows","10.0","https://hz8g1ckzuq.cognition.run/","en,en-US","qo6o22n1cayn58e","51","[""Black or African-American""]","No","Male","2136924.3999999985","null","","<p></p>","null","rating","tdc","repulsion_1","1","microwave ovens","null","null","null","null","null","null","1","","","","","","","","","",""
"","","","","","rating_trial","survey-html-form","12","469583","0.0-3.0-1.4","40","1","2025-04-11 14:12:19","bb671e3ae32f654b8954ea4c4635f915","","Mozilla/5.0 (Windows NT 10.0; Win64; x64) AppleWebKit/537.36 (KHTML, like Gecko) Chrome/120.0.0.0 Safari/537.36","WebKit","Chrome","120.0.0.0","Windows","10.0","https://hz8g1ckzuq.cognition.run/","en,en-US","qo6o22n1cayn58e","51","[""Black or African-American""]","No","Male","2136924.3999999985","37429","","","{""price_1"":""100"",""price_2"":""90"",""price_3"":""110""}","rating","tdc","repulsion_1","1","microwave ovens","null","null","null","null","null","null","1","100","90","100","30","40","25","Warranty","Cooking power","",""
"","","","","","rating_trial_setup","html-keyboard-response","13","469888","0.0-3.0-0.5","40","1","2025-04-11 14:12:19","bb671e3ae32f654b8954ea4c4635f915","","Mozilla/5.0 (Windows NT 10.0; Win64; x64) AppleWebKit/537.36 (KHTML, like Gecko) Chrome/120.0.0.0 Safari/537.36","WebKit","Chrome","120.0.0.0","Windows","10.0","https://hz8g1ckzuq.cognition.run/","en,en-US","qo6o22n1cayn58e","51","[""Black or African-American""]","No","Male","2136924.3999999985","null","","<p></p>","null","rating","tcd","attraction_2","2","televisions","null","null","null","null","null","null","1","","","","","","","","","",""
"","","","","","rating_trial","survey-html-form","14","513263","0.0-3.0-1.5","40","1","2025-04-11 14:12:19","bb671e3ae32f654b8954ea4c4635f915","","Mozilla/5.0 (Windows NT 10.0; Win64; x64) AppleWebKit/537.36 (KHTML, like Gecko) Chrome/120.0.0.0 Safari/537.36","WebKit","Chrome","120.0.0.0","Windows","10.0","https://hz8g1ckzuq.cognition.run/","en,en-US","qo6o22n1cayn58e","51","[""Black or African-American""]","No","Male","2136924.3999999985","43370","","","{""price_1"":""400"",""price_2"":""300"",""price_3"":""350""}","rating","tcd","attraction_2","2","televisions","null","null","null","null","null","null","1","50","60","40","60","50","60","Screen size","Average lifespan","",""
"","","","","","rating_trial_setup","html-keyboard-response","15","513569","0.0-3.0-0.6","40","1","2025-04-11 14:12:19","bb671e3ae32f654b8954ea4c4635f915","","Mozilla/5.0 (Windows NT 10.0; Win64; x64) AppleWebKit/537.36 (KHTML, like Gecko) Chrome/120.0.0.0 Safari/537.36","WebKit","Chrome","120.0.0.0","Windows","10.0","https://hz8g1ckzuq.cognition.run/","en,en-US","qo6o22n1cayn58e","51","[""Black or African-American""]","No","Male","2136924.3999999985","null","","<p></p>","null","rating","tcd","attraction_2","2","washing machines","null","null","null","null","null","null","1","","","","","","","","","",""
"","","","","","rating_trial","survey-html-form","16","563226","0.0-3.0-1.6","40","1","2025-04-11 14:12:19","bb671e3ae32f654b8954ea4c4635f915","","Mozilla/5.0 (Windows NT 10.0; Win64; x64) AppleWebKit/537.36 (KHTML, like Gecko) Chrome/120.0.0.0 Safari/537.36","WebKit","Chrome","120.0.0.0","Windows","10.0","https://hz8g1ckzuq.cognition.run/","en,en-US","qo6o22n1cayn58e","51","[""Black or African-American""]","No","Male","2136924.3999999985","49652","","","{""price_1"":""400"",""price_2"":""450"",""price_3"":""300""}","rating","tcd","attraction_2","2","washing machines","null","null","null","null","null","null","1","50","60","40","60","50","60","Average lifespan","Energy savings","",""
"","","","","","rating_trial_setup","html-keyboard-response","17","563530","0.0-3.0-0.7","40","1","2025-04-11 14:12:19","bb671e3ae32f654b8954ea4c4635f915","","Mozilla/5.0 (Windows NT 10.0; Win64; x64) AppleWebKit/537.36 (KHTML, like Gecko) Chrome/120.0.0.0 Safari/537.36","WebKit","Chrome","120.0.0.0","Windows","10.0","https://hz8g1ckzuq.cognition.run/","en,en-US","qo6o22n1cayn58e","51","[""Black or African-American""]","No","Male","2136924.3999999985","null","","<p></p>","null","rating","wbw","catch","null","laptops","55","85","20","15","5","15","1","","","","","","","","","",""
"","","","","","rating_trial","survey-html-form","18","601887","0.0-3.0-1.7","40","1","2025-04-11 14:12:19","bb671e3ae32f654b8954ea4c4635f915","","Mozilla/5.0 (Windows NT 10.0; Win64; x64) AppleWebKit/537.36 (KHTML, like Gecko) Chrome/120.0.0.0 Safari/537.36","WebKit","Chrome","120.0.0.0","Windows","10.0","https://hz8g1ckzuq.cognition.run/","en,en-US","qo6o22n1cayn58e","51","[""Black or African-American""]","No","Male","2136924.3999999985","38352","","","{""price_1"":""400"",""price_2"":""1000"",""price_3"":""100""}","rating","wbw","catch","null","laptops","55","85","20","15","5","15","1","null","null","null","null","null","null","Processing speed","Memory (RAM)","",""
"","","","","","rating_trial_setup","html-keyboard-response","19","602191","0.0-3.0-0.8","40","1","2025-04-11 14:12:19","bb671e3ae32f654b8954ea4c4635f915","","Mozilla/5.0 (Windows NT 10.0; Win64; x64) AppleWebKit/537.36 (KHTML, like Gecko) Chrome/120.0.0.0 Safari/537.36","WebKit","Chrome","120.0.0.0","Windows","10.0","https://hz8g1ckzuq.cognition.run/","en,en-US","qo6o22n1cayn58e","51","[""Black or African-American""]","No","Male","2136924.3999999985","null","","<p></p>","null","rating","tdc","attraction_2","1","microwave ovens","null","null","null","null","null","null","2","","","","","","","","","",""
"","","","","","rating_trial","survey-html-form","20","646077","0.0-3.0-1.8","40","1","2025-04-11 14:12:19","bb671e3ae32f654b8954ea4c4635f915","","Mozilla/5.0 (Windows NT 10.0; Win64; x64) AppleWebKit/537.36 (KHTML, like Gecko) Chrome/120.0.0.0 Safari/537.36","WebKit","Chrome","120.0.0.0","Windows","10.0","https://hz8g1ckzuq.cognition.run/","en,en-US","qo6o22n1cayn58e","51","[""Black or African-American""]","No","Male","2136924.3999999985","43881","","","{""price_1"":""180"",""price_2"":""150"",""price_3"":""160""}","rating","tdc","attraction_2","1","microwave ovens","null","null","null","null","null","null","2","60","50","60","50","60","40","Warranty","Cooking power","",""
"","","","","","rating_trial_setup","html-keyboard-response","21","646382","0.0-3.0-0.9","40","1","2025-04-11 14:12:19","bb671e3ae32f654b8954ea4c4635f915","","Mozilla/5.0 (Windows NT 10.0; Win64; x64) AppleWebKit/537.36 (KHTML, like Gecko) Chrome/120.0.0.0 Safari/537.36","WebKit","Chrome","120.0.0.0","Windows","10.0","https://hz8g1ckzuq.cognition.run/","en,en-US","qo6o22n1cayn58e","51","[""Black or African-American""]","No","Male","2136924.3999999985","null","","<p></p>","null","rating","dtc","attraction_2","1","washing machines","null","null","null","null","null","null","2","","","","","","","","","",""
"","","","","","rating_trial","survey-html-form","22","687825","0.0-3.0-1.9","40","1","2025-04-11 14:12:19","bb671e3ae32f654b8954ea4c4635f915","","Mozilla/5.0 (Windows NT 10.0; Win64; x64) AppleWebKit/537.36 (KHTML, like Gecko) Chrome/120.0.0.0 Safari/537.36","WebKit","Chrome","120.0.0.0","Windows","10.0","https://hz8g1ckzuq.cognition.run/","en,en-US","qo6o22n1cayn58e","51","[""Black or African-American""]","No","Male","2136924.3999999985","41438","","","{""price_1"":""600"",""price_2"":""700"",""price_3"":""650""}","rating","dtc","attraction_2","1","washing machines","null","null","null","null","null","null","2","60","50","60","50","60","40","Average lifespan","Energy savings","",""
"","","","","","rating_trial_setup","html-keyboard-response","23","688130","0.0-3.0-0.10","40","1","2025-04-11 14:12:19","bb671e3ae32f654b8954ea4c4635f915","","Mozilla/5.0 (Windows NT 10.0; Win64; x64) AppleWebKit/537.36 (KHTML, like Gecko) Chrome/120.0.0.0 Safari/537.36","WebKit","Chrome","120.0.0.0","Windows","10.0","https://hz8g1ckzuq.cognition.run/","en,en-US","qo6o22n1cayn58e","51","[""Black or African-American""]","No","Male","2136924.3999999985","null","","<p></p>","null","rating","dct","attraction_2","1","laptops","null","null","null","null","null","null","1","","","","","","","","","",""
"","","","","","rating_trial","survey-html-form","24","743611","0.0-3.0-1.10","40","1","2025-04-11 14:12:19","bb671e3ae32f654b8954ea4c4635f915","","Mozilla/5.0 (Windows NT 10.0; Win64; x64) AppleWebKit/537.36 (KHTML, like Gecko) Chrome/120.0.0.0 Safari/537.36","WebKit","Chrome","120.0.0.0","Windows","10.0","https://hz8g1ckzuq.cognition.run/","en,en-US","qo6o22n1cayn58e","51","[""Black or African-American""]","No","Male","2136924.3999999985","55477","","","{""price_1"":""800"",""price_2"":""850"",""price_3"":""900""}","rating","dct","attraction_2","1","laptops","null","null","null","null","null","null","1","60","50","60","50","60","40","Processing speed","Memory (RAM)","",""
"","","","","","rating_trial_setup","html-keyboard-response","25","743917","0.0-3.0-0.11","40","1","2025-04-11 14:12:19","bb671e3ae32f654b8954ea4c4635f915","","Mozilla/5.0 (Windows NT 10.0; Win64; x64) AppleWebKit/537.36 (KHTML, like Gecko) Chrome/120.0.0.0 Safari/537.36","WebKit","Chrome","120.0.0.0","Windows","10.0","https://hz8g1ckzuq.cognition.run/","en,en-US","qo6o22n1cayn58e","51","[""Black or African-American""]","No","Male","2136924.3999999985","null","","<p></p>","null","rating","wbw","catch","null","televisions","70","60","25","5","45","30","1","","","","","","","","","",""
"","","","","","rating_trial","survey-html-form","26","781665","0.0-3.0-1.11","40","1","2025-04-11 14:12:19","bb671e3ae32f654b8954ea4c4635f915","","Mozilla/5.0 (Windows NT 10.0; Win64; x64) AppleWebKit/537.36 (KHTML, like Gecko) Chrome/120.0.0.0 Safari/537.36","WebKit","Chrome","120.0.0.0","Windows","10.0","https://hz8g1ckzuq.cognition.run/","en,en-US","qo6o22n1cayn58e","51","[""Black or African-American""]","No","Male","2136924.3999999985","37742","","","{""price_1"":""100"",""price_2"":""900"",""price_3"":""500""}","rating","wbw","catch","null","televisions","70","60","25","5","45","30","1","null","null","null","null","null","null","Screen size","Average lifespan","",""
"","","","","","rating_trial_setup","html-keyboard-response","27","781973","0.0-3.0-0.12","40","1","2025-04-11 14:12:19","bb671e3ae32f654b8954ea4c4635f915","","Mozilla/5.0 (Windows NT 10.0; Win64; x64) AppleWebKit/537.36 (KHTML, like Gecko) Chrome/120.0.0.0 Safari/537.36","WebKit","Chrome","120.0.0.0","Windows","10.0","https://hz8g1ckzuq.cognition.run/","en,en-US","qo6o22n1cayn58e","51","[""Black or African-American""]","No","Male","2136924.3999999985","null","","<p></p>","null","rating","tcd","repulsion_2","1","laptops","null","null","null","null","null","null","2","","","","","","","","","",""
"","","","","","rating_trial","survey-html-form","28","833490","0.0-3.0-1.12","40","1","2025-04-11 14:12:19","bb671e3ae32f654b8954ea4c4635f915","","Mozilla/5.0 (Windows NT 10.0; Win64; x64) AppleWebKit/537.36 (KHTML, like Gecko) Chrome/120.0.0.0 Safari/537.36","WebKit","Chrome","120.0.0.0","Windows","10.0","https://hz8g1ckzuq.cognition.run/","en,en-US","qo6o22n1cayn58e","51","[""Black or African-American""]","No","Male","2136924.3999999985","51512","","","{""price_1"":""1000"",""price_2"":""1000"",""price_3"":""800""}","rating","tcd","repulsion_2","1","laptops","null","null","null","null","null","null","2","100","90","100","30","40","20","Processing speed","Memory (RAM)","",""
"","","","","","rating_trial_setup","html-keyboard-response","29","833796","0.0-3.0-0.13","40","1","2025-04-11 14:12:19","bb671e3ae32f654b8954ea4c4635f915","","Mozilla/5.0 (Windows NT 10.0; Win64; x64) AppleWebKit/537.36 (KHTML, like Gecko) Chrome/120.0.0.0 Safari/537.36","WebKit","Chrome","120.0.0.0","Windows","10.0","https://hz8g1ckzuq.cognition.run/","en,en-US","qo6o22n1cayn58e","51","[""Black or African-American""]","No","Male","2136924.3999999985","null","","<p></p>","null","rating","cdt","repulsion_2","1","washing machines","null","null","null","null","null","null","1","","","","","","","","","",""
"","","","","","rating_trial","survey-html-form","30","880189","0.0-3.0-1.13","40","1","2025-04-11 14:12:19","bb671e3ae32f654b8954ea4c4635f915","","Mozilla/5.0 (Windows NT 10.0; Win64; x64) AppleWebKit/537.36 (KHTML, like Gecko) Chrome/120.0.0.0 Safari/537.36","WebKit","Chrome","120.0.0.0","Windows","10.0","https://hz8g1ckzuq.cognition.run/","en,en-US","qo6o22n1cayn58e","51","[""Black or African-American""]","No","Male","2136924.3999999985","46390","","","{""price_1"":""600"",""price_2"":""700"",""price_3"":""900""}","rating","cdt","repulsion_2","1","washing machines","null","null","null","null","null","null","1","100","90","100","30","40","20","Average lifespan","Energy savings","",""
"","","","","","rating_trial_setup","html-keyboard-response","31","880495","0.0-3.0-0.14","40","1","2025-04-11 14:12:19","bb671e3ae32f654b8954ea4c4635f915","","Mozilla/5.0 (Windows NT 10.0; Win64; x64) AppleWebKit/537.36 (KHTML, like Gecko) Chrome/120.0.0.0 Safari/537.36","WebKit","Chrome","120.0.0.0","Windows","10.0","https://hz8g1ckzuq.cognition.run/","en,en-US","qo6o22n1cayn58e","51","[""Black or African-American""]","No","Male","2136924.3999999985","null","","<p></p>","null","rating","dct","attraction_1","2","laptops","null","null","null","null","null","null","2","","","","","","","","","",""
"","","","","","rating_trial","survey-html-form","32","917237","0.0-3.0-1.14","40","1","2025-04-11 14:12:19","bb671e3ae32f654b8954ea4c4635f915","","Mozilla/5.0 (Windows NT 10.0; Win64; x64) AppleWebKit/537.36 (KHTML, like Gecko) Chrome/120.0.0.0 Safari/537.36","WebKit","Chrome","120.0.0.0","Windows","10.0","https://hz8g1ckzuq.cognition.run/","en,en-US","qo6o22n1cayn58e","51","[""Black or African-American""]","No","Male","2136924.3999999985","36737","","","{""price_1"":""500"",""price_2"":""500"",""price_3"":""600""}","rating","dct","attraction_1","2","laptops","null","null","null","null","null","null","2","50","60","45","60","50","60","Processing speed","Memory (RAM)","",""
"","","","","","rating_trial_setup","html-keyboard-response","33","917543","0.0-3.0-0.15","40","1","2025-04-11 14:12:19","bb671e3ae32f654b8954ea4c4635f915","","Mozilla/5.0 (Windows NT 10.0; Win64; x64) AppleWebKit/537.36 (KHTML, like Gecko) Chrome/120.0.0.0 Safari/537.36","WebKit","Chrome","120.0.0.0","Windows","10.0","https://hz8g1ckzuq.cognition.run/","en,en-US","qo6o22n1cayn58e","51","[""Black or African-American""]","No","Male","2136924.3999999985","null","","<p></p>","null","rating","ctd","attraction_1","1","microwave ovens","null","null","null","null","null","null","2","","","","","","","","","",""
"","","","","","rating_trial","survey-html-form","34","952210","0.0-3.0-1.15","40","1","2025-04-11 14:12:19","bb671e3ae32f654b8954ea4c4635f915","","Mozilla/5.0 (Windows NT 10.0; Win64; x64) AppleWebKit/537.36 (KHTML, like Gecko) Chrome/120.0.0.0 Safari/537.36","WebKit","Chrome","120.0.0.0","Windows","10.0","https://hz8g1ckzuq.cognition.run/","en,en-US","qo6o22n1cayn58e","51","[""Black or African-American""]","No","Male","2136924.3999999985","34664","","","{""price_1"":""90"",""price_2"":""150"",""price_3"":""100""}","rating","ctd","attraction_1","1","microwave ovens","null","null","null","null","null","null","2","60","50","60","50","60","45","Warranty","Cooking power","",""
"","","","","","rating_trial_setup","html-keyboard-response","35","952515","0.0-3.0-0.16","40","1","2025-04-11 14:12:19","bb671e3ae32f654b8954ea4c4635f915","","Mozilla/5.0 (Windows NT 10.0; Win64; x64) AppleWebKit/537.36 (KHTML, like Gecko) Chrome/120.0.0.0 Safari/537.36","WebKit","Chrome","120.0.0.0","Windows","10.0","https://hz8g1ckzuq.cognition.run/","en,en-US","qo6o22n1cayn58e","51","[""Black or African-American""]","No","Male","2136924.3999999985","null","","<p></p>","null","rating","dtc","repulsion_2","2","laptops","null","null","null","null","null","null","2","","","","","","","","","",""
"","","","","","rating_trial","survey-html-form","36","981020","0.0-3.0-1.16","40","1","2025-04-11 14:12:19","bb671e3ae32f654b8954ea4c4635f915","","Mozilla/5.0 (Windows NT 10.0; Win64; x64) AppleWebKit/537.36 (KHTML, like Gecko) Chrome/120.0.0.0 Safari/537.36","WebKit","Chrome","120.0.0.0","Windows","10.0","https://hz8g1ckzuq.cognition.run/","en,en-US","qo6o22n1cayn58e","51","[""Black or African-American""]","No","Male","2136924.3999999985","28498","","","{""price_1"":""1300"",""price_2"":""1200"",""price_3"":""1000""}","rating","dtc","repulsion_2","2","laptops","null","null","null","null","null","null","2","30","40","20","100","90","100","Processing speed","Memory (RAM)","",""
"","","","","","rating_trial_setup","html-keyboard-response","37","981326","0.0-3.0-0.17","40","1","2025-04-11 14:12:19","bb671e3ae32f654b8954ea4c4635f915","","Mozilla/5.0 (Windows NT 10.0; Win64; x64) AppleWebKit/537.36 (KHTML, like Gecko) Chrome/120.0.0.0 Safari/537.36","WebKit","Chrome","120.0.0.0","Windows","10.0","https://hz8g1ckzuq.cognition.run/","en,en-US","qo6o22n1cayn58e","51","[""Black or African-American""]","No","Male","2136924.3999999985","null","","<p></p>","null","rating","wbw","catch","null","televisions","65","80","10","50","30","25","2","","","","","","","","","",""
"","","","","","rating_trial","survey-html-form","38","1010977","0.0-3.0-1.17","40","1","2025-04-11 14:12:19","bb671e3ae32f654b8954ea4c4635f915","","Mozilla/5.0 (Windows NT 10.0; Win64; x64) AppleWebKit/537.36 (KHTML, like Gecko) Chrome/120.0.0.0 Safari/537.36","WebKit","Chrome","120.0.0.0","Windows","10.0","https://hz8g1ckzuq.cognition.run/","en,en-US","qo6o22n1cayn58e","51","[""Black or African-American""]","No","Male","2136924.3999999985","29644","","","{""price_1"":""800"",""price_2"":""1100"",""price_3"":""600""}","rating","wbw","catch","null","televisions","65","80","10","50","30","25","2","null","null","null","null","null","null","Screen size","Average lifespan","",""
"","","","","","rating_trial_setup","html-keyboard-response","39","1011285","0.0-3.0-0.18","40","1","2025-04-11 14:12:19","bb671e3ae32f654b8954ea4c4635f915","","Mozilla/5.0 (Windows NT 10.0; Win64; x64) AppleWebKit/537.36 (KHTML, like Gecko) Chrome/120.0.0.0 Safari/537.36","WebKit","Chrome","120.0.0.0","Windows","10.0","https://hz8g1ckzuq.cognition.run/","en,en-US","qo6o22n1cayn58e","51","[""Black or African-American""]","No","Male","2136924.3999999985","null","","<p></p>","null","rating","dct","attraction_2","1","televisions","null","null","null","null","null","null","2","","","","","","","","","",""
"","","","","","rating_trial","survey-html-form","40","1043604","0.0-3.0-1.18","40","1","2025-04-11 14:12:19","bb671e3ae32f654b8954ea4c4635f915","","Mozilla/5.0 (Windows NT 10.0; Win64; x64) AppleWebKit/537.36 (KHTML, like Gecko) Chrome/120.0.0.0 Safari/537.36","WebKit","Chrome","120.0.0.0","Windows","10.0","https://hz8g1ckzuq.cognition.run/","en,en-US","qo6o22n1cayn58e","51","[""Black or African-American""]","No","Male","2136924.3999999985","32314","","","{""price_1"":""400"",""price_2"":""450"",""price_3"":""500""}","rating","dct","attraction_2","1","televisions","null","null","null","null","null","null","2","60","50","60","50","60","40","Screen size","Average lifespan","",""
"","","","","","rating_trial_setup","html-keyboard-response","41","1043909","0.0-3.0-0.19","40","1","2025-04-11 14:12:19","bb671e3ae32f654b8954ea4c4635f915","","Mozilla/5.0 (Windows NT 10.0; Win64; x64) AppleWebKit/537.36 (KHTML, like Gecko) Chrome/120.0.0.0 Safari/537.36","WebKit","Chrome","120.0.0.0","Windows","10.0","https://hz8g1ckzuq.cognition.run/","en,en-US","qo6o22n1cayn58e","51","[""Black or African-American""]","No","Male","2136924.3999999985","null","","<p></p>","null","rating","tdc","repulsion_2","2","microwave ovens","null","null","null","null","null","null","1","","","","","","","","","",""
"","","","","","rating_trial","survey-html-form","42","1075076","0.0-3.0-1.19","40","1","2025-04-11 14:12:19","bb671e3ae32f654b8954ea4c4635f915","","Mozilla/5.0 (Windows NT 10.0; Win64; x64) AppleWebKit/537.36 (KHTML, like Gecko) Chrome/120.0.0.0 Safari/537.36","WebKit","Chrome","120.0.0.0","Windows","10.0","https://hz8g1ckzuq.cognition.run/","en,en-US","qo6o22n1cayn58e","51","[""Black or African-American""]","No","Male","2136924.3999999985","31163","","","{""price_1"":""200"",""price_2"":""180"",""price_3"":""160""}","rating","tdc","repulsion_2","2","microwave ovens","null","null","null","null","null","null","1","30","40","20","100","90","100","Warranty","Cooking power","",""
"","","","","","rating_trial_setup","html-keyboard-response","43","1075385","0.0-3.0-0.20","40","1","2025-04-11 14:12:19","bb671e3ae32f654b8954ea4c4635f915","","Mozilla/5.0 (Windows NT 10.0; Win64; x64) AppleWebKit/537.36 (KHTML, like Gecko) Chrome/120.0.0.0 Safari/537.36","WebKit","Chrome","120.0.0.0","Windows","10.0","https://hz8g1ckzuq.cognition.run/","en,en-US","qo6o22n1cayn58e","51","[""Black or African-American""]","No","Male","2136924.3999999985","null","","<p></p>","null","rating","wbw","catch","null","microwave ovens","50","85","35","15","40","15","1","","","","","","","","","",""
"","","","","","rating_trial","survey-html-form","44","1104271","0.0-3.0-1.20","40","1","2025-04-11 14:12:19","bb671e3ae32f654b8954ea4c4635f915","","Mozilla/5.0 (Windows NT 10.0; Win64; x64) AppleWebKit/537.36 (KHTML, like Gecko) Chrome/120.0.0.0 Safari/537.36","WebKit","Chrome","120.0.0.0","Windows","10.0","https://hz8g1ckzuq.cognition.run/","en,en-US","qo6o22n1cayn58e","51","[""Black or African-American""]","No","Male","2136924.3999999985","28880","","","{""price_1"":""100"",""price_2"":""300"",""price_3"":""190""}","rating","wbw","catch","null","microwave ovens","50","85","35","15","40","15","1","null","null","null","null","null","null","Warranty","Cooking power","",""
"","","","","","rating_trial_setup","html-keyboard-response","45","1104579","0.0-3.0-0.21","40","1","2025-04-11 14:12:19","bb671e3ae32f654b8954ea4c4635f915","","Mozilla/5.0 (Windows NT 10.0; Win64; x64) AppleWebKit/537.36 (KHTML, like Gecko) Chrome/120.0.0.0 Safari/537.36","WebKit","Chrome","120.0.0.0","Windows","10.0","https://hz8g1ckzuq.cognition.run/","en,en-US","qo6o22n1cayn58e","51","[""Black or African-American""]","No","Male","2136924.3999999985","null","","<p></p>","null","rating","tcd","repulsion_2","2","washing machines","null","null","null","null","null","null","1","","","","","","","","","",""
"","","","","","rating_trial","survey-html-form","46","1128550","0.0-3.0-1.21","40","1","2025-04-11 14:12:19","bb671e3ae32f654b8954ea4c4635f915","","Mozilla/5.0 (Windows NT 10.0; Win64; x64) AppleWebKit/537.36 (KHTML, like Gecko) Chrome/120.0.0.0 Safari/537.36","WebKit","Chrome","120.0.0.0","Windows","10.0","https://hz8g1ckzuq.cognition.run/","en,en-US","qo6o22n1cayn58e","51","[""Black or African-American""]","No","Male","2136924.3999999985","23965","","","{""price_1"":""700"",""price_2"":""500"",""price_3"":""400""}","rating","tcd","repulsion_2","2","washing machines","null","null","null","null","null","null","1","30","40","20","100","90","100","Average lifespan","Energy savings","",""
"","","","","","rating_trial_setup","html-keyboard-response","47","1128856","0.0-3.0-0.22","40","1","2025-04-11 14:12:19","bb671e3ae32f654b8954ea4c4635f915","","Mozilla/5.0 (Windows NT 10.0; Win64; x64) AppleWebKit/537.36 (KHTML, like Gecko) Chrome/120.0.0.0 Safari/537.36","WebKit","Chrome","120.0.0.0","Windows","10.0","https://hz8g1ckzuq.cognition.run/","en,en-US","qo6o22n1cayn58e","51","[""Black or African-American""]","No","Male","2136924.3999999985","null","","<p></p>","null","rating","tcd","attraction_1","2","microwave ovens","null","null","null","null","null","null","2","","","","","","","","","",""
"","","","","","rating_trial","survey-html-form","48","1205333","0.0-3.0-1.22","40","1","2025-04-11 14:12:19","bb671e3ae32f654b8954ea4c4635f915","","Mozilla/5.0 (Windows NT 10.0; Win64; x64) AppleWebKit/537.36 (KHTML, like Gecko) Chrome/120.0.0.0 Safari/537.36","WebKit","Chrome","120.0.0.0","Windows","10.0","https://hz8g1ckzuq.cognition.run/","en,en-US","qo6o22n1cayn58e","51","[""Black or African-American""]","No","Male","2136924.3999999985","76469","","","{""price_1"":""150"",""price_2"":""80"",""price_3"":""100""}","rating","tcd","attraction_1","2","microwave ovens","null","null","null","null","null","null","2","50","60","45","60","50","60","Warranty","Cooking power","",""
"","","","","","rating_trial_setup","html-keyboard-response","49","1205639","0.0-3.0-0.23","40","1","2025-04-11 14:12:19","bb671e3ae32f654b8954ea4c4635f915","","Mozilla/5.0 (Windows NT 10.0; Win64; x64) AppleWebKit/537.36 (KHTML, like Gecko) Chrome/120.0.0.0 Safari/537.36","WebKit","Chrome","120.0.0.0","Windows","10.0","https://hz8g1ckzuq.cognition.run/","en,en-US","qo6o22n1cayn58e","51","[""Black or African-American""]","No","Male","2136924.3999999985","null","","<p></p>","null","rating","cdt","repulsion_1","1","televisions","null","null","null","null","null","null","1","","","","","","","","","",""
"","","","","","rating_trial","survey-html-form","50","1227188","0.0-3.0-1.23","40","1","2025-04-11 14:12:19","bb671e3ae32f654b8954ea4c4635f915","","Mozilla/5.0 (Windows NT 10.0; Win64; x64) AppleWebKit/537.36 (KHTML, like Gecko) Chrome/120.0.0.0 Safari/537.36","WebKit","Chrome","120.0.0.0","Windows","10.0","https://hz8g1ckzuq.cognition.run/","en,en-US","qo6o22n1cayn58e","51","[""Black or African-American""]","No","Male","2136924.3999999985","21542","","","{""price_1"":""900"",""price_2"":""1000"",""price_3"":""1200""}","rating","cdt","repulsion_1","1","televisions","null","null","null","null","null","null","1","100","90","100","30","40","25","Screen size","Average lifespan","",""
"","","","","","rating_trial_setup","html-keyboard-response","51","1227494","0.0-3.0-0.24","40","1","2025-04-11 14:12:19","bb671e3ae32f654b8954ea4c4635f915","","Mozilla/5.0 (Windows NT 10.0; Win64; x64) AppleWebKit/537.36 (KHTML, like Gecko) Chrome/120.0.0.0 Safari/537.36","WebKit","Chrome","120.0.0.0","Windows","10.0","https://hz8g1ckzuq.cognition.run/","en,en-US","qo6o22n1cayn58e","51","[""Black or African-American""]","No","Male","2136924.3999999985","null","","<p></p>","null","rating","ctd","repulsion_2","2","televisions","null","null","null","null","null","null","1","","","","","","","","","",""
"","","","","","rating_trial","survey-html-form","52","1266419","0.0-3.0-1.24","40","1","2025-04-11 14:12:19","bb671e3ae32f654b8954ea4c4635f915","","Mozilla/5.0 (Windows NT 10.0; Win64; x64) AppleWebKit/537.36 (KHTML, like Gecko) Chrome/120.0.0.0 Safari/537.36","WebKit","Chrome","120.0.0.0","Windows","10.0","https://hz8g1ckzuq.cognition.run/","en,en-US","qo6o22n1cayn58e","51","[""Black or African-American""]","No","Male","2136924.3999999985","38920","","","{""price_1"":""250"",""price_2"":""300"",""price_3"":""200""}","rating","ctd","repulsion_2","2","televisions","null","null","null","null","null","null","1","30","40","20","100","90","100","Screen size","Average lifespan","",""
"","","","","","rating_trial_setup","html-keyboard-response","53","1266727","0.0-3.0-0.25","40","1","2025-04-11 14:12:19","bb671e3ae32f654b8954ea4c4635f915","","Mozilla/5.0 (Windows NT 10.0; Win64; x64) AppleWebKit/537.36 (KHTML, like Gecko) Chrome/120.0.0.0 Safari/537.36","WebKit","Chrome","120.0.0.0","Windows","10.0","https://hz8g1ckzuq.cognition.run/","en,en-US","qo6o22n1cayn58e","51","[""Black or African-American""]","No","Male","2136924.3999999985","null","","<p></p>","null","rating","tdc","attraction_2","2","laptops","null","null","null","null","null","null","1","","","","","","","","","",""
"","","","","","rating_trial","survey-html-form","54","1318894","0.0-3.0-1.25","40","1","2025-04-11 14:12:19","bb671e3ae32f654b8954ea4c4635f915","","Mozilla/5.0 (Windows NT 10.0; Win64; x64) AppleWebKit/537.36 (KHTML, like Gecko) Chrome/120.0.0.0 Safari/537.36","WebKit","Chrome","120.0.0.0","Windows","10.0","https://hz8g1ckzuq.cognition.run/","en,en-US","qo6o22n1cayn58e","51","[""Black or African-American""]","No","Male","2136924.3999999985","52159","","","{""price_1"":""900"",""price_2"":""800"",""price_3"":""900""}","rating","tdc","attraction_2","2","laptops","null","null","null","null","null","null","1","50","60","40","60","50","60","Processing speed","Memory (RAM)","",""
"","","","","","rating_trial_setup","html-keyboard-response","55","1319200","0.0-3.0-0.26","40","1","2025-04-11 14:12:19","bb671e3ae32f654b8954ea4c4635f915","","Mozilla/5.0 (Windows NT 10.0; Win64; x64) AppleWebKit/537.36 (KHTML, like Gecko) Chrome/120.0.0.0 Safari/537.36","WebKit","Chrome","120.0.0.0","Windows","10.0","https://hz8g1ckzuq.cognition.run/","en,en-US","qo6o22n1cayn58e","51","[""Black or African-American""]","No","Male","2136924.3999999985","null","","<p></p>","null","rating","tcd","repulsion_1","2","televisions","null","null","null","null","null","null","1","","","","","","","","","",""
"","","","","","rating_trial","survey-html-form","56","1383558","0.0-3.0-1.26","40","1","2025-04-11 14:12:19","bb671e3ae32f654b8954ea4c4635f915","","Mozilla/5.0 (Windows NT 10.0; Win64; x64) AppleWebKit/537.36 (KHTML, like Gecko) Chrome/120.0.0.0 Safari/537.36","WebKit","Chrome","120.0.0.0","Windows","10.0","https://hz8g1ckzuq.cognition.run/","en,en-US","qo6o22n1cayn58e","51","[""Black or African-American""]","No","Male","2136924.3999999985","64352","","","{""price_1"":""300"",""price_2"":""100"",""price_3"":""250""}","rating","tcd","repulsion_1","2","televisions","null","null","null","null","null","null","1","30","40","25","100","90","100","Screen size","Average lifespan","",""
"","","","","","rating_trial_setup","html-keyboard-response","57","1383867","0.0-3.0-0.27","40","1","2025-04-11 14:12:19","bb671e3ae32f654b8954ea4c4635f915","","Mozilla/5.0 (Windows NT 10.0; Win64; x64) AppleWebKit/537.36 (KHTML, like Gecko) Chrome/120.0.0.0 Safari/537.36","WebKit","Chrome","120.0.0.0","Windows","10.0","https://hz8g1ckzuq.cognition.run/","en,en-US","qo6o22n1cayn58e","51","[""Black or African-American""]","No","Male","2136924.3999999985","null","","<p></p>","null","rating","ctd","repulsion_2","1","televisions","null","null","null","null","null","null","1","","","","","","","","","",""
"","","","","","rating_trial","survey-html-form","58","1403542","0.0-3.0-1.27","40","1","2025-04-11 14:12:19","bb671e3ae32f654b8954ea4c4635f915","","Mozilla/5.0 (Windows NT 10.0; Win64; x64) AppleWebKit/537.36 (KHTML, like Gecko) Chrome/120.0.0.0 Safari/537.36","WebKit","Chrome","120.0.0.0","Windows","10.0","https://hz8g1ckzuq.cognition.run/","en,en-US","qo6o22n1cayn58e","51","[""Black or African-American""]","No","Male","2136924.3999999985","19671","","","{""price_1"":""950"",""price_2"":""1000"",""price_3"":""900""}","rating","ctd","repulsion_2","1","televisions","null","null","null","null","null","null","1","100","90","100","30","40","20","Screen size","Average lifespan","",""
"","","","","","rating_trial_setup","html-keyboard-response","59","1403847","0.0-3.0-0.28","40","1","2025-04-11 14:12:19","bb671e3ae32f654b8954ea4c4635f915","","Mozilla/5.0 (Windows NT 10.0; Win64; x64) AppleWebKit/537.36 (KHTML, like Gecko) Chrome/120.0.0.0 Safari/537.36","WebKit","Chrome","120.0.0.0","Windows","10.0","https://hz8g1ckzuq.cognition.run/","en,en-US","qo6o22n1cayn58e","51","[""Black or African-American""]","No","Male","2136924.3999999985","null","","<p></p>","null","rating","wwb","catch","null","laptops","55","80","10","5","30","35","2","","","","","","","","","",""
"","","","","","rating_trial","survey-html-form","60","1435405","0.0-3.0-1.28","40","1","2025-04-11 14:12:19","bb671e3ae32f654b8954ea4c4635f915","","Mozilla/5.0 (Windows NT 10.0; Win64; x64) AppleWebKit/537.36 (KHTML, like Gecko) Chrome/120.0.0.0 Safari/537.36","WebKit","Chrome","120.0.0.0","Windows","10.0","https://hz8g1ckzuq.cognition.run/","en,en-US","qo6o22n1cayn58e","51","[""Black or African-American""]","No","Male","2136924.3999999985","31551","","","{""price_1"":""100"",""price_2"":""450"",""price_3"":""800""}","rating","wwb","catch","null","laptops","55","80","10","5","30","35","2","null","null","null","null","null","null","Processing speed","Memory (RAM)","",""
"","","","","","rating_trial_setup","html-keyboard-response","61","1435712","0.0-3.0-0.29","40","1","2025-04-11 14:12:19","bb671e3ae32f654b8954ea4c4635f915","","Mozilla/5.0 (Windows NT 10.0; Win64; x64) AppleWebKit/537.36 (KHTML, like Gecko) Chrome/120.0.0.0 Safari/537.36","WebKit","Chrome","120.0.0.0","Windows","10.0","https://hz8g1ckzuq.cognition.run/","en,en-US","qo6o22n1cayn58e","51","[""Black or African-American""]","No","Male","2136924.3999999985","null","","<p></p>","null","rating","ctd","repulsion_2","1","microwave ovens","null","null","null","null","null","null","1","","","","","","","","","",""
"","","","","","rating_trial","survey-html-form","62","1464919","0.0-3.0-1.29","40","1","2025-04-11 14:12:19","bb671e3ae32f654b8954ea4c4635f915","","Mozilla/5.0 (Windows NT 10.0; Win64; x64) AppleWebKit/537.36 (KHTML, like Gecko) Chrome/120.0.0.0 Safari/537.36","WebKit","Chrome","120.0.0.0","Windows","10.0","https://hz8g1ckzuq.cognition.run/","en,en-US","qo6o22n1cayn58e","51","[""Black or African-American""]","No","Male","2136924.3999999985","29202","","","{""price_1"":""160"",""price_2"":""140"",""price_3"":""100""}","rating","ctd","repulsion_2","1","microwave ovens","null","null","null","null","null","null","1","100","90","100","30","40","20","Warranty","Cooking power","",""
"","","","","","rating_trial_setup","html-keyboard-response","63","1465226","0.0-3.0-0.30","40","1","2025-04-11 14:12:19","bb671e3ae32f654b8954ea4c4635f915","","Mozilla/5.0 (Windows NT 10.0; Win64; x64) AppleWebKit/537.36 (KHTML, like Gecko) Chrome/120.0.0.0 Safari/537.36","WebKit","Chrome","120.0.0.0","Windows","10.0","https://hz8g1ckzuq.cognition.run/","en,en-US","qo6o22n1cayn58e","51","[""Black or African-American""]","No","Male","2136924.3999999985","null","","<p></p>","null","rating","dct","repulsion_1","2","microwave ovens","null","null","null","null","null","null","1","","","","","","","","","",""
"","","","","","rating_trial","survey-html-form","64","1511471","0.0-3.0-1.30","40","1","2025-04-11 14:12:19","bb671e3ae32f654b8954ea4c4635f915","","Mozilla/5.0 (Windows NT 10.0; Win64; x64) AppleWebKit/537.36 (KHTML, like Gecko) Chrome/120.0.0.0 Safari/537.36","WebKit","Chrome","120.0.0.0","Windows","10.0","https://hz8g1ckzuq.cognition.run/","en,en-US","qo6o22n1cayn58e","51","[""Black or African-American""]","No","Male","2136924.3999999985","46236","","","{""price_1"":""150"",""price_2"":""110"",""price_3"":""170""}","rating","dct","repulsion_1","2","microwave ovens","null","null","null","null","null","null","1","30","40","25","100","90","100","Warranty","Cooking power","",""
"","","","","","rating_trial_setup","html-keyboard-response","65","1511780","0.0-3.0-0.31","40","1","2025-04-11 14:12:19","bb671e3ae32f654b8954ea4c4635f915","","Mozilla/5.0 (Windows NT 10.0; Win64; x64) AppleWebKit/537.36 (KHTML, like Gecko) Chrome/120.0.0.0 Safari/537.36","WebKit","Chrome","120.0.0.0","Windows","10.0","https://hz8g1ckzuq.cognition.run/","en,en-US","qo6o22n1cayn58e","51","[""Black or African-American""]","No","Male","2136924.3999999985","null","","<p></p>","null","rating","tdc","attraction_2","2","microwave ovens","null","null","null","null","null","null","1","","","","","","","","","",""
"","","","","","rating_trial","survey-html-form","66","1533160","0.0-3.0-1.31","40","1","2025-04-11 14:12:19","bb671e3ae32f654b8954ea4c4635f915","","Mozilla/5.0 (Windows NT 10.0; Win64; x64) AppleWebKit/537.36 (KHTML, like Gecko) Chrome/120.0.0.0 Safari/537.36","WebKit","Chrome","120.0.0.0","Windows","10.0","https://hz8g1ckzuq.cognition.run/","en,en-US","qo6o22n1cayn58e","51","[""Black or African-American""]","No","Male","2136924.3999999985","21370","","","{""price_1"":""80"",""price_2"":""60"",""price_3"":""100""}","rating","tdc","attraction_2","2","microwave ovens","null","null","null","null","null","null","1","50","60","40","60","50","60","Warranty","Cooking power","",""
"","","","","","rating_trial_setup","html-keyboard-response","67","1533465","0.0-3.0-0.32","40","1","2025-04-11 14:12:19","bb671e3ae32f654b8954ea4c4635f915","","Mozilla/5.0 (Windows NT 10.0; Win64; x64) AppleWebKit/537.36 (KHTML, like Gecko) Chrome/120.0.0.0 Safari/537.36","WebKit","Chrome","120.0.0.0","Windows","10.0","https://hz8g1ckzuq.cognition.run/","en,en-US","qo6o22n1cayn58e","51","[""Black or African-American""]","No","Male","2136924.3999999985","null","","<p></p>","null","rating","cdt","repulsion_1","2","washing machines","null","null","null","null","null","null","2","","","","","","","","","",""
"","","","","","rating_trial","survey-html-form","68","1568231","0.0-3.0-1.32","40","1","2025-04-11 14:12:19","bb671e3ae32f654b8954ea4c4635f915","","Mozilla/5.0 (Windows NT 10.0; Win64; x64) AppleWebKit/537.36 (KHTML, like Gecko) Chrome/120.0.0.0 Safari/537.36","WebKit","Chrome","120.0.0.0","Windows","10.0","https://hz8g1ckzuq.cognition.run/","en,en-US","qo6o22n1cayn58e","51","[""Black or African-American""]","No","Male","2136924.3999999985","34753","","","{""price_1"":""800"",""price_2"":""900"",""price_3"":""950""}","rating","cdt","repulsion_1","2","washing machines","null","null","null","null","null","null","2","30","40","25","100","90","100","Average lifespan","Energy savings","",""
"","","","","","rating_trial_setup","html-keyboard-response","69","1568537","0.0-3.0-0.33","40","1","2025-04-11 14:12:19","bb671e3ae32f654b8954ea4c4635f915","","Mozilla/5.0 (Windows NT 10.0; Win64; x64) AppleWebKit/537.36 (KHTML, like Gecko) Chrome/120.0.0.0 Safari/537.36","WebKit","Chrome","120.0.0.0","Windows","10.0","https://hz8g1ckzuq.cognition.run/","en,en-US","qo6o22n1cayn58e","51","[""Black or African-American""]","No","Male","2136924.3999999985","null","","<p></p>","null","rating","cdt","attraction_1","2","washing machines","null","null","null","null","null","null","1","","","","","","","","","",""
"","","","","","rating_trial","survey-html-form","70","1587838","0.0-3.0-1.33","40","1","2025-04-11 14:12:19","bb671e3ae32f654b8954ea4c4635f915","","Mozilla/5.0 (Windows NT 10.0; Win64; x64) AppleWebKit/537.36 (KHTML, like Gecko) Chrome/120.0.0.0 Safari/537.36","WebKit","Chrome","120.0.0.0","Windows","10.0","https://hz8g1ckzuq.cognition.run/","en,en-US","qo6o22n1cayn58e","51","[""Black or African-American""]","No","Male","2136924.3999999985","19296","","","{""price_1"":""700"",""price_2"":""800"",""price_3"":""850""}","rating","cdt","attraction_1","2","washing machines","null","null","null","null","null","null","1","50","60","45","60","50","60","Average lifespan","Energy savings","",""
"","","","","","rating_trial_setup","html-keyboard-response","71","1588143","0.0-3.0-0.34","40","1","2025-04-11 14:12:19","bb671e3ae32f654b8954ea4c4635f915","","Mozilla/5.0 (Windows NT 10.0; Win64; x64) AppleWebKit/537.36 (KHTML, like Gecko) Chrome/120.0.0.0 Safari/537.36","WebKit","Chrome","120.0.0.0","Windows","10.0","https://hz8g1ckzuq.cognition.run/","en,en-US","qo6o22n1cayn58e","51","[""Black or African-American""]","No","Male","2136924.3999999985","null","","<p></p>","null","rating","tcd","repulsion_1","1","laptops","null","null","null","null","null","null","2","","","","","","","","","",""
"","","","","","rating_trial","survey-html-form","72","1628154","0.0-3.0-1.34","40","1","2025-04-11 14:12:19","bb671e3ae32f654b8954ea4c4635f915","","Mozilla/5.0 (Windows NT 10.0; Win64; x64) AppleWebKit/537.36 (KHTML, like Gecko) Chrome/120.0.0.0 Safari/537.36","WebKit","Chrome","120.0.0.0","Windows","10.0","https://hz8g1ckzuq.cognition.run/","en,en-US","qo6o22n1cayn58e","51","[""Black or African-American""]","No","Male","2136924.3999999985","40002","","","{""price_1"":""750"",""price_2"":""850"",""price_3"":""600""}","rating","tcd","repulsion_1","1","laptops","null","null","null","null","null","null","2","100","90","100","30","40","25","Processing speed","Memory (RAM)","",""
"","","","","","rating_trial_setup","html-keyboard-response","73","1628460","0.0-3.0-0.35","40","1","2025-04-11 14:12:19","bb671e3ae32f654b8954ea4c4635f915","","Mozilla/5.0 (Windows NT 10.0; Win64; x64) AppleWebKit/537.36 (KHTML, like Gecko) Chrome/120.0.0.0 Safari/537.36","WebKit","Chrome","120.0.0.0","Windows","10.0","https://hz8g1ckzuq.cognition.run/","en,en-US","qo6o22n1cayn58e","51","[""Black or African-American""]","No","Male","2136924.3999999985","null","","<p></p>","null","rating","wwb","catch","null","microwave ovens","50","85","20","45","40","10","1","","","","","","","","","",""
"","","","","","rating_trial","survey-html-form","74","1648440","0.0-3.0-1.35","40","1","2025-04-11 14:12:19","bb671e3ae32f654b8954ea4c4635f915","","Mozilla/5.0 (Windows NT 10.0; Win64; x64) AppleWebKit/537.36 (KHTML, like Gecko) Chrome/120.0.0.0 Safari/537.36","WebKit","Chrome","120.0.0.0","Windows","10.0","https://hz8g1ckzuq.cognition.run/","en,en-US","qo6o22n1cayn58e","51","[""Black or African-American""]","No","Male","2136924.3999999985","19972","","","{""price_1"":""150"",""price_2"":""200"",""price_3"":""300""}","rating","wwb","catch","null","microwave ovens","50","85","20","45","40","10","1","null","null","null","null","null","null","Warranty","Cooking power","",""
"","","","","","rating_trial_setup","html-keyboard-response","75","1648746","0.0-3.0-0.36","40","1","2025-04-11 14:12:19","bb671e3ae32f654b8954ea4c4635f915","","Mozilla/5.0 (Windows NT 10.0; Win64; x64) AppleWebKit/537.36 (KHTML, like Gecko) Chrome/120.0.0.0 Safari/537.36","WebKit","Chrome","120.0.0.0","Windows","10.0","https://hz8g1ckzuq.cognition.run/","en,en-US","qo6o22n1cayn58e","51","[""Black or African-American""]","No","Male","2136924.3999999985","null","","<p></p>","null","rating","dtc","attraction_1","1","laptops","null","null","null","null","null","null","1","","","","","","","","","",""
"","","","","","rating_trial","survey-html-form","76","1666280","0.0-3.0-1.36","40","1","2025-04-11 14:12:19","bb671e3ae32f654b8954ea4c4635f915","","Mozilla/5.0 (Windows NT 10.0; Win64; x64) AppleWebKit/537.36 (KHTML, like Gecko) Chrome/120.0.0.0 Safari/537.36","WebKit","Chrome","120.0.0.0","Windows","10.0","https://hz8g1ckzuq.cognition.run/","en,en-US","qo6o22n1cayn58e","51","[""Black or African-American""]","No","Male","2136924.3999999985","17526","","","{""price_1"":""600"",""price_2"":""550"",""price_3"":""500""}","rating","dtc","attraction_1","1","laptops","null","null","null","null","null","null","1","60","50","60","50","60","45","Processing speed","Memory (RAM)","",""
"","","","","","rating_trial_setup","html-keyboard-response","77","1666592","0.0-3.0-0.37","40","1","2025-04-11 14:12:19","bb671e3ae32f654b8954ea4c4635f915","","Mozilla/5.0 (Windows NT 10.0; Win64; x64) AppleWebKit/537.36 (KHTML, like Gecko) Chrome/120.0.0.0 Safari/537.36","WebKit","Chrome","120.0.0.0","Windows","10.0","https://hz8g1ckzuq.cognition.run/","en,en-US","qo6o22n1cayn58e","51","[""Black or African-American""]","No","Male","2136924.3999999985","null","","<p></p>","null","rating","cdt","repulsion_1","2","laptops","null","null","null","null","null","null","1","","","","","","","","","",""
"","","","","","rating_trial","survey-html-form","78","1686976","0.0-3.0-1.37","40","1","2025-04-11 14:12:19","bb671e3ae32f654b8954ea4c4635f915","","Mozilla/5.0 (Windows NT 10.0; Win64; x64) AppleWebKit/537.36 (KHTML, like Gecko) Chrome/120.0.0.0 Safari/537.36","WebKit","Chrome","120.0.0.0","Windows","10.0","https://hz8g1ckzuq.cognition.run/","en,en-US","qo6o22n1cayn58e","51","[""Black or African-American""]","No","Male","2136924.3999999985","20375","","","{""price_1"":""800"",""price_2"":""1000"",""price_3"":""1100""}","rating","cdt","repulsion_1","2","laptops","null","null","null","null","null","null","1","30","40","25","100","90","100","Processing speed","Memory (RAM)","",""
"","","","","","rating_trial_setup","html-keyboard-response","79","1687282","0.0-3.0-0.38","40","1","2025-04-11 14:12:19","bb671e3ae32f654b8954ea4c4635f915","","Mozilla/5.0 (Windows NT 10.0; Win64; x64) AppleWebKit/537.36 (KHTML, like Gecko) Chrome/120.0.0.0 Safari/537.36","WebKit","Chrome","120.0.0.0","Windows","10.0","https://hz8g1ckzuq.cognition.run/","en,en-US","qo6o22n1cayn58e","51","[""Black or African-American""]","No","Male","2136924.3999999985","null","","<p></p>","null","rating","bww","catch","null","washing machines","90","75","45","20","50","45","1","","","","","","","","","",""
"","","","","","rating_trial","survey-html-form","80","1710513","0.0-3.0-1.38","40","1","2025-04-11 14:12:19","bb671e3ae32f654b8954ea4c4635f915","","Mozilla/5.0 (Windows NT 10.0; Win64; x64) AppleWebKit/537.36 (KHTML, like Gecko) Chrome/120.0.0.0 Safari/537.36","WebKit","Chrome","120.0.0.0","Windows","10.0","https://hz8g1ckzuq.cognition.run/","en,en-US","qo6o22n1cayn58e","51","[""Black or African-American""]","No","Male","2136924.3999999985","23226","","","{""price_1"":""600"",""price_2"":""300"",""price_3"":""400""}","rating","bww","catch","null","washing machines","90","75","45","20","50","45","1","null","null","null","null","null","null","Average lifespan","Energy savings","",""
"","","","","","rating_trial_setup","html-keyboard-response","81","1710821","0.0-3.0-0.39","40","1","2025-04-11 14:12:19","bb671e3ae32f654b8954ea4c4635f915","","Mozilla/5.0 (Windows NT 10.0; Win64; x64) AppleWebKit/537.36 (KHTML, like Gecko) Chrome/120.0.0.0 Safari/537.36","WebKit","Chrome","120.0.0.0","Windows","10.0","https://hz8g1ckzuq.cognition.run/","en,en-US","qo6o22n1cayn58e","51","[""Black or African-American""]","No","Male","2136924.3999999985","null","","<p></p>","null","rating","cdt","attraction_1","2","televisions","null","null","null","null","null","null","2","","","","","","","","","",""
"","","","","","rating_trial","survey-html-form","82","1740444","0.0-3.0-1.39","40","1","2025-04-11 14:12:19","bb671e3ae32f654b8954ea4c4635f915","","Mozilla/5.0 (Windows NT 10.0; Win64; x64) AppleWebKit/537.36 (KHTML, like Gecko) Chrome/120.0.0.0 Safari/537.36","WebKit","Chrome","120.0.0.0","Windows","10.0","https://hz8g1ckzuq.cognition.run/","en,en-US","qo6o22n1cayn58e","51","[""Black or African-American""]","No","Male","2136924.3999999985","29615","","","{""price_1"":""500"",""price_2"":""400"",""price_3"":""550""}","rating","cdt","attraction_1","2","televisions","null","null","null","null","null","null","2","50","60","45","60","50","60","Screen size","Average lifespan","",""
"","","","","","","instructions","83","1806014","0.0-4.0","40","1","2025-04-11 14:12:19","bb671e3ae32f654b8954ea4c4635f915","","Mozilla/5.0 (Windows NT 10.0; Win64; x64) AppleWebKit/537.36 (KHTML, like Gecko) Chrome/120.0.0.0 Safari/537.36","WebKit","Chrome","120.0.0.0","Windows","10.0","https://hz8g1ckzuq.cognition.run/","en,en-US","qo6o22n1cayn58e","51","[""Black or African-American""]","No","Male","2136924.3999999985","65561","[{""page_index"":0,""viewing_time"":8558},{""page_index"":1,""viewing_time"":3122},{""page_index"":2,""viewing_time"":8020},{""page_index"":3,""viewing_time"":12805},{""page_index"":4,""viewing_time"":8153},{""page_index"":5,""viewing_time"":4545},{""page_index"":6,""viewing_time"":10779},{""page_index"":7,""viewing_time"":9579}]","","","","","","","","","","","","","","","","","","","","","","","",""
"","","","","","choice_trial_setup","html-keyboard-response","84","1806322","0.0-5.0-0.0","40","1","2025-04-11 14:12:19","bb671e3ae32f654b8954ea4c4635f915","","Mozilla/5.0 (Windows NT 10.0; Win64; x64) AppleWebKit/537.36 (KHTML, like Gecko) Chrome/120.0.0.0 Safari/537.36","WebKit","Chrome","120.0.0.0","Windows","10.0","https://hz8g1ckzuq.cognition.run/","en,en-US","qo6o22n1cayn58e","51","[""Black or African-American""]","No","Male","2136924.3999999985","null","","<p></p>","null","choice","dtc","repulsion_2","2","televisions","null","null","null","null","null","null","1","","","","","","","","","",""
"","","","","","choice_trial","survey-html-form","85","1817062","0.0-5.0-1.0","40","1","2025-04-11 14:12:19","bb671e3ae32f654b8954ea4c4635f915","","Mozilla/5.0 (Windows NT 10.0; Win64; x64) AppleWebKit/537.36 (KHTML, like Gecko) Chrome/120.0.0.0 Safari/537.36","WebKit","Chrome","120.0.0.0","Windows","10.0","https://hz8g1ckzuq.cognition.run/","en,en-US","qo6o22n1cayn58e","51","[""Black or African-American""]","No","Male","2136924.3999999985","10730","","","{""product_choice"":""C""}","choice","dtc","repulsion_2","2","televisions","null","null","null","null","null","null","1","30","40","20","100","90","100","Screen size","Average lifespan","",""
"","","","","","choice_trial_setup","html-keyboard-response","86","1817370","0.0-5.0-0.1","40","1","2025-04-11 14:12:19","bb671e3ae32f654b8954ea4c4635f915","","Mozilla/5.0 (Windows NT 10.0; Win64; x64) AppleWebKit/537.36 (KHTML, like Gecko) Chrome/120.0.0.0 Safari/537.36","WebKit","Chrome","120.0.0.0","Windows","10.0","https://hz8g1ckzuq.cognition.run/","en,en-US","qo6o22n1cayn58e","51","[""Black or African-American""]","No","Male","2136924.3999999985","null","","<p></p>","null","choice","tcd","attraction_1","1","televisions","null","null","null","null","null","null","1","","","","","","","","","",""
"","","","","","choice_trial","survey-html-form","87","1823373","0.0-5.0-1.1","40","1","2025-04-11 14:12:19","bb671e3ae32f654b8954ea4c4635f915","","Mozilla/5.0 (Windows NT 10.0; Win64; x64) AppleWebKit/537.36 (KHTML, like Gecko) Chrome/120.0.0.0 Safari/537.36","WebKit","Chrome","120.0.0.0","Windows","10.0","https://hz8g1ckzuq.cognition.run/","en,en-US","qo6o22n1cayn58e","51","[""Black or African-American""]","No","Male","2136924.3999999985","5995","","","{""product_choice"":""A""}","choice","tcd","attraction_1","1","televisions","null","null","null","null","null","null","1","60","50","60","50","60","45","Screen size","Average lifespan","",""
"","","","","","choice_trial_setup","html-keyboard-response","88","1823681","0.0-5.0-0.2","40","1","2025-04-11 14:12:19","bb671e3ae32f654b8954ea4c4635f915","","Mozilla/5.0 (Windows NT 10.0; Win64; x64) AppleWebKit/537.36 (KHTML, like Gecko) Chrome/120.0.0.0 Safari/537.36","WebKit","Chrome","120.0.0.0","Windows","10.0","https://hz8g1ckzuq.cognition.run/","en,en-US","qo6o22n1cayn58e","51","[""Black or African-American""]","No","Male","2136924.3999999985","null","","<p></p>","null","choice","dtc","repulsion_1","2","microwave ovens","null","null","null","null","null","null","2","","","","","","","","","",""
"","","","","","choice_trial","survey-html-form","89","1831234","0.0-5.0-1.2","40","1","2025-04-11 14:12:19","bb671e3ae32f654b8954ea4c4635f915","","Mozilla/5.0 (Windows NT 10.0; Win64; x64) AppleWebKit/537.36 (KHTML, like Gecko) Chrome/120.0.0.0 Safari/537.36","WebKit","Chrome","120.0.0.0","Windows","10.0","https://hz8g1ckzuq.cognition.run/","en,en-US","qo6o22n1cayn58e","51","[""Black or African-American""]","No","Male","2136924.3999999985","7546","","","{""product_choice"":""C""}","choice","dtc","repulsion_1","2","microwave ovens","null","null","null","null","null","null","2","30","40","25","100","90","100","Warranty","Cooking power","",""
"","","","","","choice_trial_setup","html-keyboard-response","90","1831542","0.0-5.0-0.3","40","1","2025-04-11 14:12:19","bb671e3ae32f654b8954ea4c4635f915","","Mozilla/5.0 (Windows NT 10.0; Win64; x64) AppleWebKit/537.36 (KHTML, like Gecko) Chrome/120.0.0.0 Safari/537.36","WebKit","Chrome","120.0.0.0","Windows","10.0","https://hz8g1ckzuq.cognition.run/","en,en-US","qo6o22n1cayn58e","51","[""Black or African-American""]","No","Male","2136924.3999999985","null","","<p></p>","null","choice","wwb","catch","null","televisions","80","50","35","15","5","25","2","","","","","","","","","",""
"","","","","","choice_trial","survey-html-form","91","1836785","0.0-5.0-1.3","40","1","2025-04-11 14:12:19","bb671e3ae32f654b8954ea4c4635f915","","Mozilla/5.0 (Windows NT 10.0; Win64; x64) AppleWebKit/537.36 (KHTML, like Gecko) Chrome/120.0.0.0 Safari/537.36","WebKit","Chrome","120.0.0.0","Windows","10.0","https://hz8g1ckzuq.cognition.run/","en,en-US","qo6o22n1cayn58e","51","[""Black or African-American""]","No","Male","2136924.3999999985","5230","","","{""product_choice"":""C""}","choice","wwb","catch","null","televisions","80","50","35","15","5","25","2","null","null","null","null","null","null","Screen size","Average lifespan","",""
"","","","","","choice_trial_setup","html-keyboard-response","92","1837091","0.0-5.0-0.4","40","1","2025-04-11 14:12:19","bb671e3ae32f654b8954ea4c4635f915","","Mozilla/5.0 (Windows NT 10.0; Win64; x64) AppleWebKit/537.36 (KHTML, like Gecko) Chrome/120.0.0.0 Safari/537.36","WebKit","Chrome","120.0.0.0","Windows","10.0","https://hz8g1ckzuq.cognition.run/","en,en-US","qo6o22n1cayn58e","51","[""Black or African-American""]","No","Male","2136924.3999999985","null","","<p></p>","null","choice","tdc","attraction_2","1","microwave ovens","null","null","null","null","null","null","2","","","","","","","","","",""
"","","","","","choice_trial","survey-html-form","93","1844400","0.0-5.0-1.4","40","1","2025-04-11 14:12:19","bb671e3ae32f654b8954ea4c4635f915","","Mozilla/5.0 (Windows NT 10.0; Win64; x64) AppleWebKit/537.36 (KHTML, like Gecko) Chrome/120.0.0.0 Safari/537.36","WebKit","Chrome","120.0.0.0","Windows","10.0","https://hz8g1ckzuq.cognition.run/","en,en-US","qo6o22n1cayn58e","51","[""Black or African-American""]","No","Male","2136924.3999999985","7297","","","{""product_choice"":""A""}","choice","tdc","attraction_2","1","microwave ovens","null","null","null","null","null","null","2","60","50","60","50","60","40","Warranty","Cooking power","",""
"","","","","","choice_trial_setup","html-keyboard-response","94","1844705","0.0-5.0-0.5","40","1","2025-04-11 14:12:19","bb671e3ae32f654b8954ea4c4635f915","","Mozilla/5.0 (Windows NT 10.0; Win64; x64) AppleWebKit/537.36 (KHTML, like Gecko) Chrome/120.0.0.0 Safari/537.36","WebKit","Chrome","120.0.0.0","Windows","10.0","https://hz8g1ckzuq.cognition.run/","en,en-US","qo6o22n1cayn58e","51","[""Black or African-American""]","No","Male","2136924.3999999985","null","","<p></p>","null","choice","dct","repulsion_2","1","laptops","null","null","null","null","null","null","1","","","","","","","","","",""
"","","","","","choice_trial","survey-html-form","95","1851460","0.0-5.0-1.5","40","1","2025-04-11 14:12:19","bb671e3ae32f654b8954ea4c4635f915","","Mozilla/5.0 (Windows NT 10.0; Win64; x64) AppleWebKit/537.36 (KHTML, like Gecko) Chrome/120.0.0.0 Safari/537.36","WebKit","Chrome","120.0.0.0","Windows","10.0","https://hz8g1ckzuq.cognition.run/","en,en-US","qo6o22n1cayn58e","51","[""Black or African-American""]","No","Male","2136924.3999999985","6746","","","{""product_choice"":""C""}","choice","dct","repulsion_2","1","laptops","null","null","null","null","null","null","1","100","90","100","30","40","20","Processing speed","Memory (RAM)","",""
"","","","","","choice_trial_setup","html-keyboard-response","96","1851767","0.0-5.0-0.6","40","1","2025-04-11 14:12:19","bb671e3ae32f654b8954ea4c4635f915","","Mozilla/5.0 (Windows NT 10.0; Win64; x64) AppleWebKit/537.36 (KHTML, like Gecko) Chrome/120.0.0.0 Safari/537.36","WebKit","Chrome","120.0.0.0","Windows","10.0","https://hz8g1ckzuq.cognition.run/","en,en-US","qo6o22n1cayn58e","51","[""Black or African-American""]","No","Male","2136924.3999999985","null","","<p></p>","null","choice","bww","catch","null","washing machines","65","85","20","45","15","40","1","","","","","","","","","",""
"","","","","","choice_trial","survey-html-form","97","1861200","0.0-5.0-1.6","40","1","2025-04-11 14:12:19","bb671e3ae32f654b8954ea4c4635f915","","Mozilla/5.0 (Windows NT 10.0; Win64; x64) AppleWebKit/537.36 (KHTML, like Gecko) Chrome/120.0.0.0 Safari/537.36","WebKit","Chrome","120.0.0.0","Windows","10.0","https://hz8g1ckzuq.cognition.run/","en,en-US","qo6o22n1cayn58e","51","[""Black or African-American""]","No","Male","2136924.3999999985","9426","","","{""product_choice"":""A""}","choice","bww","catch","null","washing machines","65","85","20","45","15","40","1","null","null","null","null","null","null","Average lifespan","Energy savings","",""
"","","","","","choice_trial_setup","html-keyboard-response","98","1861506","0.0-5.0-0.7","40","1","2025-04-11 14:12:19","bb671e3ae32f654b8954ea4c4635f915","","Mozilla/5.0 (Windows NT 10.0; Win64; x64) AppleWebKit/537.36 (KHTML, like Gecko) Chrome/120.0.0.0 Safari/537.36","WebKit","Chrome","120.0.0.0","Windows","10.0","https://hz8g1ckzuq.cognition.run/","en,en-US","qo6o22n1cayn58e","51","[""Black or African-American""]","No","Male","2136924.3999999985","null","","<p></p>","null","choice","dct","repulsion_2","1","televisions","null","null","null","null","null","null","1","","","","","","","","","",""
"","","","","","choice_trial","survey-html-form","99","1866522","0.0-5.0-1.7","40","1","2025-04-11 14:12:19","bb671e3ae32f654b8954ea4c4635f915","","Mozilla/5.0 (Windows NT 10.0; Win64; x64) AppleWebKit/537.36 (KHTML, like Gecko) Chrome/120.0.0.0 Safari/537.36","WebKit","Chrome","120.0.0.0","Windows","10.0","https://hz8g1ckzuq.cognition.run/","en,en-US","qo6o22n1cayn58e","51","[""Black or African-American""]","No","Male","2136924.3999999985","5007","","","{""product_choice"":""B""}","choice","dct","repulsion_2","1","televisions","null","null","null","null","null","null","1","100","90","100","30","40","20","Screen size","Average lifespan","",""
"","","","","","choice_trial_setup","html-keyboard-response","100","1866832","0.0-5.0-0.8","40","1","2025-04-11 14:12:19","bb671e3ae32f654b8954ea4c4635f915","","Mozilla/5.0 (Windows NT 10.0; Win64; x64) AppleWebKit/537.36 (KHTML, like Gecko) Chrome/120.0.0.0 Safari/537.36","WebKit","Chrome","120.0.0.0","Windows","10.0","https://hz8g1ckzuq.cognition.run/","en,en-US","qo6o22n1cayn58e","51","[""Black or African-American""]","No","Male","2136924.3999999985","null","","<p></p>","null","choice","tcd","repulsion_1","1","laptops","null","null","null","null","null","null","1","","","","","","","","","",""
"","","","","","choice_trial","survey-html-form","101","1872066","0.0-5.0-1.8","40","1","2025-04-11 14:12:19","bb671e3ae32f654b8954ea4c4635f915","","Mozilla/5.0 (Windows NT 10.0; Win64; x64) AppleWebKit/537.36 (KHTML, like Gecko) Chrome/120.0.0.0 Safari/537.36","WebKit","Chrome","120.0.0.0","Windows","10.0","https://hz8g1ckzuq.cognition.run/","en,en-US","qo6o22n1cayn58e","51","[""Black or African-American""]","No","Male","2136924.3999999985","5224","","","{""product_choice"":""B""}","choice","tcd","repulsion_1","1","laptops","null","null","null","null","null","null","1","100","90","100","30","40","25","Processing speed","Memory (RAM)","",""
"","","","","","choice_trial_setup","html-keyboard-response","102","1872373","0.0-5.0-0.9","40","1","2025-04-11 14:12:19","bb671e3ae32f654b8954ea4c4635f915","","Mozilla/5.0 (Windows NT 10.0; Win64; x64) AppleWebKit/537.36 (KHTML, like Gecko) Chrome/120.0.0.0 Safari/537.36","WebKit","Chrome","120.0.0.0","Windows","10.0","https://hz8g1ckzuq.cognition.run/","en,en-US","qo6o22n1cayn58e","51","[""Black or African-American""]","No","Male","2136924.3999999985","null","","<p></p>","null","choice","wbw","catch","null","televisions","95","85","50","30","50","45","1","","","","","","","","","",""
"","","","","","choice_trial","survey-html-form","103","1878105","0.0-5.0-1.9","40","1","2025-04-11 14:12:19","bb671e3ae32f654b8954ea4c4635f915","","Mozilla/5.0 (Windows NT 10.0; Win64; x64) AppleWebKit/537.36 (KHTML, like Gecko) Chrome/120.0.0.0 Safari/537.36","WebKit","Chrome","120.0.0.0","Windows","10.0","https://hz8g1ckzuq.cognition.run/","en,en-US","qo6o22n1cayn58e","51","[""Black or African-American""]","No","Male","2136924.3999999985","5724","","","{""product_choice"":""B""}","choice","wbw","catch","null","televisions","95","85","50","30","50","45","1","null","null","null","null","null","null","Screen size","Average lifespan","",""
"","","","","","choice_trial_setup","html-keyboard-response","104","1878411","0.0-5.0-0.10","40","1","2025-04-11 14:12:19","bb671e3ae32f654b8954ea4c4635f915","","Mozilla/5.0 (Windows NT 10.0; Win64; x64) AppleWebKit/537.36 (KHTML, like Gecko) Chrome/120.0.0.0 Safari/537.36","WebKit","Chrome","120.0.0.0","Windows","10.0","https://hz8g1ckzuq.cognition.run/","en,en-US","qo6o22n1cayn58e","51","[""Black or African-American""]","No","Male","2136924.3999999985","null","","<p></p>","null","choice","dct","attraction_2","1","washing machines","null","null","null","null","null","null","2","","","","","","","","","",""
"","","","","","choice_trial","survey-html-form","105","1884996","0.0-5.0-1.10","40","1","2025-04-11 14:12:19","bb671e3ae32f654b8954ea4c4635f915","","Mozilla/5.0 (Windows NT 10.0; Win64; x64) AppleWebKit/537.36 (KHTML, like Gecko) Chrome/120.0.0.0 Safari/537.36","WebKit","Chrome","120.0.0.0","Windows","10.0","https://hz8g1ckzuq.cognition.run/","en,en-US","qo6o22n1cayn58e","51","[""Black or African-American""]","No","Male","2136924.3999999985","6577","","","{""product_choice"":""B""}","choice","dct","attraction_2","1","washing machines","null","null","null","null","null","null","2","60","50","60","50","60","40","Average lifespan","Energy savings","",""
"","","","","","choice_trial_setup","html-keyboard-response","106","1885303","0.0-5.0-0.11","40","1","2025-04-11 14:12:19","bb671e3ae32f654b8954ea4c4635f915","","Mozilla/5.0 (Windows NT 10.0; Win64; x64) AppleWebKit/537.36 (KHTML, like Gecko) Chrome/120.0.0.0 Safari/537.36","WebKit","Chrome","120.0.0.0","Windows","10.0","https://hz8g1ckzuq.cognition.run/","en,en-US","qo6o22n1cayn58e","51","[""Black or African-American""]","No","Male","2136924.3999999985","null","","<p></p>","null","choice","ctd","attraction_2","2","televisions","null","null","null","null","null","null","2","","","","","","","","","",""
"","","","","","choice_trial","survey-html-form","107","1890573","0.0-5.0-1.11","40","1","2025-04-11 14:12:19","bb671e3ae32f654b8954ea4c4635f915","","Mozilla/5.0 (Windows NT 10.0; Win64; x64) AppleWebKit/537.36 (KHTML, like Gecko) Chrome/120.0.0.0 Safari/537.36","WebKit","Chrome","120.0.0.0","Windows","10.0","https://hz8g1ckzuq.cognition.run/","en,en-US","qo6o22n1cayn58e","51","[""Black or African-American""]","No","Male","2136924.3999999985","5264","","","{""product_choice"":""A""}","choice","ctd","attraction_2","2","televisions","null","null","null","null","null","null","2","50","60","40","60","50","60","Screen size","Average lifespan","",""
"","","","","","choice_trial_setup","html-keyboard-response","108","1890878","0.0-5.0-0.12","40","1","2025-04-11 14:12:19","bb671e3ae32f654b8954ea4c4635f915","","Mozilla/5.0 (Windows NT 10.0; Win64; x64) AppleWebKit/537.36 (KHTML, like Gecko) Chrome/120.0.0.0 Safari/537.36","WebKit","Chrome","120.0.0.0","Windows","10.0","https://hz8g1ckzuq.cognition.run/","en,en-US","qo6o22n1cayn58e","51","[""Black or African-American""]","No","Male","2136924.3999999985","null","","<p></p>","null","choice","dtc","attraction_1","1","washing machines","null","null","null","null","null","null","2","","","","","","","","","",""
"","","","","","choice_trial","survey-html-form","109","1897517","0.0-5.0-1.12","40","1","2025-04-11 14:12:19","bb671e3ae32f654b8954ea4c4635f915","","Mozilla/5.0 (Windows NT 10.0; Win64; x64) AppleWebKit/537.36 (KHTML, like Gecko) Chrome/120.0.0.0 Safari/537.36","WebKit","Chrome","120.0.0.0","Windows","10.0","https://hz8g1ckzuq.cognition.run/","en,en-US","qo6o22n1cayn58e","51","[""Black or African-American""]","No","Male","2136924.3999999985","6630","","","{""product_choice"":""C""}","choice","dtc","attraction_1","1","washing machines","null","null","null","null","null","null","2","60","50","60","50","60","45","Average lifespan","Energy savings","",""
"","","","","","choice_trial_setup","html-keyboard-response","110","1897824","0.0-5.0-0.13","40","1","2025-04-11 14:12:19","bb671e3ae32f654b8954ea4c4635f915","","Mozilla/5.0 (Windows NT 10.0; Win64; x64) AppleWebKit/537.36 (KHTML, like Gecko) Chrome/120.0.0.0 Safari/537.36","WebKit","Chrome","120.0.0.0","Windows","10.0","https://hz8g1ckzuq.cognition.run/","en,en-US","qo6o22n1cayn58e","51","[""Black or African-American""]","No","Male","2136924.3999999985","null","","<p></p>","null","choice","dct","repulsion_1","2","televisions","null","null","null","null","null","null","1","","","","","","","","","",""
"","","","","","choice_trial","survey-html-form","111","1903924","0.0-5.0-1.13","40","1","2025-04-11 14:12:19","bb671e3ae32f654b8954ea4c4635f915","","Mozilla/5.0 (Windows NT 10.0; Win64; x64) AppleWebKit/537.36 (KHTML, like Gecko) Chrome/120.0.0.0 Safari/537.36","WebKit","Chrome","120.0.0.0","Windows","10.0","https://hz8g1ckzuq.cognition.run/","en,en-US","qo6o22n1cayn58e","51","[""Black or African-American""]","No","Male","2136924.3999999985","6089","","","{""product_choice"":""B""}","choice","dct","repulsion_1","2","televisions","null","null","null","null","null","null","1","30","40","25","100","90","100","Screen size","Average lifespan","",""
"","","","","","choice_trial_setup","html-keyboard-response","112","1904234","0.0-5.0-0.14","40","1","2025-04-11 14:12:19","bb671e3ae32f654b8954ea4c4635f915","","Mozilla/5.0 (Windows NT 10.0; Win64; x64) AppleWebKit/537.36 (KHTML, like Gecko) Chrome/120.0.0.0 Safari/537.36","WebKit","Chrome","120.0.0.0","Windows","10.0","https://hz8g1ckzuq.cognition.run/","en,en-US","qo6o22n1cayn58e","51","[""Black or African-American""]","No","Male","2136924.3999999985","null","","<p></p>","null","choice","dct","attraction_1","2","microwave ovens","null","null","null","null","null","null","2","","","","","","","","","",""
"","","","","","choice_trial","survey-html-form","113","1910623","0.0-5.0-1.14","40","1","2025-04-11 14:12:19","bb671e3ae32f654b8954ea4c4635f915","","Mozilla/5.0 (Windows NT 10.0; Win64; x64) AppleWebKit/537.36 (KHTML, like Gecko) Chrome/120.0.0.0 Safari/537.36","WebKit","Chrome","120.0.0.0","Windows","10.0","https://hz8g1ckzuq.cognition.run/","en,en-US","qo6o22n1cayn58e","51","[""Black or African-American""]","No","Male","2136924.3999999985","6381","","","{""product_choice"":""B""}","choice","dct","attraction_1","2","microwave ovens","null","null","null","null","null","null","2","50","60","45","60","50","60","Warranty","Cooking power","",""
"","","","","","choice_trial_setup","html-keyboard-response","114","1910937","0.0-5.0-0.15","40","1","2025-04-11 14:12:19","bb671e3ae32f654b8954ea4c4635f915","","Mozilla/5.0 (Windows NT 10.0; Win64; x64) AppleWebKit/537.36 (KHTML, like Gecko) Chrome/120.0.0.0 Safari/537.36","WebKit","Chrome","120.0.0.0","Windows","10.0","https://hz8g1ckzuq.cognition.run/","en,en-US","qo6o22n1cayn58e","51","[""Black or African-American""]","No","Male","2136924.3999999985","null","","<p></p>","null","choice","wbw","catch","null","microwave ovens","70","95","10","10","10","35","1","","","","","","","","","",""
"","","","","","choice_trial","survey-html-form","115","1917999","0.0-5.0-1.15","40","1","2025-04-11 14:12:19","bb671e3ae32f654b8954ea4c4635f915","","Mozilla/5.0 (Windows NT 10.0; Win64; x64) AppleWebKit/537.36 (KHTML, like Gecko) Chrome/120.0.0.0 Safari/537.36","WebKit","Chrome","120.0.0.0","Windows","10.0","https://hz8g1ckzuq.cognition.run/","en,en-US","qo6o22n1cayn58e","51","[""Black or African-American""]","No","Male","2136924.3999999985","7045","","","{""product_choice"":""B""}","choice","wbw","catch","null","microwave ovens","70","95","10","10","10","35","1","null","null","null","null","null","null","Warranty","Cooking power","",""
"","","","","","choice_trial_setup","html-keyboard-response","116","1918306","0.0-5.0-0.16","40","1","2025-04-11 14:12:19","bb671e3ae32f654b8954ea4c4635f915","","Mozilla/5.0 (Windows NT 10.0; Win64; x64) AppleWebKit/537.36 (KHTML, like Gecko) Chrome/120.0.0.0 Safari/537.36","WebKit","Chrome","120.0.0.0","Windows","10.0","https://hz8g1ckzuq.cognition.run/","en,en-US","qo6o22n1cayn58e","51","[""Black or African-American""]","No","Male","2136924.3999999985","null","","<p></p>","null","choice","dct","repulsion_1","1","washing machines","null","null","null","null","null","null","2","","","","","","","","","",""
"","","","","","choice_trial","survey-html-form","117","1925412","0.0-5.0-1.16","40","1","2025-04-11 14:12:19","bb671e3ae32f654b8954ea4c4635f915","","Mozilla/5.0 (Windows NT 10.0; Win64; x64) AppleWebKit/537.36 (KHTML, like Gecko) Chrome/120.0.0.0 Safari/537.36","WebKit","Chrome","120.0.0.0","Windows","10.0","https://hz8g1ckzuq.cognition.run/","en,en-US","qo6o22n1cayn58e","51","[""Black or African-American""]","No","Male","2136924.3999999985","7097","","","{""product_choice"":""B""}","choice","dct","repulsion_1","1","washing machines","null","null","null","null","null","null","2","100","90","100","30","40","25","Average lifespan","Energy savings","",""
"","","","","","choice_trial_setup","html-keyboard-response","118","1925721","0.0-5.0-0.17","40","1","2025-04-11 14:12:19","bb671e3ae32f654b8954ea4c4635f915","","Mozilla/5.0 (Windows NT 10.0; Win64; x64) AppleWebKit/537.36 (KHTML, like Gecko) Chrome/120.0.0.0 Safari/537.36","WebKit","Chrome","120.0.0.0","Windows","10.0","https://hz8g1ckzuq.cognition.run/","en,en-US","qo6o22n1cayn58e","51","[""Black or African-American""]","No","Male","2136924.3999999985","null","","<p></p>","null","choice","dtc","repulsion_2","1","microwave ovens","null","null","null","null","null","null","1","","","","","","","","","",""
"","","","","","choice_trial","survey-html-form","119","1929556","0.0-5.0-1.17","40","1","2025-04-11 14:12:19","bb671e3ae32f654b8954ea4c4635f915","","Mozilla/5.0 (Windows NT 10.0; Win64; x64) AppleWebKit/537.36 (KHTML, like Gecko) Chrome/120.0.0.0 Safari/537.36","WebKit","Chrome","120.0.0.0","Windows","10.0","https://hz8g1ckzuq.cognition.run/","en,en-US","qo6o22n1cayn58e","51","[""Black or African-American""]","No","Male","2136924.3999999985","3826","","","{""product_choice"":""B""}","choice","dtc","repulsion_2","1","microwave ovens","null","null","null","null","null","null","1","100","90","100","30","40","20","Warranty","Cooking power","",""
"","","","","","choice_trial_setup","html-keyboard-response","120","1929866","0.0-5.0-0.18","40","1","2025-04-11 14:12:19","bb671e3ae32f654b8954ea4c4635f915","","Mozilla/5.0 (Windows NT 10.0; Win64; x64) AppleWebKit/537.36 (KHTML, like Gecko) Chrome/120.0.0.0 Safari/537.36","WebKit","Chrome","120.0.0.0","Windows","10.0","https://hz8g1ckzuq.cognition.run/","en,en-US","qo6o22n1cayn58e","51","[""Black or African-American""]","No","Male","2136924.3999999985","null","","<p></p>","null","choice","tcd","repulsion_2","2","microwave ovens","null","null","null","null","null","null","2","","","","","","","","","",""
"","","","","","choice_trial","survey-html-form","121","1933630","0.0-5.0-1.18","40","1","2025-04-11 14:12:19","bb671e3ae32f654b8954ea4c4635f915","","Mozilla/5.0 (Windows NT 10.0; Win64; x64) AppleWebKit/537.36 (KHTML, like Gecko) Chrome/120.0.0.0 Safari/537.36","WebKit","Chrome","120.0.0.0","Windows","10.0","https://hz8g1ckzuq.cognition.run/","en,en-US","qo6o22n1cayn58e","51","[""Black or African-American""]","No","Male","2136924.3999999985","3751","","","{""product_choice"":""B""}","choice","tcd","repulsion_2","2","microwave ovens","null","null","null","null","null","null","2","30","40","20","100","90","100","Warranty","Cooking power","",""
"","","","","","choice_trial_setup","html-keyboard-response","122","1933935","0.0-5.0-0.19","40","1","2025-04-11 14:12:19","bb671e3ae32f654b8954ea4c4635f915","","Mozilla/5.0 (Windows NT 10.0; Win64; x64) AppleWebKit/537.36 (KHTML, like Gecko) Chrome/120.0.0.0 Safari/537.36","WebKit","Chrome","120.0.0.0","Windows","10.0","https://hz8g1ckzuq.cognition.run/","en,en-US","qo6o22n1cayn58e","51","[""Black or African-American""]","No","Male","2136924.3999999985","null","","<p></p>","null","choice","ctd","attraction_1","2","televisions","null","null","null","null","null","null","1","","","","","","","","","",""
"","","","","","choice_trial","survey-html-form","123","1938598","0.0-5.0-1.19","40","1","2025-04-11 14:12:19","bb671e3ae32f654b8954ea4c4635f915","","Mozilla/5.0 (Windows NT 10.0; Win64; x64) AppleWebKit/537.36 (KHTML, like Gecko) Chrome/120.0.0.0 Safari/537.36","WebKit","Chrome","120.0.0.0","Windows","10.0","https://hz8g1ckzuq.cognition.run/","en,en-US","qo6o22n1cayn58e","51","[""Black or African-American""]","No","Male","2136924.3999999985","4654","","","{""product_choice"":""A""}","choice","ctd","attraction_1","2","televisions","null","null","null","null","null","null","1","50","60","45","60","50","60","Screen size","Average lifespan","",""
"","","","","","choice_trial_setup","html-keyboard-response","124","1938907","0.0-5.0-0.20","40","1","2025-04-11 14:12:19","bb671e3ae32f654b8954ea4c4635f915","","Mozilla/5.0 (Windows NT 10.0; Win64; x64) AppleWebKit/537.36 (KHTML, like Gecko) Chrome/120.0.0.0 Safari/537.36","WebKit","Chrome","120.0.0.0","Windows","10.0","https://hz8g1ckzuq.cognition.run/","en,en-US","qo6o22n1cayn58e","51","[""Black or African-American""]","No","Male","2136924.3999999985","null","","<p></p>","null","choice","ctd","repulsion_2","1","washing machines","null","null","null","null","null","null","1","","","","","","","","","",""
"","","","","","choice_trial","survey-html-form","125","1943774","0.0-5.0-1.20","40","1","2025-04-11 14:12:19","bb671e3ae32f654b8954ea4c4635f915","","Mozilla/5.0 (Windows NT 10.0; Win64; x64) AppleWebKit/537.36 (KHTML, like Gecko) Chrome/120.0.0.0 Safari/537.36","WebKit","Chrome","120.0.0.0","Windows","10.0","https://hz8g1ckzuq.cognition.run/","en,en-US","qo6o22n1cayn58e","51","[""Black or African-American""]","No","Male","2136924.3999999985","4853","","","{""product_choice"":""A""}","choice","ctd","repulsion_2","1","washing machines","null","null","null","null","null","null","1","100","90","100","30","40","20","Average lifespan","Energy savings","",""
"","","","","","choice_trial_setup","html-keyboard-response","126","1944089","0.0-5.0-0.21","40","1","2025-04-11 14:12:19","bb671e3ae32f654b8954ea4c4635f915","","Mozilla/5.0 (Windows NT 10.0; Win64; x64) AppleWebKit/537.36 (KHTML, like Gecko) Chrome/120.0.0.0 Safari/537.36","WebKit","Chrome","120.0.0.0","Windows","10.0","https://hz8g1ckzuq.cognition.run/","en,en-US","qo6o22n1cayn58e","51","[""Black or African-American""]","No","Male","2136924.3999999985","null","","<p></p>","null","choice","dct","attraction_2","1","televisions","null","null","null","null","null","null","2","","","","","","","","","",""
"","","","","","choice_trial","survey-html-form","127","1950774","0.0-5.0-1.21","40","1","2025-04-11 14:12:19","bb671e3ae32f654b8954ea4c4635f915","","Mozilla/5.0 (Windows NT 10.0; Win64; x64) AppleWebKit/537.36 (KHTML, like Gecko) Chrome/120.0.0.0 Safari/537.36","WebKit","Chrome","120.0.0.0","Windows","10.0","https://hz8g1ckzuq.cognition.run/","en,en-US","qo6o22n1cayn58e","51","[""Black or African-American""]","No","Male","2136924.3999999985","6677","","","{""product_choice"":""C""}","choice","dct","attraction_2","1","televisions","null","null","null","null","null","null","2","60","50","60","50","60","40","Screen size","Average lifespan","",""
"","","","","","choice_trial_setup","html-keyboard-response","128","1951083","0.0-5.0-0.22","40","1","2025-04-11 14:12:19","bb671e3ae32f654b8954ea4c4635f915","","Mozilla/5.0 (Windows NT 10.0; Win64; x64) AppleWebKit/537.36 (KHTML, like Gecko) Chrome/120.0.0.0 Safari/537.36","WebKit","Chrome","120.0.0.0","Windows","10.0","https://hz8g1ckzuq.cognition.run/","en,en-US","qo6o22n1cayn58e","51","[""Black or African-American""]","No","Male","2136924.3999999985","null","","<p></p>","null","choice","dtc","attraction_1","2","washing machines","null","null","null","null","null","null","2","","","","","","","","","",""
"","","","","","choice_trial","survey-html-form","129","1958994","0.0-5.0-1.22","40","1","2025-04-11 14:12:19","bb671e3ae32f654b8954ea4c4635f915","","Mozilla/5.0 (Windows NT 10.0; Win64; x64) AppleWebKit/537.36 (KHTML, like Gecko) Chrome/120.0.0.0 Safari/537.36","WebKit","Chrome","120.0.0.0","Windows","10.0","https://hz8g1ckzuq.cognition.run/","en,en-US","qo6o22n1cayn58e","51","[""Black or African-American""]","No","Male","2136924.3999999985","7899","","","{""product_choice"":""B""}","choice","dtc","attraction_1","2","washing machines","null","null","null","null","null","null","2","50","60","45","60","50","60","Average lifespan","Energy savings","",""
"","","","","","choice_trial_setup","html-keyboard-response","130","1959303","0.0-5.0-0.23","40","1","2025-04-11 14:12:19","bb671e3ae32f654b8954ea4c4635f915","","Mozilla/5.0 (Windows NT 10.0; Win64; x64) AppleWebKit/537.36 (KHTML, like Gecko) Chrome/120.0.0.0 Safari/537.36","WebKit","Chrome","120.0.0.0","Windows","10.0","https://hz8g1ckzuq.cognition.run/","en,en-US","qo6o22n1cayn58e","51","[""Black or African-American""]","No","Male","2136924.3999999985","null","","<p></p>","null","choice","tdc","repulsion_1","1","microwave ovens","null","null","null","null","null","null","2","","","","","","","","","",""
"","","","","","choice_trial","survey-html-form","131","1963490","0.0-5.0-1.23","40","1","2025-04-11 14:12:19","bb671e3ae32f654b8954ea4c4635f915","","Mozilla/5.0 (Windows NT 10.0; Win64; x64) AppleWebKit/537.36 (KHTML, like Gecko) Chrome/120.0.0.0 Safari/537.36","WebKit","Chrome","120.0.0.0","Windows","10.0","https://hz8g1ckzuq.cognition.run/","en,en-US","qo6o22n1cayn58e","51","[""Black or African-American""]","No","Male","2136924.3999999985","4177","","","{""product_choice"":""A""}","choice","tdc","repulsion_1","1","microwave ovens","null","null","null","null","null","null","2","100","90","100","30","40","25","Warranty","Cooking power","",""
"","","","","","choice_trial_setup","html-keyboard-response","132","1963803","0.0-5.0-0.24","40","1","2025-04-11 14:12:19","bb671e3ae32f654b8954ea4c4635f915","","Mozilla/5.0 (Windows NT 10.0; Win64; x64) AppleWebKit/537.36 (KHTML, like Gecko) Chrome/120.0.0.0 Safari/537.36","WebKit","Chrome","120.0.0.0","Windows","10.0","https://hz8g1ckzuq.cognition.run/","en,en-US","qo6o22n1cayn58e","51","[""Black or African-American""]","No","Male","2136924.3999999985","null","","<p></p>","null","choice","cdt","attraction_1","1","laptops","null","null","null","null","null","null","1","","","","","","","","","",""
"","","","","","choice_trial","survey-html-form","133","1970184","0.0-5.0-1.24","40","1","2025-04-11 14:12:19","bb671e3ae32f654b8954ea4c4635f915","","Mozilla/5.0 (Windows NT 10.0; Win64; x64) AppleWebKit/537.36 (KHTML, like Gecko) Chrome/120.0.0.0 Safari/537.36","WebKit","Chrome","120.0.0.0","Windows","10.0","https://hz8g1ckzuq.cognition.run/","en,en-US","qo6o22n1cayn58e","51","[""Black or African-American""]","No","Male","2136924.3999999985","6369","","","{""product_choice"":""A""}","choice","cdt","attraction_1","1","laptops","null","null","null","null","null","null","1","60","50","60","50","60","45","Processing speed","Memory (RAM)","",""
"","","","","","choice_trial_setup","html-keyboard-response","134","1970493","0.0-5.0-0.25","40","1","2025-04-11 14:12:19","bb671e3ae32f654b8954ea4c4635f915","","Mozilla/5.0 (Windows NT 10.0; Win64; x64) AppleWebKit/537.36 (KHTML, like Gecko) Chrome/120.0.0.0 Safari/537.36","WebKit","Chrome","120.0.0.0","Windows","10.0","https://hz8g1ckzuq.cognition.run/","en,en-US","qo6o22n1cayn58e","51","[""Black or African-American""]","No","Male","2136924.3999999985","null","","<p></p>","null","choice","dct","repulsion_1","2","laptops","null","null","null","null","null","null","1","","","","","","","","","",""
"","","","","","choice_trial","survey-html-form","135","1975523","0.0-5.0-1.25","40","1","2025-04-11 14:12:19","bb671e3ae32f654b8954ea4c4635f915","","Mozilla/5.0 (Windows NT 10.0; Win64; x64) AppleWebKit/537.36 (KHTML, like Gecko) Chrome/120.0.0.0 Safari/537.36","WebKit","Chrome","120.0.0.0","Windows","10.0","https://hz8g1ckzuq.cognition.run/","en,en-US","qo6o22n1cayn58e","51","[""Black or African-American""]","No","Male","2136924.3999999985","5017","","","{""product_choice"":""C""}","choice","dct","repulsion_1","2","laptops","null","null","null","null","null","null","1","30","40","25","100","90","100","Processing speed","Memory (RAM)","",""
"","","","","","choice_trial_setup","html-keyboard-response","136","1975835","0.0-5.0-0.26","40","1","2025-04-11 14:12:19","bb671e3ae32f654b8954ea4c4635f915","","Mozilla/5.0 (Windows NT 10.0; Win64; x64) AppleWebKit/537.36 (KHTML, like Gecko) Chrome/120.0.0.0 Safari/537.36","WebKit","Chrome","120.0.0.0","Windows","10.0","https://hz8g1ckzuq.cognition.run/","en,en-US","qo6o22n1cayn58e","51","[""Black or African-American""]","No","Male","2136924.3999999985","null","","<p></p>","null","choice","tdc","repulsion_2","2","laptops","null","null","null","null","null","null","1","","","","","","","","","",""
"","","","","","choice_trial","survey-html-form","137","1979278","0.0-5.0-1.26","40","1","2025-04-11 14:12:19","bb671e3ae32f654b8954ea4c4635f915","","Mozilla/5.0 (Windows NT 10.0; Win64; x64) AppleWebKit/537.36 (KHTML, like Gecko) Chrome/120.0.0.0 Safari/537.36","WebKit","Chrome","120.0.0.0","Windows","10.0","https://hz8g1ckzuq.cognition.run/","en,en-US","qo6o22n1cayn58e","51","[""Black or African-American""]","No","Male","2136924.3999999985","3432","","","{""product_choice"":""A""}","choice","tdc","repulsion_2","2","laptops","null","null","null","null","null","null","1","30","40","20","100","90","100","Processing speed","Memory (RAM)","",""
"","","","","","choice_trial_setup","html-keyboard-response","138","1979589","0.0-5.0-0.27","40","1","2025-04-11 14:12:19","bb671e3ae32f654b8954ea4c4635f915","","Mozilla/5.0 (Windows NT 10.0; Win64; x64) AppleWebKit/537.36 (KHTML, like Gecko) Chrome/120.0.0.0 Safari/537.36","WebKit","Chrome","120.0.0.0","Windows","10.0","https://hz8g1ckzuq.cognition.run/","en,en-US","qo6o22n1cayn58e","51","[""Black or African-American""]","No","Male","2136924.3999999985","null","","<p></p>","null","choice","dct","repulsion_2","2","washing machines","null","null","null","null","null","null","2","","","","","","","","","",""
"","","","","","choice_trial","survey-html-form","139","1984218","0.0-5.0-1.27","40","1","2025-04-11 14:12:19","bb671e3ae32f654b8954ea4c4635f915","","Mozilla/5.0 (Windows NT 10.0; Win64; x64) AppleWebKit/537.36 (KHTML, like Gecko) Chrome/120.0.0.0 Safari/537.36","WebKit","Chrome","120.0.0.0","Windows","10.0","https://hz8g1ckzuq.cognition.run/","en,en-US","qo6o22n1cayn58e","51","[""Black or African-American""]","No","Male","2136924.3999999985","4619","","","{""product_choice"":""C""}","choice","dct","repulsion_2","2","washing machines","null","null","null","null","null","null","2","30","40","20","100","90","100","Average lifespan","Energy savings","",""
"","","","","","choice_trial_setup","html-keyboard-response","140","1984528","0.0-5.0-0.28","40","1","2025-04-11 14:12:19","bb671e3ae32f654b8954ea4c4635f915","","Mozilla/5.0 (Windows NT 10.0; Win64; x64) AppleWebKit/537.36 (KHTML, like Gecko) Chrome/120.0.0.0 Safari/537.36","WebKit","Chrome","120.0.0.0","Windows","10.0","https://hz8g1ckzuq.cognition.run/","en,en-US","qo6o22n1cayn58e","51","[""Black or African-American""]","No","Male","2136924.3999999985","null","","<p></p>","null","choice","tdc","attraction_1","2","laptops","null","null","null","null","null","null","1","","","","","","","","","",""
"","","","","","choice_trial","survey-html-form","141","1989676","0.0-5.0-1.28","40","1","2025-04-11 14:12:19","bb671e3ae32f654b8954ea4c4635f915","","Mozilla/5.0 (Windows NT 10.0; Win64; x64) AppleWebKit/537.36 (KHTML, like Gecko) Chrome/120.0.0.0 Safari/537.36","WebKit","Chrome","120.0.0.0","Windows","10.0","https://hz8g1ckzuq.cognition.run/","en,en-US","qo6o22n1cayn58e","51","[""Black or African-American""]","No","Male","2136924.3999999985","5139","","","{""product_choice"":""A""}","choice","tdc","attraction_1","2","laptops","null","null","null","null","null","null","1","50","60","45","60","50","60","Processing speed","Memory (RAM)","",""
"","","","","","choice_trial_setup","html-keyboard-response","142","1989994","0.0-5.0-0.29","40","1","2025-04-11 14:12:19","bb671e3ae32f654b8954ea4c4635f915","","Mozilla/5.0 (Windows NT 10.0; Win64; x64) AppleWebKit/537.36 (KHTML, like Gecko) Chrome/120.0.0.0 Safari/537.36","WebKit","Chrome","120.0.0.0","Windows","10.0","https://hz8g1ckzuq.cognition.run/","en,en-US","qo6o22n1cayn58e","51","[""Black or African-American""]","No","Male","2136924.3999999985","null","","<p></p>","null","choice","cdt","attraction_2","1","laptops","null","null","null","null","null","null","2","","","","","","","","","",""
"","","","","","choice_trial","survey-html-form","143","1995292","0.0-5.0-1.29","40","1","2025-04-11 14:12:19","bb671e3ae32f654b8954ea4c4635f915","","Mozilla/5.0 (Windows NT 10.0; Win64; x64) AppleWebKit/537.36 (KHTML, like Gecko) Chrome/120.0.0.0 Safari/537.36","WebKit","Chrome","120.0.0.0","Windows","10.0","https://hz8g1ckzuq.cognition.run/","en,en-US","qo6o22n1cayn58e","51","[""Black or African-American""]","No","Male","2136924.3999999985","5287","","","{""product_choice"":""A""}","choice","cdt","attraction_2","1","laptops","null","null","null","null","null","null","2","60","50","60","50","60","40","Processing speed","Memory (RAM)","",""
"","","","","","choice_trial_setup","html-keyboard-response","144","1995599","0.0-5.0-0.30","40","1","2025-04-11 14:12:19","bb671e3ae32f654b8954ea4c4635f915","","Mozilla/5.0 (Windows NT 10.0; Win64; x64) AppleWebKit/537.36 (KHTML, like Gecko) Chrome/120.0.0.0 Safari/537.36","WebKit","Chrome","120.0.0.0","Windows","10.0","https://hz8g1ckzuq.cognition.run/","en,en-US","qo6o22n1cayn58e","51","[""Black or African-American""]","No","Male","2136924.3999999985","null","","<p></p>","null","choice","cdt","attraction_2","2","washing machines","null","null","null","null","null","null","1","","","","","","","","","",""
"","","","","","choice_trial","survey-html-form","145","2000671","0.0-5.0-1.30","40","1","2025-04-11 14:12:19","bb671e3ae32f654b8954ea4c4635f915","","Mozilla/5.0 (Windows NT 10.0; Win64; x64) AppleWebKit/537.36 (KHTML, like Gecko) Chrome/120.0.0.0 Safari/537.36","WebKit","Chrome","120.0.0.0","Windows","10.0","https://hz8g1ckzuq.cognition.run/","en,en-US","qo6o22n1cayn58e","51","[""Black or African-American""]","No","Male","2136924.3999999985","5059","","","{""product_choice"":""C""}","choice","cdt","attraction_2","2","washing machines","null","null","null","null","null","null","1","50","60","40","60","50","60","Average lifespan","Energy savings","",""
"","","","","","choice_trial_setup","html-keyboard-response","146","2000980","0.0-5.0-0.31","40","1","2025-04-11 14:12:19","bb671e3ae32f654b8954ea4c4635f915","","Mozilla/5.0 (Windows NT 10.0; Win64; x64) AppleWebKit/537.36 (KHTML, like Gecko) Chrome/120.0.0.0 Safari/537.36","WebKit","Chrome","120.0.0.0","Windows","10.0","https://hz8g1ckzuq.cognition.run/","en,en-US","qo6o22n1cayn58e","51","[""Black or African-American""]","No","Male","2136924.3999999985","null","","<p></p>","null","choice","wwb","catch","null","laptops","90","75","50","15","20","20","2","","","","","","","","","",""
"","","","","","choice_trial","survey-html-form","147","2005103","0.0-5.0-1.31","40","1","2025-04-11 14:12:19","bb671e3ae32f654b8954ea4c4635f915","","Mozilla/5.0 (Windows NT 10.0; Win64; x64) AppleWebKit/537.36 (KHTML, like Gecko) Chrome/120.0.0.0 Safari/537.36","WebKit","Chrome","120.0.0.0","Windows","10.0","https://hz8g1ckzuq.cognition.run/","en,en-US","qo6o22n1cayn58e","51","[""Black or African-American""]","No","Male","2136924.3999999985","4113","","","{""product_choice"":""C""}","choice","wwb","catch","null","laptops","90","75","50","15","20","20","2","null","null","null","null","null","null","Processing speed","Memory (RAM)","",""
"","","","","","choice_trial_setup","html-keyboard-response","148","2005412","0.0-5.0-0.32","40","1","2025-04-11 14:12:19","bb671e3ae32f654b8954ea4c4635f915","","Mozilla/5.0 (Windows NT 10.0; Win64; x64) AppleWebKit/537.36 (KHTML, like Gecko) Chrome/120.0.0.0 Safari/537.36","WebKit","Chrome","120.0.0.0","Windows","10.0","https://hz8g1ckzuq.cognition.run/","en,en-US","qo6o22n1cayn58e","51","[""Black or African-American""]","No","Male","2136924.3999999985","null","","<p></p>","null","choice","ctd","repulsion_1","1","televisions","null","null","null","null","null","null","2","","","","","","","","","",""
"","","","","","choice_trial","survey-html-form","149","2009386","0.0-5.0-1.32","40","1","2025-04-11 14:12:19","bb671e3ae32f654b8954ea4c4635f915","","Mozilla/5.0 (Windows NT 10.0; Win64; x64) AppleWebKit/537.36 (KHTML, like Gecko) Chrome/120.0.0.0 Safari/537.36","WebKit","Chrome","120.0.0.0","Windows","10.0","https://hz8g1ckzuq.cognition.run/","en,en-US","qo6o22n1cayn58e","51","[""Black or African-American""]","No","Male","2136924.3999999985","3958","","","{""product_choice"":""B""}","choice","ctd","repulsion_1","1","televisions","null","null","null","null","null","null","2","100","90","100","30","40","25","Screen size","Average lifespan","",""
"","","","","","choice_trial_setup","html-keyboard-response","150","2009699","0.0-5.0-0.33","40","1","2025-04-11 14:12:19","bb671e3ae32f654b8954ea4c4635f915","","Mozilla/5.0 (Windows NT 10.0; Win64; x64) AppleWebKit/537.36 (KHTML, like Gecko) Chrome/120.0.0.0 Safari/537.36","WebKit","Chrome","120.0.0.0","Windows","10.0","https://hz8g1ckzuq.cognition.run/","en,en-US","qo6o22n1cayn58e","51","[""Black or African-American""]","No","Male","2136924.3999999985","null","","<p></p>","null","choice","dtc","repulsion_1","2","washing machines","null","null","null","null","null","null","2","","","","","","","","","",""
"","","","","","choice_trial","survey-html-form","151","2014023","0.0-5.0-1.33","40","1","2025-04-11 14:12:19","bb671e3ae32f654b8954ea4c4635f915","","Mozilla/5.0 (Windows NT 10.0; Win64; x64) AppleWebKit/537.36 (KHTML, like Gecko) Chrome/120.0.0.0 Safari/537.36","WebKit","Chrome","120.0.0.0","Windows","10.0","https://hz8g1ckzuq.cognition.run/","en,en-US","qo6o22n1cayn58e","51","[""Black or African-American""]","No","Male","2136924.3999999985","4308","","","{""product_choice"":""B""}","choice","dtc","repulsion_1","2","washing machines","null","null","null","null","null","null","2","30","40","25","100","90","100","Average lifespan","Energy savings","",""
"","","","","","choice_trial_setup","html-keyboard-response","152","2014331","0.0-5.0-0.34","40","1","2025-04-11 14:12:19","bb671e3ae32f654b8954ea4c4635f915","","Mozilla/5.0 (Windows NT 10.0; Win64; x64) AppleWebKit/537.36 (KHTML, like Gecko) Chrome/120.0.0.0 Safari/537.36","WebKit","Chrome","120.0.0.0","Windows","10.0","https://hz8g1ckzuq.cognition.run/","en,en-US","qo6o22n1cayn58e","51","[""Black or African-American""]","No","Male","2136924.3999999985","null","","<p></p>","null","choice","wwb","catch","null","washing machines","65","50","20","25","40","35","2","","","","","","","","","",""
"","","","","","choice_trial","survey-html-form","153","2019987","0.0-5.0-1.34","40","1","2025-04-11 14:12:19","bb671e3ae32f654b8954ea4c4635f915","","Mozilla/5.0 (Windows NT 10.0; Win64; x64) AppleWebKit/537.36 (KHTML, like Gecko) Chrome/120.0.0.0 Safari/537.36","WebKit","Chrome","120.0.0.0","Windows","10.0","https://hz8g1ckzuq.cognition.run/","en,en-US","qo6o22n1cayn58e","51","[""Black or African-American""]","No","Male","2136924.3999999985","5642","","","{""product_choice"":""C""}","choice","wwb","catch","null","washing machines","65","50","20","25","40","35","2","null","null","null","null","null","null","Average lifespan","Energy savings","",""
"","","","","","choice_trial_setup","html-keyboard-response","154","2020295","0.0-5.0-0.35","40","1","2025-04-11 14:12:19","bb671e3ae32f654b8954ea4c4635f915","","Mozilla/5.0 (Windows NT 10.0; Win64; x64) AppleWebKit/537.36 (KHTML, like Gecko) Chrome/120.0.0.0 Safari/537.36","WebKit","Chrome","120.0.0.0","Windows","10.0","https://hz8g1ckzuq.cognition.run/","en,en-US","qo6o22n1cayn58e","51","[""Black or African-American""]","No","Male","2136924.3999999985","null","","<p></p>","null","choice","tcd","attraction_2","2","laptops","null","null","null","null","null","null","2","","","","","","","","","",""
