"success","timeout","failed_images","failed_audio","failed_video","screen_id","trial_type","trial_index","time_elapsed","internal_node_id","run_id","condition","recorded_at","source_code_version","ip","user_agent","device","browser","browser_version","platform","platform_version","referer","accept_language","ppt_id","rt","view_history","stimulus","response","phase","order","effect","t_high","category","d1_best","d2_best","d1_worst1","d2_worst1","d1_worst2","d2_worst2","first_dim","d1_t","d1_c","d1_d","d2_t","d2_c","d2_d","d1_name","d2_name"
"true","false","[]","[]","[]","img preload","preload","0","7202","0.0-0.0","45","1","2025-04-11 14:13:56","bb671e3ae32f654b8954ea4c4635f915","","Mozilla/5.0 (Windows NT 10.0; Win64; x64) AppleWebKit/537.36 (KHTML, like Gecko) Chrome/134.0.0.0 Safari/537.36","WebKit","Chrome","134.0.0.0","Windows","10.0","https://hz8g1ckzuq.cognition.run/","en-US,en;q=0.9","82988536jhqwy7a","","","","","","","","","","","","","","","","","","","","","","","",""
"true","","","","","","fullscreen","1","19110","0.0-1.0","45","1","2025-04-11 14:13:56","bb671e3ae32f654b8954ea4c4635f915","","Mozilla/5.0 (Windows NT 10.0; Win64; x64) AppleWebKit/537.36 (KHTML, like Gecko) Chrome/134.0.0.0 Safari/537.36","WebKit","Chrome","134.0.0.0","Windows","10.0","https://hz8g1ckzuq.cognition.run/","en-US,en;q=0.9","82988536jhqwy7a","10892","","","","","","","","","","","","","","","","","","","","","","",""
"","","","","","","instructions","2","160747","0.0-2.0","45","1","2025-04-11 14:13:56","bb671e3ae32f654b8954ea4c4635f915","","Mozilla/5.0 (Windows NT 10.0; Win64; x64) AppleWebKit/537.36 (KHTML, like Gecko) Chrome/134.0.0.0 Safari/537.36","WebKit","Chrome","134.0.0.0","Windows","10.0","https://hz8g1ckzuq.cognition.run/","en-US,en;q=0.9","82988536jhqwy7a","141632","[{""page_index"":0,""viewing_time"":3338},{""page_index"":1,""viewing_time"":4996},{""page_index"":2,""viewing_time"":3947},{""page_index"":3,""viewing_time"":5136},{""page_index"":4,""viewing_time"":25779},{""page_index"":5,""viewing_time"":25839},{""page_index"":6,""viewing_time"":4896},{""page_index"":7,""viewing_time"":35244},{""page_index"":8,""viewing_time"":24631},{""page_index"":9,""viewing_time"":7826}]","","","","","","","","","","","","","","","","","","","","","",""
"","","","","","rating_trial_setup","html-keyboard-response","3","161051","0.0-3.0-0.0","45","1","2025-04-11 14:13:56","bb671e3ae32f654b8954ea4c4635f915","","Mozilla/5.0 (Windows NT 10.0; Win64; x64) AppleWebKit/537.36 (KHTML, like Gecko) Chrome/134.0.0.0 Safari/537.36","WebKit","Chrome","134.0.0.0","Windows","10.0","https://hz8g1ckzuq.cognition.run/","en-US,en;q=0.9","82988536jhqwy7a","null","","<p></p>","null","rating","dtc","attraction_1","2","televisions","null","null","null","null","null","null","1","","","","","","","",""
"","","","","","rating_trial","survey-html-form","4","233930","0.0-3.0-1.0","45","1","2025-04-11 14:13:56","bb671e3ae32f654b8954ea4c4635f915","","Mozilla/5.0 (Windows NT 10.0; Win64; x64) AppleWebKit/537.36 (KHTML, like Gecko) Chrome/134.0.0.0 Safari/537.36","WebKit","Chrome","134.0.0.0","Windows","10.0","https://hz8g1ckzuq.cognition.run/","en-US,en;q=0.9","82988536jhqwy7a","72869","","","{""price_1"":""70"",""price_2"":""85"",""price_3"":""90""}","rating","dtc","attraction_1","2","televisions","null","null","null","null","null","null","1","50","60","45","60","50","60","Screen size","Average lifespan"
"","","","","","rating_trial_setup","html-keyboard-response","5","234233","0.0-3.0-0.1","45","1","2025-04-11 14:13:56","bb671e3ae32f654b8954ea4c4635f915","","Mozilla/5.0 (Windows NT 10.0; Win64; x64) AppleWebKit/537.36 (KHTML, like Gecko) Chrome/134.0.0.0 Safari/537.36","WebKit","Chrome","134.0.0.0","Windows","10.0","https://hz8g1ckzuq.cognition.run/","en-US,en;q=0.9","82988536jhqwy7a","null","","<p></p>","null","rating","tcd","attraction_2","2","washing machines","null","null","null","null","null","null","1","","","","","","","",""
"","","","","","rating_trial","survey-html-form","6","259638","0.0-3.0-1.1","45","1","2025-04-11 14:13:56","bb671e3ae32f654b8954ea4c4635f915","","Mozilla/5.0 (Windows NT 10.0; Win64; x64) AppleWebKit/537.36 (KHTML, like Gecko) Chrome/134.0.0.0 Safari/537.36","WebKit","Chrome","134.0.0.0","Windows","10.0","https://hz8g1ckzuq.cognition.run/","en-US,en;q=0.9","82988536jhqwy7a","25400","","","{""price_1"":""65"",""price_2"":""72"",""price_3"":""50""}","rating","tcd","attraction_2","2","washing machines","null","null","null","null","null","null","1","50","60","40","60","50","60","Average lifespan","Energy savings"
"","","","","","rating_trial_setup","html-keyboard-response","7","259942","0.0-3.0-0.2","45","1","2025-04-11 14:13:56","bb671e3ae32f654b8954ea4c4635f915","","Mozilla/5.0 (Windows NT 10.0; Win64; x64) AppleWebKit/537.36 (KHTML, like Gecko) Chrome/134.0.0.0 Safari/537.36","WebKit","Chrome","134.0.0.0","Windows","10.0","https://hz8g1ckzuq.cognition.run/","en-US,en;q=0.9","82988536jhqwy7a","null","","<p></p>","null","rating","wwb","catch","null","laptops","50","70","5","35","5","30","1","","","","","","","",""
"","","","","","rating_trial","survey-html-form","8","357094","0.0-3.0-1.2","45","1","2025-04-11 14:13:56","bb671e3ae32f654b8954ea4c4635f915","","Mozilla/5.0 (Windows NT 10.0; Win64; x64) AppleWebKit/537.36 (KHTML, like Gecko) Chrome/134.0.0.0 Safari/537.36","WebKit","Chrome","134.0.0.0","Windows","10.0","https://hz8g1ckzuq.cognition.run/","en-US,en;q=0.9","82988536jhqwy7a","97144","","","{""price_1"":""75"",""price_2"":""80"",""price_3"":""90""}","rating","wwb","catch","null","laptops","50","70","5","35","5","30","1","null","null","null","null","null","null","Processing speed","Memory (RAM)"
"","","","","","rating_trial_setup","html-keyboard-response","9","357398","0.0-3.0-0.3","45","1","2025-04-11 14:13:56","bb671e3ae32f654b8954ea4c4635f915","","Mozilla/5.0 (Windows NT 10.0; Win64; x64) AppleWebKit/537.36 (KHTML, like Gecko) Chrome/134.0.0.0 Safari/537.36","WebKit","Chrome","134.0.0.0","Windows","10.0","https://hz8g1ckzuq.cognition.run/","en-US,en;q=0.9","82988536jhqwy7a","null","","<p></p>","null","rating","wwb","catch","null","washing machines","60","90","35","50","30","25","1","","","","","","","",""
"","","","","","rating_trial","survey-html-form","10","387093","0.0-3.0-1.3","45","1","2025-04-11 14:13:56","bb671e3ae32f654b8954ea4c4635f915","","Mozilla/5.0 (Windows NT 10.0; Win64; x64) AppleWebKit/537.36 (KHTML, like Gecko) Chrome/134.0.0.0 Safari/537.36","WebKit","Chrome","134.0.0.0","Windows","10.0","https://hz8g1ckzuq.cognition.run/","en-US,en;q=0.9","82988536jhqwy7a","29688","","","{""price_1"":""65"",""price_2"":""60"",""price_3"":""85""}","rating","wwb","catch","null","washing machines","60","90","35","50","30","25","1","null","null","null","null","null","null","Average lifespan","Energy savings"
"","","","","","rating_trial_setup","html-keyboard-response","11","387398","0.0-3.0-0.4","45","1","2025-04-11 14:13:56","bb671e3ae32f654b8954ea4c4635f915","","Mozilla/5.0 (Windows NT 10.0; Win64; x64) AppleWebKit/537.36 (KHTML, like Gecko) Chrome/134.0.0.0 Safari/537.36","WebKit","Chrome","134.0.0.0","Windows","10.0","https://hz8g1ckzuq.cognition.run/","en-US,en;q=0.9","82988536jhqwy7a","null","","<p></p>","null","rating","wbw","catch","null","laptops","65","85","10","25","10","30","1","","","","","","","",""
"","","","","","rating_trial","survey-html-form","12","410045","0.0-3.0-1.4","45","1","2025-04-11 14:13:56","bb671e3ae32f654b8954ea4c4635f915","","Mozilla/5.0 (Windows NT 10.0; Win64; x64) AppleWebKit/537.36 (KHTML, like Gecko) Chrome/134.0.0.0 Safari/537.36","WebKit","Chrome","134.0.0.0","Windows","10.0","https://hz8g1ckzuq.cognition.run/","en-US,en;q=0.9","82988536jhqwy7a","22642","","","{""price_1"":""50"",""price_2"":""70"",""price_3"":""55""}","rating","wbw","catch","null","laptops","65","85","10","25","10","30","1","null","null","null","null","null","null","Processing speed","Memory (RAM)"
"","","","","","rating_trial_setup","html-keyboard-response","13","410352","0.0-3.0-0.5","45","1","2025-04-11 14:13:56","bb671e3ae32f654b8954ea4c4635f915","","Mozilla/5.0 (Windows NT 10.0; Win64; x64) AppleWebKit/537.36 (KHTML, like Gecko) Chrome/134.0.0.0 Safari/537.36","WebKit","Chrome","134.0.0.0","Windows","10.0","https://hz8g1ckzuq.cognition.run/","en-US,en;q=0.9","82988536jhqwy7a","null","","<p></p>","null","rating","wbw","catch","null","microwave ovens","80","60","10","20","20","20","2","","","","","","","",""
"","","","","","rating_trial","survey-html-form","14","431626","0.0-3.0-1.5","45","1","2025-04-11 14:13:56","bb671e3ae32f654b8954ea4c4635f915","","Mozilla/5.0 (Windows NT 10.0; Win64; x64) AppleWebKit/537.36 (KHTML, like Gecko) Chrome/134.0.0.0 Safari/537.36","WebKit","Chrome","134.0.0.0","Windows","10.0","https://hz8g1ckzuq.cognition.run/","en-US,en;q=0.9","82988536jhqwy7a","21268","","","{""price_1"":""60"",""price_2"":""80"",""price_3"":""55""}","rating","wbw","catch","null","microwave ovens","80","60","10","20","20","20","2","null","null","null","null","null","null","Warranty","Cooking power"
"","","","","","rating_trial_setup","html-keyboard-response","15","431932","0.0-3.0-0.6","45","1","2025-04-11 14:13:56","bb671e3ae32f654b8954ea4c4635f915","","Mozilla/5.0 (Windows NT 10.0; Win64; x64) AppleWebKit/537.36 (KHTML, like Gecko) Chrome/134.0.0.0 Safari/537.36","WebKit","Chrome","134.0.0.0","Windows","10.0","https://hz8g1ckzuq.cognition.run/","en-US,en;q=0.9","82988536jhqwy7a","null","","<p></p>","null","rating","tcd","attraction_2","1","washing machines","null","null","null","null","null","null","1","","","","","","","",""
"","","","","","rating_trial","survey-html-form","16","455856","0.0-3.0-1.6","45","1","2025-04-11 14:13:56","bb671e3ae32f654b8954ea4c4635f915","","Mozilla/5.0 (Windows NT 10.0; Win64; x64) AppleWebKit/537.36 (KHTML, like Gecko) Chrome/134.0.0.0 Safari/537.36","WebKit","Chrome","134.0.0.0","Windows","10.0","https://hz8g1ckzuq.cognition.run/","en-US,en;q=0.9","82988536jhqwy7a","23917","","","{""price_1"":""80"",""price_2"":""65"",""price_3"":""75""}","rating","tcd","attraction_2","1","washing machines","null","null","null","null","null","null","1","60","50","60","50","60","40","Average lifespan","Energy savings"
"","","","","","rating_trial_setup","html-keyboard-response","17","456159","0.0-3.0-0.7","45","1","2025-04-11 14:13:56","bb671e3ae32f654b8954ea4c4635f915","","Mozilla/5.0 (Windows NT 10.0; Win64; x64) AppleWebKit/537.36 (KHTML, like Gecko) Chrome/134.0.0.0 Safari/537.36","WebKit","Chrome","134.0.0.0","Windows","10.0","https://hz8g1ckzuq.cognition.run/","en-US,en;q=0.9","82988536jhqwy7a","null","","<p></p>","null","rating","ctd","repulsion_1","1","microwave ovens","null","null","null","null","null","null","1","","","","","","","",""
"","","","","","rating_trial","survey-html-form","18","511163","0.0-3.0-1.7","45","1","2025-04-11 14:13:56","bb671e3ae32f654b8954ea4c4635f915","","Mozilla/5.0 (Windows NT 10.0; Win64; x64) AppleWebKit/537.36 (KHTML, like Gecko) Chrome/134.0.0.0 Safari/537.36","WebKit","Chrome","134.0.0.0","Windows","10.0","https://hz8g1ckzuq.cognition.run/","en-US,en;q=0.9","82988536jhqwy7a","54997","","","{""price_1"":""60"",""price_2"":""90"",""price_3"":""80""}","rating","ctd","repulsion_1","1","microwave ovens","null","null","null","null","null","null","1","100","90","100","30","40","25","Warranty","Cooking power"
"","","","","","rating_trial_setup","html-keyboard-response","19","511468","0.0-3.0-0.8","45","1","2025-04-11 14:13:56","bb671e3ae32f654b8954ea4c4635f915","","Mozilla/5.0 (Windows NT 10.0; Win64; x64) AppleWebKit/537.36 (KHTML, like Gecko) Chrome/134.0.0.0 Safari/537.36","WebKit","Chrome","134.0.0.0","Windows","10.0","https://hz8g1ckzuq.cognition.run/","en-US,en;q=0.9","82988536jhqwy7a","null","","<p></p>","null","rating","cdt","attraction_1","1","laptops","null","null","null","null","null","null","1","","","","","","","",""
"","","","","","rating_trial","survey-html-form","20","564498","0.0-3.0-1.8","45","1","2025-04-11 14:13:56","bb671e3ae32f654b8954ea4c4635f915","","Mozilla/5.0 (Windows NT 10.0; Win64; x64) AppleWebKit/537.36 (KHTML, like Gecko) Chrome/134.0.0.0 Safari/537.36","WebKit","Chrome","134.0.0.0","Windows","10.0","https://hz8g1ckzuq.cognition.run/","en-US,en;q=0.9","82988536jhqwy7a","53021","","","{""price_1"":""90"",""price_2"":""80"",""price_3"":""85""}","rating","cdt","attraction_1","1","laptops","null","null","null","null","null","null","1","60","50","60","50","60","45","Processing speed","Memory (RAM)"
"","","","","","rating_trial_setup","html-keyboard-response","21","564805","0.0-3.0-0.9","45","1","2025-04-11 14:13:56","bb671e3ae32f654b8954ea4c4635f915","","Mozilla/5.0 (Windows NT 10.0; Win64; x64) AppleWebKit/537.36 (KHTML, like Gecko) Chrome/134.0.0.0 Safari/537.36","WebKit","Chrome","134.0.0.0","Windows","10.0","https://hz8g1ckzuq.cognition.run/","en-US,en;q=0.9","82988536jhqwy7a","null","","<p></p>","null","rating","dct","repulsion_2","2","televisions","null","null","null","null","null","null","2","","","","","","","",""
"","","","","","rating_trial","survey-html-form","22","591697","0.0-3.0-1.9","45","1","2025-04-11 14:13:56","bb671e3ae32f654b8954ea4c4635f915","","Mozilla/5.0 (Windows NT 10.0; Win64; x64) AppleWebKit/537.36 (KHTML, like Gecko) Chrome/134.0.0.0 Safari/537.36","WebKit","Chrome","134.0.0.0","Windows","10.0","https://hz8g1ckzuq.cognition.run/","en-US,en;q=0.9","82988536jhqwy7a","26886","","","{""price_1"":""40"",""price_2"":""60"",""price_3"":""50""}","rating","dct","repulsion_2","2","televisions","null","null","null","null","null","null","2","30","40","20","100","90","100","Screen size","Average lifespan"
"","","","","","rating_trial_setup","html-keyboard-response","23","592000","0.0-3.0-0.10","45","1","2025-04-11 14:13:56","bb671e3ae32f654b8954ea4c4635f915","","Mozilla/5.0 (Windows NT 10.0; Win64; x64) AppleWebKit/537.36 (KHTML, like Gecko) Chrome/134.0.0.0 Safari/537.36","WebKit","Chrome","134.0.0.0","Windows","10.0","https://hz8g1ckzuq.cognition.run/","en-US,en;q=0.9","82988536jhqwy7a","null","","<p></p>","null","rating","ctd","repulsion_2","1","laptops","null","null","null","null","null","null","1","","","","","","","",""
"","","","","","rating_trial","survey-html-form","24","611538","0.0-3.0-1.10","45","1","2025-04-11 14:13:56","bb671e3ae32f654b8954ea4c4635f915","","Mozilla/5.0 (Windows NT 10.0; Win64; x64) AppleWebKit/537.36 (KHTML, like Gecko) Chrome/134.0.0.0 Safari/537.36","WebKit","Chrome","134.0.0.0","Windows","10.0","https://hz8g1ckzuq.cognition.run/","en-US,en;q=0.9","82988536jhqwy7a","19529","","","{""price_1"":""60"",""price_2"":""50"",""price_3"":""30""}","rating","ctd","repulsion_2","1","laptops","null","null","null","null","null","null","1","100","90","100","30","40","20","Processing speed","Memory (RAM)"
"","","","","","rating_trial_setup","html-keyboard-response","25","611846","0.0-3.0-0.11","45","1","2025-04-11 14:13:56","bb671e3ae32f654b8954ea4c4635f915","","Mozilla/5.0 (Windows NT 10.0; Win64; x64) AppleWebKit/537.36 (KHTML, like Gecko) Chrome/134.0.0.0 Safari/537.36","WebKit","Chrome","134.0.0.0","Windows","10.0","https://hz8g1ckzuq.cognition.run/","en-US,en;q=0.9","82988536jhqwy7a","null","","<p></p>","null","rating","dtc","repulsion_1","1","washing machines","null","null","null","null","null","null","1","","","","","","","",""
"","","","","","rating_trial","survey-html-form","26","675205","0.0-3.0-1.11","45","1","2025-04-11 14:13:56","bb671e3ae32f654b8954ea4c4635f915","","Mozilla/5.0 (Windows NT 10.0; Win64; x64) AppleWebKit/537.36 (KHTML, like Gecko) Chrome/134.0.0.0 Safari/537.36","WebKit","Chrome","134.0.0.0","Windows","10.0","https://hz8g1ckzuq.cognition.run/","en-US,en;q=0.9","82988536jhqwy7a","63352","","","{""price_1"":""80"",""price_2"":""65"",""price_3"":""75""}","rating","dtc","repulsion_1","1","washing machines","null","null","null","null","null","null","1","100","90","100","30","40","25","Average lifespan","Energy savings"
"","","","","","rating_trial_setup","html-keyboard-response","27","675508","0.0-3.0-0.12","45","1","2025-04-11 14:13:56","bb671e3ae32f654b8954ea4c4635f915","","Mozilla/5.0 (Windows NT 10.0; Win64; x64) AppleWebKit/537.36 (KHTML, like Gecko) Chrome/134.0.0.0 Safari/537.36","WebKit","Chrome","134.0.0.0","Windows","10.0","https://hz8g1ckzuq.cognition.run/","en-US,en;q=0.9","82988536jhqwy7a","null","","<p></p>","null","rating","ctd","attraction_1","2","washing machines","null","null","null","null","null","null","1","","","","","","","",""
"","","","","","rating_trial","survey-html-form","28","706858","0.0-3.0-1.12","45","1","2025-04-11 14:13:56","bb671e3ae32f654b8954ea4c4635f915","","Mozilla/5.0 (Windows NT 10.0; Win64; x64) AppleWebKit/537.36 (KHTML, like Gecko) Chrome/134.0.0.0 Safari/537.36","WebKit","Chrome","134.0.0.0","Windows","10.0","https://hz8g1ckzuq.cognition.run/","en-US,en;q=0.9","82988536jhqwy7a","31341","","","{""price_1"":""75"",""price_2"":""85"",""price_3"":""90""}","rating","ctd","attraction_1","2","washing machines","null","null","null","null","null","null","1","50","60","45","60","50","60","Average lifespan","Energy savings"
"","","","","","rating_trial_setup","html-keyboard-response","29","707161","0.0-3.0-0.13","45","1","2025-04-11 14:13:56","bb671e3ae32f654b8954ea4c4635f915","","Mozilla/5.0 (Windows NT 10.0; Win64; x64) AppleWebKit/537.36 (KHTML, like Gecko) Chrome/134.0.0.0 Safari/537.36","WebKit","Chrome","134.0.0.0","Windows","10.0","https://hz8g1ckzuq.cognition.run/","en-US,en;q=0.9","82988536jhqwy7a","null","","<p></p>","null","rating","tdc","attraction_2","1","laptops","null","null","null","null","null","null","2","","","","","","","",""
"","","","","","rating_trial","survey-html-form","30","751508","0.0-3.0-1.13","45","1","2025-04-11 14:13:56","bb671e3ae32f654b8954ea4c4635f915","","Mozilla/5.0 (Windows NT 10.0; Win64; x64) AppleWebKit/537.36 (KHTML, like Gecko) Chrome/134.0.0.0 Safari/537.36","WebKit","Chrome","134.0.0.0","Windows","10.0","https://hz8g1ckzuq.cognition.run/","en-US,en;q=0.9","82988536jhqwy7a","44339","","","{""price_1"":""85"",""price_2"":""75"",""price_3"":""100""}","rating","tdc","attraction_2","1","laptops","null","null","null","null","null","null","2","60","50","60","50","60","40","Processing speed","Memory (RAM)"
"","","","","","rating_trial_setup","html-keyboard-response","31","751815","0.0-3.0-0.14","45","1","2025-04-11 14:13:56","bb671e3ae32f654b8954ea4c4635f915","","Mozilla/5.0 (Windows NT 10.0; Win64; x64) AppleWebKit/537.36 (KHTML, like Gecko) Chrome/134.0.0.0 Safari/537.36","WebKit","Chrome","134.0.0.0","Windows","10.0","https://hz8g1ckzuq.cognition.run/","en-US,en;q=0.9","82988536jhqwy7a","null","","<p></p>","null","rating","tdc","attraction_1","1","washing machines","null","null","null","null","null","null","2","","","","","","","",""
"","","","","","rating_trial","survey-html-form","32","779562","0.0-3.0-1.14","45","1","2025-04-11 14:13:56","bb671e3ae32f654b8954ea4c4635f915","","Mozilla/5.0 (Windows NT 10.0; Win64; x64) AppleWebKit/537.36 (KHTML, like Gecko) Chrome/134.0.0.0 Safari/537.36","WebKit","Chrome","134.0.0.0","Windows","10.0","https://hz8g1ckzuq.cognition.run/","en-US,en;q=0.9","82988536jhqwy7a","27741","","","{""price_1"":""75"",""price_2"":""80"",""price_3"":""90""}","rating","tdc","attraction_1","1","washing machines","null","null","null","null","null","null","2","60","50","60","50","60","45","Average lifespan","Energy savings"
"","","","","","rating_trial_setup","html-keyboard-response","33","779867","0.0-3.0-0.15","45","1","2025-04-11 14:13:56","bb671e3ae32f654b8954ea4c4635f915","","Mozilla/5.0 (Windows NT 10.0; Win64; x64) AppleWebKit/537.36 (KHTML, like Gecko) Chrome/134.0.0.0 Safari/537.36","WebKit","Chrome","134.0.0.0","Windows","10.0","https://hz8g1ckzuq.cognition.run/","en-US,en;q=0.9","82988536jhqwy7a","null","","<p></p>","null","rating","bww","catch","null","microwave ovens","70","80","30","15","25","35","2","","","","","","","",""
"","","","","","rating_trial","survey-html-form","34","803873","0.0-3.0-1.15","45","1","2025-04-11 14:13:56","bb671e3ae32f654b8954ea4c4635f915","","Mozilla/5.0 (Windows NT 10.0; Win64; x64) AppleWebKit/537.36 (KHTML, like Gecko) Chrome/134.0.0.0 Safari/537.36","WebKit","Chrome","134.0.0.0","Windows","10.0","https://hz8g1ckzuq.cognition.run/","en-US,en;q=0.9","82988536jhqwy7a","23997","","","{""price_1"":""65"",""price_2"":""50"",""price_3"":""35""}","rating","bww","catch","null","microwave ovens","70","80","30","15","25","35","2","null","null","null","null","null","null","Warranty","Cooking power"
"","","","","","rating_trial_setup","html-keyboard-response","35","804177","0.0-3.0-0.16","45","1","2025-04-11 14:13:56","bb671e3ae32f654b8954ea4c4635f915","","Mozilla/5.0 (Windows NT 10.0; Win64; x64) AppleWebKit/537.36 (KHTML, like Gecko) Chrome/134.0.0.0 Safari/537.36","WebKit","Chrome","134.0.0.0","Windows","10.0","https://hz8g1ckzuq.cognition.run/","en-US,en;q=0.9","82988536jhqwy7a","null","","<p></p>","null","rating","tdc","attraction_2","1","televisions","null","null","null","null","null","null","1","","","","","","","",""
"","","","","","rating_trial","survey-html-form","36","820211","0.0-3.0-1.16","45","1","2025-04-11 14:13:56","bb671e3ae32f654b8954ea4c4635f915","","Mozilla/5.0 (Windows NT 10.0; Win64; x64) AppleWebKit/537.36 (KHTML, like Gecko) Chrome/134.0.0.0 Safari/537.36","WebKit","Chrome","134.0.0.0","Windows","10.0","https://hz8g1ckzuq.cognition.run/","en-US,en;q=0.9","82988536jhqwy7a","16027","","","{""price_1"":""45"",""price_2"":""35"",""price_3"":""55""}","rating","tdc","attraction_2","1","televisions","null","null","null","null","null","null","1","60","50","60","50","60","40","Screen size","Average lifespan"
"","","","","","rating_trial_setup","html-keyboard-response","37","820515","0.0-3.0-0.17","45","1","2025-04-11 14:13:56","bb671e3ae32f654b8954ea4c4635f915","","Mozilla/5.0 (Windows NT 10.0; Win64; x64) AppleWebKit/537.36 (KHTML, like Gecko) Chrome/134.0.0.0 Safari/537.36","WebKit","Chrome","134.0.0.0","Windows","10.0","https://hz8g1ckzuq.cognition.run/","en-US,en;q=0.9","82988536jhqwy7a","null","","<p></p>","null","rating","dtc","attraction_1","2","microwave ovens","null","null","null","null","null","null","1","","","","","","","",""
"","","","","","rating_trial","survey-html-form","38","860253","0.0-3.0-1.17","45","1","2025-04-11 14:13:56","bb671e3ae32f654b8954ea4c4635f915","","Mozilla/5.0 (Windows NT 10.0; Win64; x64) AppleWebKit/537.36 (KHTML, like Gecko) Chrome/134.0.0.0 Safari/537.36","WebKit","Chrome","134.0.0.0","Windows","10.0","https://hz8g1ckzuq.cognition.run/","en-US,en;q=0.9","82988536jhqwy7a","39731","","","{""price_1"":""85"",""price_2"":""75"",""price_3"":""65""}","rating","dtc","attraction_1","2","microwave ovens","null","null","null","null","null","null","1","50","60","45","60","50","60","Warranty","Cooking power"
"","","","","","rating_trial_setup","html-keyboard-response","39","860557","0.0-3.0-0.18","45","1","2025-04-11 14:13:56","bb671e3ae32f654b8954ea4c4635f915","","Mozilla/5.0 (Windows NT 10.0; Win64; x64) AppleWebKit/537.36 (KHTML, like Gecko) Chrome/134.0.0.0 Safari/537.36","WebKit","Chrome","134.0.0.0","Windows","10.0","https://hz8g1ckzuq.cognition.run/","en-US,en;q=0.9","82988536jhqwy7a","null","","<p></p>","null","rating","dtc","attraction_2","2","laptops","null","null","null","null","null","null","2","","","","","","","",""
"","","","","","rating_trial","survey-html-form","40","879312","0.0-3.0-1.18","45","1","2025-04-11 14:13:56","bb671e3ae32f654b8954ea4c4635f915","","Mozilla/5.0 (Windows NT 10.0; Win64; x64) AppleWebKit/537.36 (KHTML, like Gecko) Chrome/134.0.0.0 Safari/537.36","WebKit","Chrome","134.0.0.0","Windows","10.0","https://hz8g1ckzuq.cognition.run/","en-US,en;q=0.9","82988536jhqwy7a","18746","","","{""price_1"":""100"",""price_2"":""95"",""price_3"":""80""}","rating","dtc","attraction_2","2","laptops","null","null","null","null","null","null","2","50","60","40","60","50","60","Processing speed","Memory (RAM)"
"","","","","","rating_trial_setup","html-keyboard-response","41","879619","0.0-3.0-0.19","45","1","2025-04-11 14:13:56","bb671e3ae32f654b8954ea4c4635f915","","Mozilla/5.0 (Windows NT 10.0; Win64; x64) AppleWebKit/537.36 (KHTML, like Gecko) Chrome/134.0.0.0 Safari/537.36","WebKit","Chrome","134.0.0.0","Windows","10.0","https://hz8g1ckzuq.cognition.run/","en-US,en;q=0.9","82988536jhqwy7a","null","","<p></p>","null","rating","tdc","attraction_2","1","microwave ovens","null","null","null","null","null","null","1","","","","","","","",""
"","","","","","rating_trial","survey-html-form","42","927402","0.0-3.0-1.19","45","1","2025-04-11 14:13:56","bb671e3ae32f654b8954ea4c4635f915","","Mozilla/5.0 (Windows NT 10.0; Win64; x64) AppleWebKit/537.36 (KHTML, like Gecko) Chrome/134.0.0.0 Safari/537.36","WebKit","Chrome","134.0.0.0","Windows","10.0","https://hz8g1ckzuq.cognition.run/","en-US,en;q=0.9","82988536jhqwy7a","47771","","","{""price_1"":""75"",""price_2"":""65"",""price_3"":""99""}","rating","tdc","attraction_2","1","microwave ovens","null","null","null","null","null","null","1","60","50","60","50","60","40","Warranty","Cooking power"
"","","","","","rating_trial_setup","html-keyboard-response","43","927710","0.0-3.0-0.20","45","1","2025-04-11 14:13:56","bb671e3ae32f654b8954ea4c4635f915","","Mozilla/5.0 (Windows NT 10.0; Win64; x64) AppleWebKit/537.36 (KHTML, like Gecko) Chrome/134.0.0.0 Safari/537.36","WebKit","Chrome","134.0.0.0","Windows","10.0","https://hz8g1ckzuq.cognition.run/","en-US,en;q=0.9","82988536jhqwy7a","null","","<p></p>","null","rating","ctd","repulsion_2","2","laptops","null","null","null","null","null","null","2","","","","","","","",""
"","","","","","rating_trial","survey-html-form","44","959472","0.0-3.0-1.20","45","1","2025-04-11 14:13:56","bb671e3ae32f654b8954ea4c4635f915","","Mozilla/5.0 (Windows NT 10.0; Win64; x64) AppleWebKit/537.36 (KHTML, like Gecko) Chrome/134.0.0.0 Safari/537.36","WebKit","Chrome","134.0.0.0","Windows","10.0","https://hz8g1ckzuq.cognition.run/","en-US,en;q=0.9","82988536jhqwy7a","31752","","","{""price_1"":""85"",""price_2"":""99"",""price_3"":""85""}","rating","ctd","repulsion_2","2","laptops","null","null","null","null","null","null","2","30","40","20","100","90","100","Processing speed","Memory (RAM)"
"","","","","","rating_trial_setup","html-keyboard-response","45","959781","0.0-3.0-0.21","45","1","2025-04-11 14:13:56","bb671e3ae32f654b8954ea4c4635f915","","Mozilla/5.0 (Windows NT 10.0; Win64; x64) AppleWebKit/537.36 (KHTML, like Gecko) Chrome/134.0.0.0 Safari/537.36","WebKit","Chrome","134.0.0.0","Windows","10.0","https://hz8g1ckzuq.cognition.run/","en-US,en;q=0.9","82988536jhqwy7a","null","","<p></p>","null","rating","ctd","repulsion_2","1","washing machines","null","null","null","null","null","null","2","","","","","","","",""
"","","","","","rating_trial","survey-html-form","46","973035","0.0-3.0-1.21","45","1","2025-04-11 14:13:56","bb671e3ae32f654b8954ea4c4635f915","","Mozilla/5.0 (Windows NT 10.0; Win64; x64) AppleWebKit/537.36 (KHTML, like Gecko) Chrome/134.0.0.0 Safari/537.36","WebKit","Chrome","134.0.0.0","Windows","10.0","https://hz8g1ckzuq.cognition.run/","en-US,en;q=0.9","82988536jhqwy7a","13245","","","{""price_1"":""89"",""price_2"":""75"",""price_3"":""65""}","rating","ctd","repulsion_2","1","washing machines","null","null","null","null","null","null","2","100","90","100","30","40","20","Average lifespan","Energy savings"
"","","","","","rating_trial_setup","html-keyboard-response","47","973340","0.0-3.0-0.22","45","1","2025-04-11 14:13:56","bb671e3ae32f654b8954ea4c4635f915","","Mozilla/5.0 (Windows NT 10.0; Win64; x64) AppleWebKit/537.36 (KHTML, like Gecko) Chrome/134.0.0.0 Safari/537.36","WebKit","Chrome","134.0.0.0","Windows","10.0","https://hz8g1ckzuq.cognition.run/","en-US,en;q=0.9","82988536jhqwy7a","null","","<p></p>","null","rating","tcd","repulsion_2","2","microwave ovens","null","null","null","null","null","null","1","","","","","","","",""
"","","","","","rating_trial","survey-html-form","48","995947","0.0-3.0-1.22","45","1","2025-04-11 14:13:56","bb671e3ae32f654b8954ea4c4635f915","","Mozilla/5.0 (Windows NT 10.0; Win64; x64) AppleWebKit/537.36 (KHTML, like Gecko) Chrome/134.0.0.0 Safari/537.36","WebKit","Chrome","134.0.0.0","Windows","10.0","https://hz8g1ckzuq.cognition.run/","en-US,en;q=0.9","82988536jhqwy7a","22598","","","{""price_1"":""79"",""price_2"":""65"",""price_3"":""75""}","rating","tcd","repulsion_2","2","microwave ovens","null","null","null","null","null","null","1","30","40","20","100","90","100","Warranty","Cooking power"
"","","","","","rating_trial_setup","html-keyboard-response","49","996251","0.0-3.0-0.23","45","1","2025-04-11 14:13:56","bb671e3ae32f654b8954ea4c4635f915","","Mozilla/5.0 (Windows NT 10.0; Win64; x64) AppleWebKit/537.36 (KHTML, like Gecko) Chrome/134.0.0.0 Safari/537.36","WebKit","Chrome","134.0.0.0","Windows","10.0","https://hz8g1ckzuq.cognition.run/","en-US,en;q=0.9","82988536jhqwy7a","null","","<p></p>","null","rating","tcd","attraction_2","2","televisions","null","null","null","null","null","null","2","","","","","","","",""
"","","","","","rating_trial","survey-html-form","50","1038757","0.0-3.0-1.23","45","1","2025-04-11 14:13:56","bb671e3ae32f654b8954ea4c4635f915","","Mozilla/5.0 (Windows NT 10.0; Win64; x64) AppleWebKit/537.36 (KHTML, like Gecko) Chrome/134.0.0.0 Safari/537.36","WebKit","Chrome","134.0.0.0","Windows","10.0","https://hz8g1ckzuq.cognition.run/","en-US,en;q=0.9","82988536jhqwy7a","42498","","","{""price_1"":""89"",""price_2"":""75"",""price_3"":""65""}","rating","tcd","attraction_2","2","televisions","null","null","null","null","null","null","2","50","60","40","60","50","60","Screen size","Average lifespan"
"","","","","","rating_trial_setup","html-keyboard-response","51","1039061","0.0-3.0-0.24","45","1","2025-04-11 14:13:56","bb671e3ae32f654b8954ea4c4635f915","","Mozilla/5.0 (Windows NT 10.0; Win64; x64) AppleWebKit/537.36 (KHTML, like Gecko) Chrome/134.0.0.0 Safari/537.36","WebKit","Chrome","134.0.0.0","Windows","10.0","https://hz8g1ckzuq.cognition.run/","en-US,en;q=0.9","82988536jhqwy7a","null","","<p></p>","null","rating","wbw","catch","null","washing machines","65","50","15","40","5","40","1","","","","","","","",""
"","","","","","rating_trial","survey-html-form","52","1127983","0.0-3.0-1.24","45","1","2025-04-11 14:13:56","bb671e3ae32f654b8954ea4c4635f915","","Mozilla/5.0 (Windows NT 10.0; Win64; x64) AppleWebKit/537.36 (KHTML, like Gecko) Chrome/134.0.0.0 Safari/537.36","WebKit","Chrome","134.0.0.0","Windows","10.0","https://hz8g1ckzuq.cognition.run/","en-US,en;q=0.9","82988536jhqwy7a","88912","","","{""price_1"":""70"",""price_2"":""99"",""price_3"":""55""}","rating","wbw","catch","null","washing machines","65","50","15","40","5","40","1","null","null","null","null","null","null","Average lifespan","Energy savings"
"","","","","","rating_trial_setup","html-keyboard-response","53","1128287","0.0-3.0-0.25","45","1","2025-04-11 14:13:56","bb671e3ae32f654b8954ea4c4635f915","","Mozilla/5.0 (Windows NT 10.0; Win64; x64) AppleWebKit/537.36 (KHTML, like Gecko) Chrome/134.0.0.0 Safari/537.36","WebKit","Chrome","134.0.0.0","Windows","10.0","https://hz8g1ckzuq.cognition.run/","en-US,en;q=0.9","82988536jhqwy7a","null","","<p></p>","null","rating","ctd","attraction_1","2","laptops","null","null","null","null","null","null","1","","","","","","","",""
"","","","","","rating_trial","survey-html-form","54","1161072","0.0-3.0-1.25","45","1","2025-04-11 14:13:56","bb671e3ae32f654b8954ea4c4635f915","","Mozilla/5.0 (Windows NT 10.0; Win64; x64) AppleWebKit/537.36 (KHTML, like Gecko) Chrome/134.0.0.0 Safari/537.36","WebKit","Chrome","134.0.0.0","Windows","10.0","https://hz8g1ckzuq.cognition.run/","en-US,en;q=0.9","82988536jhqwy7a","32776","","","{""price_1"":""60"",""price_2"":""90"",""price_3"":""100""}","rating","ctd","attraction_1","2","laptops","null","null","null","null","null","null","1","50","60","45","60","50","60","Processing speed","Memory (RAM)"
"","","","","","rating_trial_setup","html-keyboard-response","55","1161377","0.0-3.0-0.26","45","1","2025-04-11 14:13:56","bb671e3ae32f654b8954ea4c4635f915","","Mozilla/5.0 (Windows NT 10.0; Win64; x64) AppleWebKit/537.36 (KHTML, like Gecko) Chrome/134.0.0.0 Safari/537.36","WebKit","Chrome","134.0.0.0","Windows","10.0","https://hz8g1ckzuq.cognition.run/","en-US,en;q=0.9","82988536jhqwy7a","null","","<p></p>","null","rating","tdc","attraction_1","1","microwave ovens","null","null","null","null","null","null","2","","","","","","","",""
"","","","","","rating_trial","survey-html-form","56","1199170","0.0-3.0-1.26","45","1","2025-04-11 14:13:56","bb671e3ae32f654b8954ea4c4635f915","","Mozilla/5.0 (Windows NT 10.0; Win64; x64) AppleWebKit/537.36 (KHTML, like Gecko) Chrome/134.0.0.0 Safari/537.36","WebKit","Chrome","134.0.0.0","Windows","10.0","https://hz8g1ckzuq.cognition.run/","en-US,en;q=0.9","82988536jhqwy7a","37783","","","{""price_1"":""40"",""price_2"":""55"",""price_3"":""65""}","rating","tdc","attraction_1","1","microwave ovens","null","null","null","null","null","null","2","60","50","60","50","60","45","Warranty","Cooking power"
"","","","","","rating_trial_setup","html-keyboard-response","57","1199480","0.0-3.0-0.27","45","1","2025-04-11 14:13:56","bb671e3ae32f654b8954ea4c4635f915","","Mozilla/5.0 (Windows NT 10.0; Win64; x64) AppleWebKit/537.36 (KHTML, like Gecko) Chrome/134.0.0.0 Safari/537.36","WebKit","Chrome","134.0.0.0","Windows","10.0","https://hz8g1ckzuq.cognition.run/","en-US,en;q=0.9","82988536jhqwy7a","null","","<p></p>","null","rating","dtc","repulsion_1","2","televisions","null","null","null","null","null","null","1","","","","","","","",""
"","","","","","rating_trial","survey-html-form","58","1223258","0.0-3.0-1.27","45","1","2025-04-11 14:13:56","bb671e3ae32f654b8954ea4c4635f915","","Mozilla/5.0 (Windows NT 10.0; Win64; x64) AppleWebKit/537.36 (KHTML, like Gecko) Chrome/134.0.0.0 Safari/537.36","WebKit","Chrome","134.0.0.0","Windows","10.0","https://hz8g1ckzuq.cognition.run/","en-US,en;q=0.9","82988536jhqwy7a","23771","","","{""price_1"":""25"",""price_2"":""45"",""price_3"":""65""}","rating","dtc","repulsion_1","2","televisions","null","null","null","null","null","null","1","30","40","25","100","90","100","Screen size","Average lifespan"
"","","","","","rating_trial_setup","html-keyboard-response","59","1223569","0.0-3.0-0.28","45","1","2025-04-11 14:13:56","bb671e3ae32f654b8954ea4c4635f915","","Mozilla/5.0 (Windows NT 10.0; Win64; x64) AppleWebKit/537.36 (KHTML, like Gecko) Chrome/134.0.0.0 Safari/537.36","WebKit","Chrome","134.0.0.0","Windows","10.0","https://hz8g1ckzuq.cognition.run/","en-US,en;q=0.9","82988536jhqwy7a","null","","<p></p>","null","rating","dct","repulsion_1","1","laptops","null","null","null","null","null","null","1","","","","","","","",""
"","","","","","rating_trial","survey-html-form","60","1260491","0.0-3.0-1.28","45","1","2025-04-11 14:13:56","bb671e3ae32f654b8954ea4c4635f915","","Mozilla/5.0 (Windows NT 10.0; Win64; x64) AppleWebKit/537.36 (KHTML, like Gecko) Chrome/134.0.0.0 Safari/537.36","WebKit","Chrome","134.0.0.0","Windows","10.0","https://hz8g1ckzuq.cognition.run/","en-US,en;q=0.9","82988536jhqwy7a","36913","","","{""price_1"":""25"",""price_2"":""55"",""price_3"":""35""}","rating","dct","repulsion_1","1","laptops","null","null","null","null","null","null","1","100","90","100","30","40","25","Processing speed","Memory (RAM)"
"","","","","","rating_trial_setup","html-keyboard-response","61","1260798","0.0-3.0-0.29","45","1","2025-04-11 14:13:56","bb671e3ae32f654b8954ea4c4635f915","","Mozilla/5.0 (Windows NT 10.0; Win64; x64) AppleWebKit/537.36 (KHTML, like Gecko) Chrome/134.0.0.0 Safari/537.36","WebKit","Chrome","134.0.0.0","Windows","10.0","https://hz8g1ckzuq.cognition.run/","en-US,en;q=0.9","82988536jhqwy7a","null","","<p></p>","null","rating","tcd","repulsion_2","2","washing machines","null","null","null","null","null","null","1","","","","","","","",""