"success","timeout","failed_images","failed_audio","failed_video","screen_id","trial_type","trial_index","time_elapsed","internal_node_id","run_id","condition","recorded_at","source_code_version","ip","user_agent","device","browser","browser_version","platform","platform_version","referer","accept_language","ppt_id","age","race","ethnicity","gender","exp_duration","rt","view_history","stimulus","response","phase","order","effect","t_high","category","d1_best","d2_best","d1_worst1","d2_worst1","d1_worst2","d2_worst2","first_dim","d1_t","d1_c","d1_d","d2_t","d2_c","d2_d","d1_name","d2_name","strategy_response","question_order"
"true","false","[]","[]","[]","img preload","preload","0","13408","0.0-0.0","46","1","2025-04-11 14:14:01","bb671e3ae32f654b8954ea4c4635f915","","Mozilla/5.0 (Windows NT 10.0; Win64; x64) AppleWebKit/537.36 (KHTML, like Gecko) Chrome/129.0.0.0 Safari/537.36","WebKit","Chrome","129.0.0.0","Windows","10.0","https://hz8g1ckzuq.cognition.run/","en,en-US","ewgltuclg2n2k3m","45","[""Black or African-American""]","No","Male","1141150.8000000007","","","","","","","","","","","","","","","","","","","","","","","","","",""
"true","","","","","","fullscreen","1","19269","0.0-1.0","46","1","2025-04-11 14:14:01","bb671e3ae32f654b8954ea4c4635f915","","Mozilla/5.0 (Windows NT 10.0; Win64; x64) AppleWebKit/537.36 (KHTML, like Gecko) Chrome/129.0.0.0 Safari/537.36","WebKit","Chrome","129.0.0.0","Windows","10.0","https://hz8g1ckzuq.cognition.run/","en,en-US","ewgltuclg2n2k3m","45","[""Black or African-American""]","No","Male","1141150.8000000007","4819","","","","","","","","","","","","","","","","","","","","","","","","",""
"","","","","","","instructions","2","81161","0.0-2.0","46","1","2025-04-11 14:14:01","bb671e3ae32f654b8954ea4c4635f915","","Mozilla/5.0 (Windows NT 10.0; Win64; x64) AppleWebKit/537.36 (KHTML, like Gecko) Chrome/129.0.0.0 Safari/537.36","WebKit","Chrome","129.0.0.0","Windows","10.0","https://hz8g1ckzuq.cognition.run/","en,en-US","ewgltuclg2n2k3m","45","[""Black or African-American""]","No","Male","1141150.8000000007","61888","[{""page_index"":0,""viewing_time"":3000},{""page_index"":1,""viewing_time"":3561},{""page_index"":2,""viewing_time"":2024},{""page_index"":3,""viewing_time"":2415},{""page_index"":4,""viewing_time"":2192},{""page_index"":5,""viewing_time"":2480},{""page_index"":6,""viewing_time"":1984},{""page_index"":7,""viewing_time"":11136},{""page_index"":8,""viewing_time"":26200},{""page_index"":9,""viewing_time"":6896}]","","","","","","","","","","","","","","","","","","","","","","","",""
"","","","","","rating_trial_setup","html-keyboard-response","3","81919","0.0-3.0-0.0","46","1","2025-04-11 14:14:01","bb671e3ae32f654b8954ea4c4635f915","","Mozilla/5.0 (Windows NT 10.0; Win64; x64) AppleWebKit/537.36 (KHTML, like Gecko) Chrome/129.0.0.0 Safari/537.36","WebKit","Chrome","129.0.0.0","Windows","10.0","https://hz8g1ckzuq.cognition.run/","en,en-US","ewgltuclg2n2k3m","45","[""Black or African-American""]","No","Male","1141150.8000000007","null","","<p></p>","null","rating","ctd","repulsion_2","1","televisions","null","null","null","null","null","null","2","","","","","","","","","",""
"","","","","","rating_trial","survey-html-form","4","104247","0.0-3.0-1.0","46","1","2025-04-11 14:14:01","bb671e3ae32f654b8954ea4c4635f915","","Mozilla/5.0 (Windows NT 10.0; Win64; x64) AppleWebKit/537.36 (KHTML, like Gecko) Chrome/129.0.0.0 Safari/537.36","WebKit","Chrome","129.0.0.0","Windows","10.0","https://hz8g1ckzuq.cognition.run/","en,en-US","ewgltuclg2n2k3m","45","[""Black or African-American""]","No","Male","1141150.8000000007","22032","","","{""price_1"":""50"",""price_2"":""10"",""price_3"":""40""}","rating","ctd","repulsion_2","1","televisions","null","null","null","null","null","null","2","100","90","100","30","40","20","Screen size","Average lifespan","",""
"","","","","","rating_trial_setup","html-keyboard-response","5","104556","0.0-3.0-0.1","46","1","2025-04-11 14:14:01","bb671e3ae32f654b8954ea4c4635f915","","Mozilla/5.0 (Windows NT 10.0; Win64; x64) AppleWebKit/537.36 (KHTML, like Gecko) Chrome/129.0.0.0 Safari/537.36","WebKit","Chrome","129.0.0.0","Windows","10.0","https://hz8g1ckzuq.cognition.run/","en,en-US","ewgltuclg2n2k3m","45","[""Black or African-American""]","No","Male","1141150.8000000007","null","","<p></p>","null","rating","wbw","catch","null","washing machines","90","60","15","40","5","40","1","","","","","","","","","",""
"","","","","","rating_trial","survey-html-form","6","126057","0.0-3.0-1.1","46","1","2025-04-11 14:14:01","bb671e3ae32f654b8954ea4c4635f915","","Mozilla/5.0 (Windows NT 10.0; Win64; x64) AppleWebKit/537.36 (KHTML, like Gecko) Chrome/129.0.0.0 Safari/537.36","WebKit","Chrome","129.0.0.0","Windows","10.0","https://hz8g1ckzuq.cognition.run/","en,en-US","ewgltuclg2n2k3m","45","[""Black or African-American""]","No","Male","1141150.8000000007","21497","","","{""price_1"":""50"",""price_2"":""40"",""price_3"":""10""}","rating","wbw","catch","null","washing machines","90","60","15","40","5","40","1","null","null","null","null","null","null","Average lifespan","Energy savings","",""
"","","","","","rating_trial_setup","html-keyboard-response","7","126362","0.0-3.0-0.2","46","1","2025-04-11 14:14:01","bb671e3ae32f654b8954ea4c4635f915","","Mozilla/5.0 (Windows NT 10.0; Win64; x64) AppleWebKit/537.36 (KHTML, like Gecko) Chrome/129.0.0.0 Safari/537.36","WebKit","Chrome","129.0.0.0","Windows","10.0","https://hz8g1ckzuq.cognition.run/","en,en-US","ewgltuclg2n2k3m","45","[""Black or African-American""]","No","Male","1141150.8000000007","null","","<p></p>","null","rating","ctd","attraction_2","2","televisions","null","null","null","null","null","null","2","","","","","","","","","",""
"","","","","","rating_trial","survey-html-form","8","139785","0.0-3.0-1.2","46","1","2025-04-11 14:14:01","bb671e3ae32f654b8954ea4c4635f915","","Mozilla/5.0 (Windows NT 10.0; Win64; x64) AppleWebKit/537.36 (KHTML, like Gecko) Chrome/129.0.0.0 Safari/537.36","WebKit","Chrome","129.0.0.0","Windows","10.0","https://hz8g1ckzuq.cognition.run/","en,en-US","ewgltuclg2n2k3m","45","[""Black or African-American""]","No","Male","1141150.8000000007","13419","","","{""price_1"":""20"",""price_2"":""50"",""price_3"":""30""}","rating","ctd","attraction_2","2","televisions","null","null","null","null","null","null","2","50","60","40","60","50","60","Screen size","Average lifespan","",""
"","","","","","rating_trial_setup","html-keyboard-response","9","140090","0.0-3.0-0.3","46","1","2025-04-11 14:14:01","bb671e3ae32f654b8954ea4c4635f915","","Mozilla/5.0 (Windows NT 10.0; Win64; x64) AppleWebKit/537.36 (KHTML, like Gecko) Chrome/129.0.0.0 Safari/537.36","WebKit","Chrome","129.0.0.0","Windows","10.0","https://hz8g1ckzuq.cognition.run/","en,en-US","ewgltuclg2n2k3m","45","[""Black or African-American""]","No","Male","1141150.8000000007","null","","<p></p>","null","rating","wwb","catch","null","televisions","95","75","15","5","15","15","2","","","","","","","","","",""
"","","","","","rating_trial","survey-html-form","10","165405","0.0-3.0-1.3","46","1","2025-04-11 14:14:01","bb671e3ae32f654b8954ea4c4635f915","","Mozilla/5.0 (Windows NT 10.0; Win64; x64) AppleWebKit/537.36 (KHTML, like Gecko) Chrome/129.0.0.0 Safari/537.36","WebKit","Chrome","129.0.0.0","Windows","10.0","https://hz8g1ckzuq.cognition.run/","en,en-US","ewgltuclg2n2k3m","45","[""Black or African-American""]","No","Male","1141150.8000000007","25311","","","{""price_1"":""60"",""price_2"":""10"",""price_3"":""30""}","rating","wwb","catch","null","televisions","95","75","15","5","15","15","2","null","null","null","null","null","null","Screen size","Average lifespan","",""
"","","","","","rating_trial_setup","html-keyboard-response","11","165714","0.0-3.0-0.4","46","1","2025-04-11 14:14:01","bb671e3ae32f654b8954ea4c4635f915","","Mozilla/5.0 (Windows NT 10.0; Win64; x64) AppleWebKit/537.36 (KHTML, like Gecko) Chrome/129.0.0.0 Safari/537.36","WebKit","Chrome","129.0.0.0","Windows","10.0","https://hz8g1ckzuq.cognition.run/","en,en-US","ewgltuclg2n2k3m","45","[""Black or African-American""]","No","Male","1141150.8000000007","null","","<p></p>","null","rating","dtc","repulsion_1","2","washing machines","null","null","null","null","null","null","2","","","","","","","","","",""
"","","","","","rating_trial","survey-html-form","12","180845","0.0-3.0-1.4","46","1","2025-04-11 14:14:01","bb671e3ae32f654b8954ea4c4635f915","","Mozilla/5.0 (Windows NT 10.0; Win64; x64) AppleWebKit/537.36 (KHTML, like Gecko) Chrome/129.0.0.0 Safari/537.36","WebKit","Chrome","129.0.0.0","Windows","10.0","https://hz8g1ckzuq.cognition.run/","en,en-US","ewgltuclg2n2k3m","45","[""Black or African-American""]","No","Male","1141150.8000000007","15128","","","{""price_1"":""60"",""price_2"":""10"",""price_3"":""30""}","rating","dtc","repulsion_1","2","washing machines","null","null","null","null","null","null","2","30","40","25","100","90","100","Average lifespan","Energy savings","",""
"","","","","","rating_trial_setup","html-keyboard-response","13","181154","0.0-3.0-0.5","46","1","2025-04-11 14:14:01","bb671e3ae32f654b8954ea4c4635f915","","Mozilla/5.0 (Windows NT 10.0; Win64; x64) AppleWebKit/537.36 (KHTML, like Gecko) Chrome/129.0.0.0 Safari/537.36","WebKit","Chrome","129.0.0.0","Windows","10.0","https://hz8g1ckzuq.cognition.run/","en,en-US","ewgltuclg2n2k3m","45","[""Black or African-American""]","No","Male","1141150.8000000007","null","","<p></p>","null","rating","dct","attraction_2","1","microwave ovens","null","null","null","null","null","null","1","","","","","","","","","",""
"","","","","","rating_trial","survey-html-form","14","192854","0.0-3.0-1.5","46","1","2025-04-11 14:14:01","bb671e3ae32f654b8954ea4c4635f915","","Mozilla/5.0 (Windows NT 10.0; Win64; x64) AppleWebKit/537.36 (KHTML, like Gecko) Chrome/129.0.0.0 Safari/537.36","WebKit","Chrome","129.0.0.0","Windows","10.0","https://hz8g1ckzuq.cognition.run/","en,en-US","ewgltuclg2n2k3m","45","[""Black or African-American""]","No","Male","1141150.8000000007","11695","","","{""price_1"":""10"",""price_2"":""20"",""price_3"":""70""}","rating","dct","attraction_2","1","microwave ovens","null","null","null","null","null","null","1","60","50","60","50","60","40","Warranty","Cooking power","",""
"","","","","","rating_trial_setup","html-keyboard-response","15","193165","0.0-3.0-0.6","46","1","2025-04-11 14:14:01","bb671e3ae32f654b8954ea4c4635f915","","Mozilla/5.0 (Windows NT 10.0; Win64; x64) AppleWebKit/537.36 (KHTML, like Gecko) Chrome/129.0.0.0 Safari/537.36","WebKit","Chrome","129.0.0.0","Windows","10.0","https://hz8g1ckzuq.cognition.run/","en,en-US","ewgltuclg2n2k3m","45","[""Black or African-American""]","No","Male","1141150.8000000007","null","","<p></p>","null","rating","tcd","repulsion_2","2","microwave ovens","null","null","null","null","null","null","1","","","","","","","","","",""
"","","","","","rating_trial","survey-html-form","16","205383","0.0-3.0-1.6","46","1","2025-04-11 14:14:01","bb671e3ae32f654b8954ea4c4635f915","","Mozilla/5.0 (Windows NT 10.0; Win64; x64) AppleWebKit/537.36 (KHTML, like Gecko) Chrome/129.0.0.0 Safari/537.36","WebKit","Chrome","129.0.0.0","Windows","10.0","https://hz8g1ckzuq.cognition.run/","en,en-US","ewgltuclg2n2k3m","45","[""Black or African-American""]","No","Male","1141150.8000000007","12215","","","{""price_1"":""70"",""price_2"":""20"",""price_3"":""10""}","rating","tcd","repulsion_2","2","microwave ovens","null","null","null","null","null","null","1","30","40","20","100","90","100","Warranty","Cooking power","",""
"","","","","","rating_trial_setup","html-keyboard-response","17","205699","0.0-3.0-0.7","46","1","2025-04-11 14:14:01","bb671e3ae32f654b8954ea4c4635f915","","Mozilla/5.0 (Windows NT 10.0; Win64; x64) AppleWebKit/537.36 (KHTML, like Gecko) Chrome/129.0.0.0 Safari/537.36","WebKit","Chrome","129.0.0.0","Windows","10.0","https://hz8g1ckzuq.cognition.run/","en,en-US","ewgltuclg2n2k3m","45","[""Black or African-American""]","No","Male","1141150.8000000007","null","","<p></p>","null","rating","cdt","attraction_1","1","televisions","null","null","null","null","null","null","2","","","","","","","","","",""
"","","","","","rating_trial","survey-html-form","18","235419","0.0-3.0-1.7","46","1","2025-04-11 14:14:01","bb671e3ae32f654b8954ea4c4635f915","","Mozilla/5.0 (Windows NT 10.0; Win64; x64) AppleWebKit/537.36 (KHTML, like Gecko) Chrome/129.0.0.0 Safari/537.36","WebKit","Chrome","129.0.0.0","Windows","10.0","https://hz8g1ckzuq.cognition.run/","en,en-US","ewgltuclg2n2k3m","45","[""Black or African-American""]","No","Male","1141150.8000000007","29716","","","{""price_1"":""30"",""price_2"":""40"",""price_3"":""30""}","rating","cdt","attraction_1","1","televisions","null","null","null","null","null","null","2","60","50","60","50","60","45","Screen size","Average lifespan","",""
"","","","","","rating_trial_setup","html-keyboard-response","19","235731","0.0-3.0-0.8","46","1","2025-04-11 14:14:01","bb671e3ae32f654b8954ea4c4635f915","","Mozilla/5.0 (Windows NT 10.0; Win64; x64) AppleWebKit/537.36 (KHTML, like Gecko) Chrome/129.0.0.0 Safari/537.36","WebKit","Chrome","129.0.0.0","Windows","10.0","https://hz8g1ckzuq.cognition.run/","en,en-US","ewgltuclg2n2k3m","45","[""Black or African-American""]","No","Male","1141150.8000000007","null","","<p></p>","null","rating","dct","repulsion_2","1","microwave ovens","null","null","null","null","null","null","1","","","","","","","","","",""
"","","","","","rating_trial","survey-html-form","20","249421","0.0-3.0-1.8","46","1","2025-04-11 14:14:01","bb671e3ae32f654b8954ea4c4635f915","","Mozilla/5.0 (Windows NT 10.0; Win64; x64) AppleWebKit/537.36 (KHTML, like Gecko) Chrome/129.0.0.0 Safari/537.36","WebKit","Chrome","129.0.0.0","Windows","10.0","https://hz8g1ckzuq.cognition.run/","en,en-US","ewgltuclg2n2k3m","45","[""Black or African-American""]","No","Male","1141150.8000000007","13686","","","{""price_1"":""10"",""price_2"":""30"",""price_3"":""60""}","rating","dct","repulsion_2","1","microwave ovens","null","null","null","null","null","null","1","100","90","100","30","40","20","Warranty","Cooking power","",""
"","","","","","rating_trial_setup","html-keyboard-response","21","249737","0.0-3.0-0.9","46","1","2025-04-11 14:14:01","bb671e3ae32f654b8954ea4c4635f915","","Mozilla/5.0 (Windows NT 10.0; Win64; x64) AppleWebKit/537.36 (KHTML, like Gecko) Chrome/129.0.0.0 Safari/537.36","WebKit","Chrome","129.0.0.0","Windows","10.0","https://hz8g1ckzuq.cognition.run/","en,en-US","ewgltuclg2n2k3m","45","[""Black or African-American""]","No","Male","1141150.8000000007","null","","<p></p>","null","rating","tcd","repulsion_2","2","laptops","null","null","null","null","null","null","2","","","","","","","","","",""
"","","","","","rating_trial","survey-html-form","22","261913","0.0-3.0-1.9","46","1","2025-04-11 14:14:01","bb671e3ae32f654b8954ea4c4635f915","","Mozilla/5.0 (Windows NT 10.0; Win64; x64) AppleWebKit/537.36 (KHTML, like Gecko) Chrome/129.0.0.0 Safari/537.36","WebKit","Chrome","129.0.0.0","Windows","10.0","https://hz8g1ckzuq.cognition.run/","en,en-US","ewgltuclg2n2k3m","45","[""Black or African-American""]","No","Male","1141150.8000000007","12169","","","{""price_1"":""40"",""price_2"":""20"",""price_3"":""40""}","rating","tcd","repulsion_2","2","laptops","null","null","null","null","null","null","2","30","40","20","100","90","100","Processing speed","Memory (RAM)","",""
"","","","","","rating_trial_setup","html-keyboard-response","23","262226","0.0-3.0-0.10","46","1","2025-04-11 14:14:01","bb671e3ae32f654b8954ea4c4635f915","","Mozilla/5.0 (Windows NT 10.0; Win64; x64) AppleWebKit/537.36 (KHTML, like Gecko) Chrome/129.0.0.0 Safari/537.36","WebKit","Chrome","129.0.0.0","Windows","10.0","https://hz8g1ckzuq.cognition.run/","en,en-US","ewgltuclg2n2k3m","45","[""Black or African-American""]","No","Male","1141150.8000000007","null","","<p></p>","null","rating","bww","catch","null","microwave ovens","80","80","35","20","15","20","2","","","","","","","","","",""
"","","","","","rating_trial","survey-html-form","24","271669","0.0-3.0-1.10","46","1","2025-04-11 14:14:01","bb671e3ae32f654b8954ea4c4635f915","","Mozilla/5.0 (Windows NT 10.0; Win64; x64) AppleWebKit/537.36 (KHTML, like Gecko) Chrome/129.0.0.0 Safari/537.36","WebKit","Chrome","129.0.0.0","Windows","10.0","https://hz8g1ckzuq.cognition.run/","en,en-US","ewgltuclg2n2k3m","45","[""Black or African-American""]","No","Male","1141150.8000000007","9439","","","{""price_1"":""10"",""price_2"":""30"",""price_3"":""60""}","rating","bww","catch","null","microwave ovens","80","80","35","20","15","20","2","null","null","null","null","null","null","Warranty","Cooking power","",""
"","","","","","rating_trial_setup","html-keyboard-response","25","271979","0.0-3.0-0.11","46","1","2025-04-11 14:14:01","bb671e3ae32f654b8954ea4c4635f915","","Mozilla/5.0 (Windows NT 10.0; Win64; x64) AppleWebKit/537.36 (KHTML, like Gecko) Chrome/129.0.0.0 Safari/537.36","WebKit","Chrome","129.0.0.0","Windows","10.0","https://hz8g1ckzuq.cognition.run/","en,en-US","ewgltuclg2n2k3m","45","[""Black or African-American""]","No","Male","1141150.8000000007","null","","<p></p>","null","rating","cdt","repulsion_1","1","microwave ovens","null","null","null","null","null","null","1","","","","","","","","","",""
"","","","","","rating_trial","survey-html-form","26","333612","0.0-3.0-1.11","46","1","2025-04-11 14:14:01","bb671e3ae32f654b8954ea4c4635f915","","Mozilla/5.0 (Windows NT 10.0; Win64; x64) AppleWebKit/537.36 (KHTML, like Gecko) Chrome/129.0.0.0 Safari/537.36","WebKit","Chrome","129.0.0.0","Windows","10.0","https://hz8g1ckzuq.cognition.run/","en,en-US","ewgltuclg2n2k3m","45","[""Black or African-American""]","No","Male","1141150.8000000007","61628","","","{""price_1"":""30"",""price_2"":""20"",""price_3"":""50""}","rating","cdt","repulsion_1","1","microwave ovens","null","null","null","null","null","null","1","100","90","100","30","40","25","Warranty","Cooking power","",""
"","","","","","rating_trial_setup","html-keyboard-response","27","333919","0.0-3.0-0.12","46","1","2025-04-11 14:14:01","bb671e3ae32f654b8954ea4c4635f915","","Mozilla/5.0 (Windows NT 10.0; Win64; x64) AppleWebKit/537.36 (KHTML, like Gecko) Chrome/129.0.0.0 Safari/537.36","WebKit","Chrome","129.0.0.0","Windows","10.0","https://hz8g1ckzuq.cognition.run/","en,en-US","ewgltuclg2n2k3m","45","[""Black or African-American""]","No","Male","1141150.8000000007","null","","<p></p>","null","rating","tdc","attraction_2","2","laptops","null","null","null","null","null","null","2","","","","","","","","","",""
"","","","","","rating_trial","survey-html-form","28","344474","0.0-3.0-1.12","46","1","2025-04-11 14:14:01","bb671e3ae32f654b8954ea4c4635f915","","Mozilla/5.0 (Windows NT 10.0; Win64; x64) AppleWebKit/537.36 (KHTML, like Gecko) Chrome/129.0.0.0 Safari/537.36","WebKit","Chrome","129.0.0.0","Windows","10.0","https://hz8g1ckzuq.cognition.run/","en,en-US","ewgltuclg2n2k3m","45","[""Black or African-American""]","No","Male","1141150.8000000007","10550","","","{""price_1"":""40"",""price_2"":""40"",""price_3"":""20""}","rating","tdc","attraction_2","2","laptops","null","null","null","null","null","null","2","50","60","40","60","50","60","Processing speed","Memory (RAM)","",""
"","","","","","rating_trial_setup","html-keyboard-response","29","344781","0.0-3.0-0.13","46","1","2025-04-11 14:14:01","bb671e3ae32f654b8954ea4c4635f915","","Mozilla/5.0 (Windows NT 10.0; Win64; x64) AppleWebKit/537.36 (KHTML, like Gecko) Chrome/129.0.0.0 Safari/537.36","WebKit","Chrome","129.0.0.0","Windows","10.0","https://hz8g1ckzuq.cognition.run/","en,en-US","ewgltuclg2n2k3m","45","[""Black or African-American""]","No","Male","1141150.8000000007","null","","<p></p>","null","rating","cdt","attraction_1","2","microwave ovens","null","null","null","null","null","null","2","","","","","","","","","",""
"","","","","","rating_trial","survey-html-form","30","430771","0.0-3.0-1.13","46","1","2025-04-11 14:14:01","bb671e3ae32f654b8954ea4c4635f915","","Mozilla/5.0 (Windows NT 10.0; Win64; x64) AppleWebKit/537.36 (KHTML, like Gecko) Chrome/129.0.0.0 Safari/537.36","WebKit","Chrome","129.0.0.0","Windows","10.0","https://hz8g1ckzuq.cognition.run/","en,en-US","ewgltuclg2n2k3m","45","[""Black or African-American""]","No","Male","1141150.8000000007","85984","","","{""price_1"":""50"",""price_2"":""20"",""price_3"":""30""}","rating","cdt","attraction_1","2","microwave ovens","null","null","null","null","null","null","2","50","60","45","60","50","60","Warranty","Cooking power","",""
"","","","","","rating_trial_setup","html-keyboard-response","31","431083","0.0-3.0-0.14","46","1","2025-04-11 14:14:01","bb671e3ae32f654b8954ea4c4635f915","","Mozilla/5.0 (Windows NT 10.0; Win64; x64) AppleWebKit/537.36 (KHTML, like Gecko) Chrome/129.0.0.0 Safari/537.36","WebKit","Chrome","129.0.0.0","Windows","10.0","https://hz8g1ckzuq.cognition.run/","en,en-US","ewgltuclg2n2k3m","45","[""Black or African-American""]","No","Male","1141150.8000000007","null","","<p></p>","null","rating","cdt","attraction_1","2","televisions","null","null","null","null","null","null","1","","","","","","","","","",""
"","","","","","rating_trial","survey-html-form","32","453005","0.0-3.0-1.14","46","1","2025-04-11 14:14:01","bb671e3ae32f654b8954ea4c4635f915","","Mozilla/5.0 (Windows NT 10.0; Win64; x64) AppleWebKit/537.36 (KHTML, like Gecko) Chrome/129.0.0.0 Safari/537.36","WebKit","Chrome","129.0.0.0","Windows","10.0","https://hz8g1ckzuq.cognition.run/","en,en-US","ewgltuclg2n2k3m","45","[""Black or African-American""]","No","Male","1141150.8000000007","21917","","","{""price_1"":""20"",""price_2"":""10"",""price_3"":""70""}","rating","cdt","attraction_1","2","televisions","null","null","null","null","null","null","1","50","60","45","60","50","60","Screen size","Average lifespan","",""
"","","","","","rating_trial_setup","html-keyboard-response","33","453309","0.0-3.0-0.15","46","1","2025-04-11 14:14:01","bb671e3ae32f654b8954ea4c4635f915","","Mozilla/5.0 (Windows NT 10.0; Win64; x64) AppleWebKit/537.36 (KHTML, like Gecko) Chrome/129.0.0.0 Safari/537.36","WebKit","Chrome","129.0.0.0","Windows","10.0","https://hz8g1ckzuq.cognition.run/","en,en-US","ewgltuclg2n2k3m","45","[""Black or African-American""]","No","Male","1141150.8000000007","null","","<p></p>","null","rating","tdc","repulsion_1","1","laptops","null","null","null","null","null","null","1","","","","","","","","","",""
"","","","","","rating_trial","survey-html-form","34","485522","0.0-3.0-1.15","46","1","2025-04-11 14:14:01","bb671e3ae32f654b8954ea4c4635f915","","Mozilla/5.0 (Windows NT 10.0; Win64; x64) AppleWebKit/537.36 (KHTML, like Gecko) Chrome/129.0.0.0 Safari/537.36","WebKit","Chrome","129.0.0.0","Windows","10.0","https://hz8g1ckzuq.cognition.run/","en,en-US","ewgltuclg2n2k3m","45","[""Black or African-American""]","No","Male","1141150.8000000007","32206","","","{""price_1"":""40"",""price_2"":""20"",""price_3"":""40""}","rating","tdc","repulsion_1","1","laptops","null","null","null","null","null","null","1","100","90","100","30","40","25","Processing speed","Memory (RAM)","",""
"","","","","","rating_trial_setup","html-keyboard-response","35","485826","0.0-3.0-0.16","46","1","2025-04-11 14:14:01","bb671e3ae32f654b8954ea4c4635f915","","Mozilla/5.0 (Windows NT 10.0; Win64; x64) AppleWebKit/537.36 (KHTML, like Gecko) Chrome/129.0.0.0 Safari/537.36","WebKit","Chrome","129.0.0.0","Windows","10.0","https://hz8g1ckzuq.cognition.run/","en,en-US","ewgltuclg2n2k3m","45","[""Black or African-American""]","No","Male","1141150.8000000007","null","","<p></p>","null","rating","dtc","attraction_2","1","televisions","null","null","null","null","null","null","1","","","","","","","","","",""
"","","","","","rating_trial","survey-html-form","36","584322","0.0-3.0-1.16","46","1","2025-04-11 14:14:01","bb671e3ae32f654b8954ea4c4635f915","","Mozilla/5.0 (Windows NT 10.0; Win64; x64) AppleWebKit/537.36 (KHTML, like Gecko) Chrome/129.0.0.0 Safari/537.36","WebKit","Chrome","129.0.0.0","Windows","10.0","https://hz8g1ckzuq.cognition.run/","en,en-US","ewgltuclg2n2k3m","45","[""Black or African-American""]","No","Male","1141150.8000000007","98490","","","{""price_1"":""30"",""price_2"":""20"",""price_3"":""50""}","rating","dtc","attraction_2","1","televisions","null","null","null","null","null","null","1","60","50","60","50","60","40","Screen size","Average lifespan","",""
"","","","","","rating_trial_setup","html-keyboard-response","37","584627","0.0-3.0-0.17","46","1","2025-04-11 14:14:01","bb671e3ae32f654b8954ea4c4635f915","","Mozilla/5.0 (Windows NT 10.0; Win64; x64) AppleWebKit/537.36 (KHTML, like Gecko) Chrome/129.0.0.0 Safari/537.36","WebKit","Chrome","129.0.0.0","Windows","10.0","https://hz8g1ckzuq.cognition.run/","en,en-US","ewgltuclg2n2k3m","45","[""Black or African-American""]","No","Male","1141150.8000000007","null","","<p></p>","null","rating","bww","catch","null","televisions","60","90","10","10","40","25","2","","","","","","","","","",""
"","","","","","rating_trial","survey-html-form","38","595274","0.0-3.0-1.17","46","1","2025-04-11 14:14:01","bb671e3ae32f654b8954ea4c4635f915","","Mozilla/5.0 (Windows NT 10.0; Win64; x64) AppleWebKit/537.36 (KHTML, like Gecko) Chrome/129.0.0.0 Safari/537.36","WebKit","Chrome","129.0.0.0","Windows","10.0","https://hz8g1ckzuq.cognition.run/","en,en-US","ewgltuclg2n2k3m","45","[""Black or African-American""]","No","Male","1141150.8000000007","10641","","","{""price_1"":""10"",""price_2"":""20"",""price_3"":""70""}","rating","bww","catch","null","televisions","60","90","10","10","40","25","2","null","null","null","null","null","null","Screen size","Average lifespan","",""
"","","","","","rating_trial_setup","html-keyboard-response","39","595580","0.0-3.0-0.18","46","1","2025-04-11 14:14:01","bb671e3ae32f654b8954ea4c4635f915","","Mozilla/5.0 (Windows NT 10.0; Win64; x64) AppleWebKit/537.36 (KHTML, like Gecko) Chrome/129.0.0.0 Safari/537.36","WebKit","Chrome","129.0.0.0","Windows","10.0","https://hz8g1ckzuq.cognition.run/","en,en-US","ewgltuclg2n2k3m","45","[""Black or African-American""]","No","Male","1141150.8000000007","null","","<p></p>","null","rating","ctd","attraction_1","2","laptops","null","null","null","null","null","null","2","","","","","","","","","",""
"","","","","","rating_trial","survey-html-form","40","604210","0.0-3.0-1.18","46","1","2025-04-11 14:14:01","bb671e3ae32f654b8954ea4c4635f915","","Mozilla/5.0 (Windows NT 10.0; Win64; x64) AppleWebKit/537.36 (KHTML, like Gecko) Chrome/129.0.0.0 Safari/537.36","WebKit","Chrome","129.0.0.0","Windows","10.0","https://hz8g1ckzuq.cognition.run/","en,en-US","ewgltuclg2n2k3m","45","[""Black or African-American""]","No","Male","1141150.8000000007","8625","","","{""price_1"":""70"",""price_2"":""10"",""price_3"":""20""}","rating","ctd","attraction_1","2","laptops","null","null","null","null","null","null","2","50","60","45","60","50","60","Processing speed","Memory (RAM)","",""
"","","","","","rating_trial_setup","html-keyboard-response","41","604515","0.0-3.0-0.19","46","1","2025-04-11 14:14:01","bb671e3ae32f654b8954ea4c4635f915","","Mozilla/5.0 (Windows NT 10.0; Win64; x64) AppleWebKit/537.36 (KHTML, like Gecko) Chrome/129.0.0.0 Safari/537.36","WebKit","Chrome","129.0.0.0","Windows","10.0","https://hz8g1ckzuq.cognition.run/","en,en-US","ewgltuclg2n2k3m","45","[""Black or African-American""]","No","Male","1141150.8000000007","null","","<p></p>","null","rating","wwb","catch","null","laptops","50","90","30","5","35","15","1","","","","","","","","","",""
"","","","","","rating_trial","survey-html-form","42","618994","0.0-3.0-1.19","46","1","2025-04-11 14:14:01","bb671e3ae32f654b8954ea4c4635f915","","Mozilla/5.0 (Windows NT 10.0; Win64; x64) AppleWebKit/537.36 (KHTML, like Gecko) Chrome/129.0.0.0 Safari/537.36","WebKit","Chrome","129.0.0.0","Windows","10.0","https://hz8g1ckzuq.cognition.run/","en,en-US","ewgltuclg2n2k3m","45","[""Black or African-American""]","No","Male","1141150.8000000007","14473","","","{""price_1"":""30"",""price_2"":""40"",""price_3"":""30""}","rating","wwb","catch","null","laptops","50","90","30","5","35","15","1","null","null","null","null","null","null","Processing speed","Memory (RAM)","",""
"","","","","","rating_trial_setup","html-keyboard-response","43","619299","0.0-3.0-0.20","46","1","2025-04-11 14:14:01","bb671e3ae32f654b8954ea4c4635f915","","Mozilla/5.0 (Windows NT 10.0; Win64; x64) AppleWebKit/537.36 (KHTML, like Gecko) Chrome/129.0.0.0 Safari/537.36","WebKit","Chrome","129.0.0.0","Windows","10.0","https://hz8g1ckzuq.cognition.run/","en,en-US","ewgltuclg2n2k3m","45","[""Black or African-American""]","No","Male","1141150.8000000007","null","","<p></p>","null","rating","wbw","catch","null","washing machines","90","60","10","50","45","15","1","","","","","","","","","",""
"","","","","","rating_trial","survey-html-form","44","632754","0.0-3.0-1.20","46","1","2025-04-11 14:14:01","bb671e3ae32f654b8954ea4c4635f915","","Mozilla/5.0 (Windows NT 10.0; Win64; x64) AppleWebKit/537.36 (KHTML, like Gecko) Chrome/129.0.0.0 Safari/537.36","WebKit","Chrome","129.0.0.0","Windows","10.0","https://hz8g1ckzuq.cognition.run/","en,en-US","ewgltuclg2n2k3m","45","[""Black or African-American""]","No","Male","1141150.8000000007","13449","","","{""price_1"":""10"",""price_2"":""80"",""price_3"":""10""}","rating","wbw","catch","null","washing machines","90","60","10","50","45","15","1","null","null","null","null","null","null","Average lifespan","Energy savings","",""
"","","","","","rating_trial_setup","html-keyboard-response","45","633059","0.0-3.0-0.21","46","1","2025-04-11 14:14:01","bb671e3ae32f654b8954ea4c4635f915","","Mozilla/5.0 (Windows NT 10.0; Win64; x64) AppleWebKit/537.36 (KHTML, like Gecko) Chrome/129.0.0.0 Safari/537.36","WebKit","Chrome","129.0.0.0","Windows","10.0","https://hz8g1ckzuq.cognition.run/","en,en-US","ewgltuclg2n2k3m","45","[""Black or African-American""]","No","Male","1141150.8000000007","null","","<p></p>","null","rating","dtc","attraction_2","2","microwave ovens","null","null","null","null","null","null","1","","","","","","","","","",""
"","","","","","rating_trial","survey-html-form","46","652434","0.0-3.0-1.21","46","1","2025-04-11 14:14:01","bb671e3ae32f654b8954ea4c4635f915","","Mozilla/5.0 (Windows NT 10.0; Win64; x64) AppleWebKit/537.36 (KHTML, like Gecko) Chrome/129.0.0.0 Safari/537.36","WebKit","Chrome","129.0.0.0","Windows","10.0","https://hz8g1ckzuq.cognition.run/","en,en-US","ewgltuclg2n2k3m","45","[""Black or African-American""]","No","Male","1141150.8000000007","19366","","","{""price_1"":""40"",""price_2"":""30"",""price_3"":""30""}","rating","dtc","attraction_2","2","microwave ovens","null","null","null","null","null","null","1","50","60","40","60","50","60","Warranty","Cooking power","",""
"","","","","","rating_trial_setup","html-keyboard-response","47","652739","0.0-3.0-0.22","46","1","2025-04-11 14:14:01","bb671e3ae32f654b8954ea4c4635f915","","Mozilla/5.0 (Windows NT 10.0; Win64; x64) AppleWebKit/537.36 (KHTML, like Gecko) Chrome/129.0.0.0 Safari/537.36","WebKit","Chrome","129.0.0.0","Windows","10.0","https://hz8g1ckzuq.cognition.run/","en,en-US","ewgltuclg2n2k3m","45","[""Black or African-American""]","No","Male","1141150.8000000007","null","","<p></p>","null","rating","wbw","catch","null","laptops","50","80","25","20","10","40","1","","","","","","","","","",""
"","","","","","rating_trial","survey-html-form","48","663826","0.0-3.0-1.22","46","1","2025-04-11 14:14:01","bb671e3ae32f654b8954ea4c4635f915","","Mozilla/5.0 (Windows NT 10.0; Win64; x64) AppleWebKit/537.36 (KHTML, like Gecko) Chrome/129.0.0.0 Safari/537.36","WebKit","Chrome","129.0.0.0","Windows","10.0","https://hz8g1ckzuq.cognition.run/","en,en-US","ewgltuclg2n2k3m","45","[""Black or African-American""]","No","Male","1141150.8000000007","11080","","","{""price_1"":""30"",""price_2"":""10"",""price_3"":""60""}","rating","wbw","catch","null","laptops","50","80","25","20","10","40","1","null","null","null","null","null","null","Processing speed","Memory (RAM)","",""
"","","","","","rating_trial_setup","html-keyboard-response","49","664131","0.0-3.0-0.23","46","1","2025-04-11 14:14:01","bb671e3ae32f654b8954ea4c4635f915","","Mozilla/5.0 (Windows NT 10.0; Win64; x64) AppleWebKit/537.36 (KHTML, like Gecko) Chrome/129.0.0.0 Safari/537.36","WebKit","Chrome","129.0.0.0","Windows","10.0","https://hz8g1ckzuq.cognition.run/","en,en-US","ewgltuclg2n2k3m","45","[""Black or African-American""]","No","Male","1141150.8000000007","null","","<p></p>","null","rating","cdt","repulsion_1","2","microwave ovens","null","null","null","null","null","null","2","","","","","","","","","",""
"","","","","","rating_trial","survey-html-form","50","674322","0.0-3.0-1.23","46","1","2025-04-11 14:14:01","bb671e3ae32f654b8954ea4c4635f915","","Mozilla/5.0 (Windows NT 10.0; Win64; x64) AppleWebKit/537.36 (KHTML, like Gecko) Chrome/129.0.0.0 Safari/537.36","WebKit","Chrome","129.0.0.0","Windows","10.0","https://hz8g1ckzuq.cognition.run/","en,en-US","ewgltuclg2n2k3m","45","[""Black or African-American""]","No","Male","1141150.8000000007","10185","","","{""price_1"":""80"",""price_2"":""10"",""price_3"":""10""}","rating","cdt","repulsion_1","2","microwave ovens","null","null","null","null","null","null","2","30","40","25","100","90","100","Warranty","Cooking power","",""
"","","","","","rating_trial_setup","html-keyboard-response","51","674627","0.0-3.0-0.24","46","1","2025-04-11 14:14:01","bb671e3ae32f654b8954ea4c4635f915","","Mozilla/5.0 (Windows NT 10.0; Win64; x64) AppleWebKit/537.36 (KHTML, like Gecko) Chrome/129.0.0.0 Safari/537.36","WebKit","Chrome","129.0.0.0","Windows","10.0","https://hz8g1ckzuq.cognition.run/","en,en-US","ewgltuclg2n2k3m","45","[""Black or African-American""]","No","Male","1141150.8000000007","null","","<p></p>","null","rating","cdt","attraction_2","2","washing machines","null","null","null","null","null","null","1","","","","","","","","","",""
"","","","","","rating_trial","survey-html-form","52","684242","0.0-3.0-1.24","46","1","2025-04-11 14:14:01","bb671e3ae32f654b8954ea4c4635f915","","Mozilla/5.0 (Windows NT 10.0; Win64; x64) AppleWebKit/537.36 (KHTML, like Gecko) Chrome/129.0.0.0 Safari/537.36","WebKit","Chrome","129.0.0.0","Windows","10.0","https://hz8g1ckzuq.cognition.run/","en,en-US","ewgltuclg2n2k3m","45","[""Black or African-American""]","No","Male","1141150.8000000007","9609","","","{""price_1"":""10"",""price_2"":""30"",""price_3"":""60""}","rating","cdt","attraction_2","2","washing machines","null","null","null","null","null","null","1","50","60","40","60","50","60","Average lifespan","Energy savings","",""
"","","","","","rating_trial_setup","html-keyboard-response","53","684547","0.0-3.0-0.25","46","1","2025-04-11 14:14:01","bb671e3ae32f654b8954ea4c4635f915","","Mozilla/5.0 (Windows NT 10.0; Win64; x64) AppleWebKit/537.36 (KHTML, like Gecko) Chrome/129.0.0.0 Safari/537.36","WebKit","Chrome","129.0.0.0","Windows","10.0","https://hz8g1ckzuq.cognition.run/","en,en-US","ewgltuclg2n2k3m","45","[""Black or African-American""]","No","Male","1141150.8000000007","null","","<p></p>","null","rating","cdt","attraction_1","2","washing machines","null","null","null","null","null","null","1","","","","","","","","","",""
"","","","","","rating_trial","survey-html-form","54","696378","0.0-3.0-1.25","46","1","2025-04-11 14:14:01","bb671e3ae32f654b8954ea4c4635f915","","Mozilla/5.0 (Windows NT 10.0; Win64; x64) AppleWebKit/537.36 (KHTML, like Gecko) Chrome/129.0.0.0 Safari/537.36","WebKit","Chrome","129.0.0.0","Windows","10.0","https://hz8g1ckzuq.cognition.run/","en,en-US","ewgltuclg2n2k3m","45","[""Black or African-American""]","No","Male","1141150.8000000007","11825","","","{""price_1"":""80"",""price_2"":""10"",""price_3"":""10""}","rating","cdt","attraction_1","2","washing machines","null","null","null","null","null","null","1","50","60","45","60","50","60","Average lifespan","Energy savings","",""
"","","","","","rating_trial_setup","html-keyboard-response","55","696683","0.0-3.0-0.26","46","1","2025-04-11 14:14:01","bb671e3ae32f654b8954ea4c4635f915","","Mozilla/5.0 (Windows NT 10.0; Win64; x64) AppleWebKit/537.36 (KHTML, like Gecko) Chrome/129.0.0.0 Safari/537.36","WebKit","Chrome","129.0.0.0","Windows","10.0","https://hz8g1ckzuq.cognition.run/","en,en-US","ewgltuclg2n2k3m","45","[""Black or African-American""]","No","Male","1141150.8000000007","null","","<p></p>","null","rating","dct","repulsion_1","1","televisions","null","null","null","null","null","null","2","","","","","","","","","",""
"","","","","","rating_trial","survey-html-form","56","714770","0.0-3.0-1.26","46","1","2025-04-11 14:14:01","bb671e3ae32f654b8954ea4c4635f915","","Mozilla/5.0 (Windows NT 10.0; Win64; x64) AppleWebKit/537.36 (KHTML, like Gecko) Chrome/129.0.0.0 Safari/537.36","WebKit","Chrome","129.0.0.0","Windows","10.0","https://hz8g1ckzuq.cognition.run/","en,en-US","ewgltuclg2n2k3m","45","[""Black or African-American""]","No","Male","1141150.8000000007","18079","","","{""price_1"":""45"",""price_2"":""15"",""price_3"":""40""}","rating","dct","repulsion_1","1","televisions","null","null","null","null","null","null","2","100","90","100","30","40","25","Screen size","Average lifespan","",""
"","","","","","rating_trial_setup","html-keyboard-response","57","715075","0.0-3.0-0.27","46","1","2025-04-11 14:14:01","bb671e3ae32f654b8954ea4c4635f915","","Mozilla/5.0 (Windows NT 10.0; Win64; x64) AppleWebKit/537.36 (KHTML, like Gecko) Chrome/129.0.0.0 Safari/537.36","WebKit","Chrome","129.0.0.0","Windows","10.0","https://hz8g1ckzuq.cognition.run/","en,en-US","ewgltuclg2n2k3m","45","[""Black or African-American""]","No","Male","1141150.8000000007","null","","<p></p>","null","rating","tcd","repulsion_1","1","washing machines","null","null","null","null","null","null","1","","","","","","","","","",""
"","","","","","rating_trial","survey-html-form","58","725698","0.0-3.0-1.27","46","1","2025-04-11 14:14:01","bb671e3ae32f654b8954ea4c4635f915","","Mozilla/5.0 (Windows NT 10.0; Win64; x64) AppleWebKit/537.36 (KHTML, like Gecko) Chrome/129.0.0.0 Safari/537.36","WebKit","Chrome","129.0.0.0","Windows","10.0","https://hz8g1ckzuq.cognition.run/","en,en-US","ewgltuclg2n2k3m","45","[""Black or African-American""]","No","Male","1141150.8000000007","10612","","","{""price_1"":""20"",""price_2"":""20"",""price_3"":""60""}","rating","tcd","repulsion_1","1","washing machines","null","null","null","null","null","null","1","100","90","100","30","40","25","Average lifespan","Energy savings","",""
"","","","","","rating_trial_setup","html-keyboard-response","59","726003","0.0-3.0-0.28","46","1","2025-04-11 14:14:01","bb671e3ae32f654b8954ea4c4635f915","","Mozilla/5.0 (Windows NT 10.0; Win64; x64) AppleWebKit/537.36 (KHTML, like Gecko) Chrome/129.0.0.0 Safari/537.36","WebKit","Chrome","129.0.0.0","Windows","10.0","https://hz8g1ckzuq.cognition.run/","en,en-US","ewgltuclg2n2k3m","45","[""Black or African-American""]","No","Male","1141150.8000000007","null","","<p></p>","null","rating","ctd","repulsion_2","2","televisions","null","null","null","null","null","null","1","","","","","","","","","",""
"","","","","","rating_trial","survey-html-form","60","738522","0.0-3.0-1.28","46","1","2025-04-11 14:14:01","bb671e3ae32f654b8954ea4c4635f915","","Mozilla/5.0 (Windows NT 10.0; Win64; x64) AppleWebKit/537.36 (KHTML, like Gecko) Chrome/129.0.0.0 Safari/537.36","WebKit","Chrome","129.0.0.0","Windows","10.0","https://hz8g1ckzuq.cognition.run/","en,en-US","ewgltuclg2n2k3m","45","[""Black or African-American""]","No","Male","1141150.8000000007","12511","","","{""price_1"":""50"",""price_2"":""40"",""price_3"":""10""}","rating","ctd","repulsion_2","2","televisions","null","null","null","null","null","null","1","30","40","20","100","90","100","Screen size","Average lifespan","",""
"","","","","","rating_trial_setup","html-keyboard-response","61","738835","0.0-3.0-0.29","46","1","2025-04-11 14:14:01","bb671e3ae32f654b8954ea4c4635f915","","Mozilla/5.0 (Windows NT 10.0; Win64; x64) AppleWebKit/537.36 (KHTML, like Gecko) Chrome/129.0.0.0 Safari/537.36","WebKit","Chrome","129.0.0.0","Windows","10.0","https://hz8g1ckzuq.cognition.run/","en,en-US","ewgltuclg2n2k3m","45","[""Black or African-American""]","No","Male","1141150.8000000007","null","","<p></p>","null","rating","cdt","repulsion_2","1","laptops","null","null","null","null","null","null","2","","","","","","","","","",""
"","","","","","rating_trial","survey-html-form","62","750098","0.0-3.0-1.29","46","1","2025-04-11 14:14:01","bb671e3ae32f654b8954ea4c4635f915","","Mozilla/5.0 (Windows NT 10.0; Win64; x64) AppleWebKit/537.36 (KHTML, like Gecko) Chrome/129.0.0.0 Safari/537.36","WebKit","Chrome","129.0.0.0","Windows","10.0","https://hz8g1ckzuq.cognition.run/","en,en-US","ewgltuclg2n2k3m","45","[""Black or African-American""]","No","Male","1141150.8000000007","11256","","","{""price_1"":""30"",""price_2"":""10"",""price_3"":""60""}","rating","cdt","repulsion_2","1","laptops","null","null","null","null","null","null","2","100","90","100","30","40","20","Processing speed","Memory (RAM)","",""
"","","","","","rating_trial_setup","html-keyboard-response","63","750403","0.0-3.0-0.30","46","1","2025-04-11 14:14:01","bb671e3ae32f654b8954ea4c4635f915","","Mozilla/5.0 (Windows NT 10.0; Win64; x64) AppleWebKit/537.36 (KHTML, like Gecko) Chrome/129.0.0.0 Safari/537.36","WebKit","Chrome","129.0.0.0","Windows","10.0","https://hz8g1ckzuq.cognition.run/","en,en-US","ewgltuclg2n2k3m","45","[""Black or African-American""]","No","Male","1141150.8000000007","null","","<p></p>","null","rating","tdc","attraction_2","1","washing machines","null","null","null","null","null","null","2","","","","","","","","","",""
"","","","","","rating_trial","survey-html-form","64","774210","0.0-3.0-1.30","46","1","2025-04-11 14:14:01","bb671e3ae32f654b8954ea4c4635f915","","Mozilla/5.0 (Windows NT 10.0; Win64; x64) AppleWebKit/537.36 (KHTML, like Gecko) Chrome/129.0.0.0 Safari/537.36","WebKit","Chrome","129.0.0.0","Windows","10.0","https://hz8g1ckzuq.cognition.run/","en,en-US","ewgltuclg2n2k3m","45","[""Black or African-American""]","No","Male","1141150.8000000007","23799","","","{""price_1"":""60"",""price_2"":""20"",""price_3"":""20""}","rating","tdc","attraction_2","1","washing machines","null","null","null","null","null","null","2","60","50","60","50","60","40","Average lifespan","Energy savings","",""
"","","","","","rating_trial_setup","html-keyboard-response","65","774515","0.0-3.0-0.31","46","1","2025-04-11 14:14:01","bb671e3ae32f654b8954ea4c4635f915","","Mozilla/5.0 (Windows NT 10.0; Win64; x64) AppleWebKit/537.36 (KHTML, like Gecko) Chrome/129.0.0.0 Safari/537.36","WebKit","Chrome","129.0.0.0","Windows","10.0","https://hz8g1ckzuq.cognition.run/","en,en-US","ewgltuclg2n2k3m","45","[""Black or African-American""]","No","Male","1141150.8000000007","null","","<p></p>","null","rating","tdc","attraction_2","1","laptops","null","null","null","null","null","null","2","","","","","","","","","",""
"","","","","","rating_trial","survey-html-form","66","787202","0.0-3.0-1.31","46","1","2025-04-11 14:14:01","bb671e3ae32f654b8954ea4c4635f915","","Mozilla/5.0 (Windows NT 10.0; Win64; x64) AppleWebKit/537.36 (KHTML, like Gecko) Chrome/129.0.0.0 Safari/537.36","WebKit","Chrome","129.0.0.0","Windows","10.0","https://hz8g1ckzuq.cognition.run/","en,en-US","ewgltuclg2n2k3m","45","[""Black or African-American""]","No","Male","1141150.8000000007","12679","","","{""price_1"":""30"",""price_2"":""20"",""price_3"":""50""}","rating","tdc","attraction_2","1","laptops","null","null","null","null","null","null","2","60","50","60","50","60","40","Processing speed","Memory (RAM)","",""
"","","","","","rating_trial_setup","html-keyboard-response","67","787507","0.0-3.0-0.32","46","1","2025-04-11 14:14:01","bb671e3ae32f654b8954ea4c4635f915","","Mozilla/5.0 (Windows NT 10.0; Win64; x64) AppleWebKit/537.36 (KHTML, like Gecko) Chrome/129.0.0.0 Safari/537.36","WebKit","Chrome","129.0.0.0","Windows","10.0","https://hz8g1ckzuq.cognition.run/","en,en-US","ewgltuclg2n2k3m","45","[""Black or African-American""]","No","Male","1141150.8000000007","null","","<p></p>","null","rating","ctd","repulsion_2","2","washing machines","null","null","null","null","null","null","1","","","","","","","","","",""
"","","","","","rating_trial","survey-html-form","68","797106","0.0-3.0-1.32","46","1","2025-04-11 14:14:01","bb671e3ae32f654b8954ea4c4635f915","","Mozilla/5.0 (Windows NT 10.0; Win64; x64) AppleWebKit/537.36 (KHTML, like Gecko) Chrome/129.0.0.0 Safari/537.36","WebKit","Chrome","129.0.0.0","Windows","10.0","https://hz8g1ckzuq.cognition.run/","en,en-US","ewgltuclg2n2k3m","45","[""Black or African-American""]","No","Male","1141150.8000000007","9591","","","{""price_1"":""50"",""price_2"":""10"",""price_3"":""40""}","rating","ctd","repulsion_2","2","washing machines","null","null","null","null","null","null","1","30","40","20","100","90","100","Average lifespan","Energy savings","",""
"","","","","","rating_trial_setup","html-keyboard-response","69","797411","0.0-3.0-0.33","46","1","2025-04-11 14:14:01","bb671e3ae32f654b8954ea4c4635f915","","Mozilla/5.0 (Windows NT 10.0; Win64; x64) AppleWebKit/537.36 (KHTML, like Gecko) Chrome/129.0.0.0 Safari/537.36","WebKit","Chrome","129.0.0.0","Windows","10.0","https://hz8g1ckzuq.cognition.run/","en,en-US","ewgltuclg2n2k3m","45","[""Black or African-American""]","No","Male","1141150.8000000007","null","","<p></p>","null","rating","ctd","attraction_1","1","washing machines","null","null","null","null","null","null","1","","","","","","","","","",""
"","","","","","rating_trial","survey-html-form","70","805970","0.0-3.0-1.33","46","1","2025-04-11 14:14:01","bb671e3ae32f654b8954ea4c4635f915","","Mozilla/5.0 (Windows NT 10.0; Win64; x64) AppleWebKit/537.36 (KHTML, like Gecko) Chrome/129.0.0.0 Safari/537.36","WebKit","Chrome","129.0.0.0","Windows","10.0","https://hz8g1ckzuq.cognition.run/","en,en-US","ewgltuclg2n2k3m","45","[""Black or African-American""]","No","Male","1141150.8000000007","8550","","","{""price_1"":""80"",""price_2"":""10"",""price_3"":""10""}","rating","ctd","attraction_1","1","washing machines","null","null","null","null","null","null","1","60","50","60","50","60","45","Average lifespan","Energy savings","",""
"","","","","","rating_trial_setup","html-keyboard-response","71","806283","0.0-3.0-0.34","46","1","2025-04-11 14:14:01","bb671e3ae32f654b8954ea4c4635f915","","Mozilla/5.0 (Windows NT 10.0; Win64; x64) AppleWebKit/537.36 (KHTML, like Gecko) Chrome/129.0.0.0 Safari/537.36","WebKit","Chrome","129.0.0.0","Windows","10.0","https://hz8g1ckzuq.cognition.run/","en,en-US","ewgltuclg2n2k3m","45","[""Black or African-American""]","No","Male","1141150.8000000007","null","","<p></p>","null","rating","cdt","repulsion_2","1","washing machines","null","null","null","null","null","null","1","","","","","","","","","",""
"","","","","","rating_trial","survey-html-form","72","816290","0.0-3.0-1.34","46","1","2025-04-11 14:14:01","bb671e3ae32f654b8954ea4c4635f915","","Mozilla/5.0 (Windows NT 10.0; Win64; x64) AppleWebKit/537.36 (KHTML, like Gecko) Chrome/129.0.0.0 Safari/537.36","WebKit","Chrome","129.0.0.0","Windows","10.0","https://hz8g1ckzuq.cognition.run/","en,en-US","ewgltuclg2n2k3m","45","[""Black or African-American""]","No","Male","1141150.8000000007","9998","","","{""price_1"":""50"",""price_2"":""10"",""price_3"":""40""}","rating","cdt","repulsion_2","1","washing machines","null","null","null","null","null","null","1","100","90","100","30","40","20","Average lifespan","Energy savings","",""
"","","","","","rating_trial_setup","html-keyboard-response","73","816595","0.0-3.0-0.35","46","1","2025-04-11 14:14:01","bb671e3ae32f654b8954ea4c4635f915","","Mozilla/5.0 (Windows NT 10.0; Win64; x64) AppleWebKit/537.36 (KHTML, like Gecko) Chrome/129.0.0.0 Safari/537.36","WebKit","Chrome","129.0.0.0","Windows","10.0","https://hz8g1ckzuq.cognition.run/","en,en-US","ewgltuclg2n2k3m","45","[""Black or African-American""]","No","Male","1141150.8000000007","null","","<p></p>","null","rating","tdc","repulsion_1","2","televisions","null","null","null","null","null","null","1","","","","","","","","","",""
"","","","","","rating_trial","survey-html-form","74","827226","0.0-3.0-1.35","46","1","2025-04-11 14:14:01","bb671e3ae32f654b8954ea4c4635f915","","Mozilla/5.0 (Windows NT 10.0; Win64; x64) AppleWebKit/537.36 (KHTML, like Gecko) Chrome/129.0.0.0 Safari/537.36","WebKit","Chrome","129.0.0.0","Windows","10.0","https://hz8g1ckzuq.cognition.run/","en,en-US","ewgltuclg2n2k3m","45","[""Black or African-American""]","No","Male","1141150.8000000007","10622","","","{""price_1"":""50"",""price_2"":""30"",""price_3"":""20""}","rating","tdc","repulsion_1","2","televisions","null","null","null","null","null","null","1","30","40","25","100","90","100","Screen size","Average lifespan","",""
"","","","","","rating_trial_setup","html-keyboard-response","75","827531","0.0-3.0-0.36","46","1","2025-04-11 14:14:01","bb671e3ae32f654b8954ea4c4635f915","","Mozilla/5.0 (Windows NT 10.0; Win64; x64) AppleWebKit/537.36 (KHTML, like Gecko) Chrome/129.0.0.0 Safari/537.36","WebKit","Chrome","129.0.0.0","Windows","10.0","https://hz8g1ckzuq.cognition.run/","en,en-US","ewgltuclg2n2k3m","45","[""Black or African-American""]","No","Male","1141150.8000000007","null","","<p></p>","null","rating","tdc","attraction_1","1","laptops","null","null","null","null","null","null","2","","","","","","","","","",""
"","","","","","rating_trial","survey-html-form","76","836618","0.0-3.0-1.36","46","1","2025-04-11 14:14:01","bb671e3ae32f654b8954ea4c4635f915","","Mozilla/5.0 (Windows NT 10.0; Win64; x64) AppleWebKit/537.36 (KHTML, like Gecko) Chrome/129.0.0.0 Safari/537.36","WebKit","Chrome","129.0.0.0","Windows","10.0","https://hz8g1ckzuq.cognition.run/","en,en-US","ewgltuclg2n2k3m","45","[""Black or African-American""]","No","Male","1141150.8000000007","9078","","","{""price_1"":""30"",""price_2"":""30"",""price_3"":""40""}","rating","tdc","attraction_1","1","laptops","null","null","null","null","null","null","2","60","50","60","50","60","45","Processing speed","Memory (RAM)","",""
"","","","","","rating_trial_setup","html-keyboard-response","77","836927","0.0-3.0-0.37","46","1","2025-04-11 14:14:01","bb671e3ae32f654b8954ea4c4635f915","","Mozilla/5.0 (Windows NT 10.0; Win64; x64) AppleWebKit/537.36 (KHTML, like Gecko) Chrome/129.0.0.0 Safari/537.36","WebKit","Chrome","129.0.0.0","Windows","10.0","https://hz8g1ckzuq.cognition.run/","en,en-US","ewgltuclg2n2k3m","45","[""Black or African-American""]","No","Male","1141150.8000000007","null","","<p></p>","null","rating","tdc","repulsion_1","2","laptops","null","null","null","null","null","null","1","","","","","","","","","",""
"","","","","","rating_trial","survey-html-form","78","846819","0.0-3.0-1.37","46","1","2025-04-11 14:14:01","bb671e3ae32f654b8954ea4c4635f915","","Mozilla/5.0 (Windows NT 10.0; Win64; x64) AppleWebKit/537.36 (KHTML, like Gecko) Chrome/129.0.0.0 Safari/537.36","WebKit","Chrome","129.0.0.0","Windows","10.0","https://hz8g1ckzuq.cognition.run/","en,en-US","ewgltuclg2n2k3m","45","[""Black or African-American""]","No","Male","1141150.8000000007","9883","","","{""price_1"":""70"",""price_2"":""10"",""price_3"":""20""}","rating","tdc","repulsion_1","2","laptops","null","null","null","null","null","null","1","30","40","25","100","90","100","Processing speed","Memory (RAM)","",""
"","","","","","rating_trial_setup","html-keyboard-response","79","847131","0.0-3.0-0.38","46","1","2025-04-11 14:14:01","bb671e3ae32f654b8954ea4c4635f915","","Mozilla/5.0 (Windows NT 10.0; Win64; x64) AppleWebKit/537.36 (KHTML, like Gecko) Chrome/129.0.0.0 Safari/537.36","WebKit","Chrome","129.0.0.0","Windows","10.0","https://hz8g1ckzuq.cognition.run/","en,en-US","ewgltuclg2n2k3m","45","[""Black or African-American""]","No","Male","1141150.8000000007","null","","<p></p>","null","rating","dct","attraction_1","1","microwave ovens","null","null","null","null","null","null","2","","","","","","","","","",""
"","","","","","rating_trial","survey-html-form","80","859698","0.0-3.0-1.38","46","1","2025-04-11 14:14:01","bb671e3ae32f654b8954ea4c4635f915","","Mozilla/5.0 (Windows NT 10.0; Win64; x64) AppleWebKit/537.36 (KHTML, like Gecko) Chrome/129.0.0.0 Safari/537.36","WebKit","Chrome","129.0.0.0","Windows","10.0","https://hz8g1ckzuq.cognition.run/","en,en-US","ewgltuclg2n2k3m","45","[""Black or African-American""]","No","Male","1141150.8000000007","12558","","","{""price_1"":""40"",""price_2"":""10"",""price_3"":""50""}","rating","dct","attraction_1","1","microwave ovens","null","null","null","null","null","null","2","60","50","60","50","60","45","Warranty","Cooking power","",""
"","","","","","rating_trial_setup","html-keyboard-response","81","860003","0.0-3.0-0.39","46","1","2025-04-11 14:14:01","bb671e3ae32f654b8954ea4c4635f915","","Mozilla/5.0 (Windows NT 10.0; Win64; x64) AppleWebKit/537.36 (KHTML, like Gecko) Chrome/129.0.0.0 Safari/537.36","WebKit","Chrome","129.0.0.0","Windows","10.0","https://hz8g1ckzuq.cognition.run/","en,en-US","ewgltuclg2n2k3m","45","[""Black or African-American""]","No","Male","1141150.8000000007","null","","<p></p>","null","rating","wwb","catch","null","microwave ovens","95","95","5","20","30","15","1","","","","","","","","","",""
"","","","","","rating_trial","survey-html-form","82","870970","0.0-3.0-1.39","46","1","2025-04-11 14:14:01","bb671e3ae32f654b8954ea4c4635f915","","Mozilla/5.0 (Windows NT 10.0; Win64; x64) AppleWebKit/537.36 (KHTML, like Gecko) Chrome/129.0.0.0 Safari/537.36","WebKit","Chrome","129.0.0.0","Windows","10.0","https://hz8g1ckzuq.cognition.run/","en,en-US","ewgltuclg2n2k3m","45","[""Black or African-American""]","No","Male","1141150.8000000007","10958","","","{""price_1"":""50"",""price_2"":""40"",""price_3"":""10""}","rating","wwb","catch","null","microwave ovens","95","95","5","20","30","15","1","null","null","null","null","null","null","Warranty","Cooking power","",""
"","","","","","","instructions","83","917154","0.0-4.0","46","1","2025-04-11 14:14:01","bb671e3ae32f654b8954ea4c4635f915","","Mozilla/5.0 (Windows NT 10.0; Win64; x64) AppleWebKit/537.36 (KHTML, like Gecko) Chrome/129.0.0.0 Safari/537.36","WebKit","Chrome","129.0.0.0","Windows","10.0","https://hz8g1ckzuq.cognition.run/","en,en-US","ewgltuclg2n2k3m","45","[""Black or African-American""]","No","Male","1141150.8000000007","46180","[{""page_index"":0,""viewing_time"":2419},{""page_index"":1,""viewing_time"":1360},{""page_index"":2,""viewing_time"":2288},{""page_index"":3,""viewing_time"":6184},{""page_index"":4,""viewing_time"":6400},{""page_index"":5,""viewing_time"":3352},{""page_index"":6,""viewing_time"":15384},{""page_index"":7,""viewing_time"":8792}]","","","","","","","","","","","","","","","","","","","","","","","",""
"","","","","","choice_trial_setup","html-keyboard-response","84","917474","0.0-5.0-0.0","46","1","2025-04-11 14:14:01","bb671e3ae32f654b8954ea4c4635f915","","Mozilla/5.0 (Windows NT 10.0; Win64; x64) AppleWebKit/537.36 (KHTML, like Gecko) Chrome/129.0.0.0 Safari/537.36","WebKit","Chrome","129.0.0.0","Windows","10.0","https://hz8g1ckzuq.cognition.run/","en,en-US","ewgltuclg2n2k3m","45","[""Black or African-American""]","No","Male","1141150.8000000007","null","","<p></p>","null","choice","ctd","attraction_1","1","televisions","null","null","null","null","null","null","1","","","","","","","","","",""
"","","","","","choice_trial","survey-html-form","85","924886","0.0-5.0-1.0","46","1","2025-04-11 14:14:01","bb671e3ae32f654b8954ea4c4635f915","","Mozilla/5.0 (Windows NT 10.0; Win64; x64) AppleWebKit/537.36 (KHTML, like Gecko) Chrome/129.0.0.0 Safari/537.36","WebKit","Chrome","129.0.0.0","Windows","10.0","https://hz8g1ckzuq.cognition.run/","en,en-US","ewgltuclg2n2k3m","45","[""Black or African-American""]","No","Male","1141150.8000000007","7406","","","{""product_choice"":""A""}","choice","ctd","attraction_1","1","televisions","null","null","null","null","null","null","1","60","50","60","50","60","45","Screen size","Average lifespan","",""
"","","","","","choice_trial_setup","html-keyboard-response","86","925190","0.0-5.0-0.1","46","1","2025-04-11 14:14:01","bb671e3ae32f654b8954ea4c4635f915","","Mozilla/5.0 (Windows NT 10.0; Win64; x64) AppleWebKit/537.36 (KHTML, like Gecko) Chrome/129.0.0.0 Safari/537.36","WebKit","Chrome","129.0.0.0","Windows","10.0","https://hz8g1ckzuq.cognition.run/","en,en-US","ewgltuclg2n2k3m","45","[""Black or African-American""]","No","Male","1141150.8000000007","null","","<p></p>","null","choice","ctd","attraction_1","2","laptops","null","null","null","null","null","null","2","","","","","","","","","",""
"","","","","","choice_trial","survey-html-form","87","929373","0.0-5.0-1.1","46","1","2025-04-11 14:14:01","bb671e3ae32f654b8954ea4c4635f915","","Mozilla/5.0 (Windows NT 10.0; Win64; x64) AppleWebKit/537.36 (KHTML, like Gecko) Chrome/129.0.0.0 Safari/537.36","WebKit","Chrome","129.0.0.0","Windows","10.0","https://hz8g1ckzuq.cognition.run/","en,en-US","ewgltuclg2n2k3m","45","[""Black or African-American""]","No","Male","1141150.8000000007","4172","","","{""product_choice"":""B""}","choice","ctd","attraction_1","2","laptops","null","null","null","null","null","null","2","50","60","45","60","50","60","Processing speed","Memory (RAM)","",""
"","","","","","choice_trial_setup","html-keyboard-response","88","929679","0.0-5.0-0.2","46","1","2025-04-11 14:14:01","bb671e3ae32f654b8954ea4c4635f915","","Mozilla/5.0 (Windows NT 10.0; Win64; x64) AppleWebKit/537.36 (KHTML, like Gecko) Chrome/129.0.0.0 Safari/537.36","WebKit","Chrome","129.0.0.0","Windows","10.0","https://hz8g1ckzuq.cognition.run/","en,en-US","ewgltuclg2n2k3m","45","[""Black or African-American""]","No","Male","1141150.8000000007","null","","<p></p>","null","choice","tdc","repulsion_1","1","laptops","null","null","null","null","null","null","2","","","","","","","","","",""
"","","","","","choice_trial","survey-html-form","89","932254","0.0-5.0-1.2","46","1","2025-04-11 14:14:01","bb671e3ae32f654b8954ea4c4635f915","","Mozilla/5.0 (Windows NT 10.0; Win64; x64) AppleWebKit/537.36 (KHTML, like Gecko) Chrome/129.0.0.0 Safari/537.36","WebKit","Chrome","129.0.0.0","Windows","10.0","https://hz8g1ckzuq.cognition.run/","en,en-US","ewgltuclg2n2k3m","45","[""Black or African-American""]","No","Male","1141150.8000000007","2565","","","{""product_choice"":""C""}","choice","tdc","repulsion_1","1","laptops","null","null","null","null","null","null","2","100","90","100","30","40","25","Processing speed","Memory (RAM)","",""
"","","","","","choice_trial_setup","html-keyboard-response","90","932558","0.0-5.0-0.3","46","1","2025-04-11 14:14:01","bb671e3ae32f654b8954ea4c4635f915","","Mozilla/5.0 (Windows NT 10.0; Win64; x64) AppleWebKit/537.36 (KHTML, like Gecko) Chrome/129.0.0.0 Safari/537.36","WebKit","Chrome","129.0.0.0","Windows","10.0","https://hz8g1ckzuq.cognition.run/","en,en-US","ewgltuclg2n2k3m","45","[""Black or African-American""]","No","Male","1141150.8000000007","null","","<p></p>","null","choice","wwb","catch","null","washing machines","50","85","45","50","40","10","2","","","","","","","","","",""
"","","","","","choice_trial","survey-html-form","91","937062","0.0-5.0-1.3","46","1","2025-04-11 14:14:01","bb671e3ae32f654b8954ea4c4635f915","","Mozilla/5.0 (Windows NT 10.0; Win64; x64) AppleWebKit/537.36 (KHTML, like Gecko) Chrome/129.0.0.0 Safari/537.36","WebKit","Chrome","129.0.0.0","Windows","10.0","https://hz8g1ckzuq.cognition.run/","en,en-US","ewgltuclg2n2k3m","45","[""Black or African-American""]","No","Male","1141150.8000000007","4491","","","{""product_choice"":""B""}","choice","wwb","catch","null","washing machines","50","85","45","50","40","10","2","null","null","null","null","null","null","Average lifespan","Energy savings","",""
"","","","","","choice_trial_setup","html-keyboard-response","92","937374","0.0-5.0-0.4","46","1","2025-04-11 14:14:01","bb671e3ae32f654b8954ea4c4635f915","","Mozilla/5.0 (Windows NT 10.0; Win64; x64) AppleWebKit/537.36 (KHTML, like Gecko) Chrome/129.0.0.0 Safari/537.36","WebKit","Chrome","129.0.0.0","Windows","10.0","https://hz8g1ckzuq.cognition.run/","en,en-US","ewgltuclg2n2k3m","45","[""Black or African-American""]","No","Male","1141150.8000000007","null","","<p></p>","null","choice","tcd","attraction_2","1","laptops","null","null","null","null","null","null","1","","","","","","","","","",""
"","","","","","choice_trial","survey-html-form","93","939317","0.0-5.0-1.4","46","1","2025-04-11 14:14:01","bb671e3ae32f654b8954ea4c4635f915","","Mozilla/5.0 (Windows NT 10.0; Win64; x64) AppleWebKit/537.36 (KHTML, like Gecko) Chrome/129.0.0.0 Safari/537.36","WebKit","Chrome","129.0.0.0","Windows","10.0","https://hz8g1ckzuq.cognition.run/","en,en-US","ewgltuclg2n2k3m","45","[""Black or African-American""]","No","Male","1141150.8000000007","1933","","","{""product_choice"":""A""}","choice","tcd","attraction_2","1","laptops","null","null","null","null","null","null","1","60","50","60","50","60","40","Processing speed","Memory (RAM)","",""
"","","","","","choice_trial_setup","html-keyboard-response","94","939623","0.0-5.0-0.5","46","1","2025-04-11 14:14:01","bb671e3ae32f654b8954ea4c4635f915","","Mozilla/5.0 (Windows NT 10.0; Win64; x64) AppleWebKit/537.36 (KHTML, like Gecko) Chrome/129.0.0.0 Safari/537.36","WebKit","Chrome","129.0.0.0","Windows","10.0","https://hz8g1ckzuq.cognition.run/","en,en-US","ewgltuclg2n2k3m","45","[""Black or African-American""]","No","Male","1141150.8000000007","null","","<p></p>","null","choice","tcd","repulsion_2","2","laptops","null","null","null","null","null","null","1","","","","","","","","","",""
"","","","","","choice_trial","survey-html-form","95","942429","0.0-5.0-1.5","46","1","2025-04-11 14:14:01","bb671e3ae32f654b8954ea4c4635f915","","Mozilla/5.0 (Windows NT 10.0; Win64; x64) AppleWebKit/537.36 (KHTML, like Gecko) Chrome/129.0.0.0 Safari/537.36","WebKit","Chrome","129.0.0.0","Windows","10.0","https://hz8g1ckzuq.cognition.run/","en,en-US","ewgltuclg2n2k3m","45","[""Black or African-American""]","No","Male","1141150.8000000007","2796","","","{""product_choice"":""C""}","choice","tcd","repulsion_2","2","laptops","null","null","null","null","null","null","1","30","40","20","100","90","100","Processing speed","Memory (RAM)","",""
"","","","","","choice_trial_setup","html-keyboard-response","96","942734","0.0-5.0-0.6","46","1","2025-04-11 14:14:01","bb671e3ae32f654b8954ea4c4635f915","","Mozilla/5.0 (Windows NT 10.0; Win64; x64) AppleWebKit/537.36 (KHTML, like Gecko) Chrome/129.0.0.0 Safari/537.36","WebKit","Chrome","129.0.0.0","Windows","10.0","https://hz8g1ckzuq.cognition.run/","en,en-US","ewgltuclg2n2k3m","45","[""Black or African-American""]","No","Male","1141150.8000000007","null","","<p></p>","null","choice","dct","repulsion_1","2","laptops","null","null","null","null","null","null","1","","","","","","","","","",""
"","","","","","choice_trial","survey-html-form","97","946710","0.0-5.0-1.6","46","1","2025-04-11 14:14:01","bb671e3ae32f654b8954ea4c4635f915","","Mozilla/5.0 (Windows NT 10.0; Win64; x64) AppleWebKit/537.36 (KHTML, like Gecko) Chrome/129.0.0.0 Safari/537.36","WebKit","Chrome","129.0.0.0","Windows","10.0","https://hz8g1ckzuq.cognition.run/","en,en-US","ewgltuclg2n2k3m","45","[""Black or African-American""]","No","Male","1141150.8000000007","3964","","","{""product_choice"":""A""}","choice","dct","repulsion_1","2","laptops","null","null","null","null","null","null","1","30","40","25","100","90","100","Processing speed","Memory (RAM)","",""
"","","","","","choice_trial_setup","html-keyboard-response","98","947014","0.0-5.0-0.7","46","1","2025-04-11 14:14:01","bb671e3ae32f654b8954ea4c4635f915","","Mozilla/5.0 (Windows NT 10.0; Win64; x64) AppleWebKit/537.36 (KHTML, like Gecko) Chrome/129.0.0.0 Safari/537.36","WebKit","Chrome","129.0.0.0","Windows","10.0","https://hz8g1ckzuq.cognition.run/","en,en-US","ewgltuclg2n2k3m","45","[""Black or African-American""]","No","Male","1141150.8000000007","null","","<p></p>","null","choice","ctd","repulsion_2","1","televisions","null","null","null","null","null","null","2","","","","","","","","","",""
"","","","","","choice_trial","survey-html-form","99","950518","0.0-5.0-1.7","46","1","2025-04-11 14:14:01","bb671e3ae32f654b8954ea4c4635f915","","Mozilla/5.0 (Windows NT 10.0; Win64; x64) AppleWebKit/537.36 (KHTML, like Gecko) Chrome/129.0.0.0 Safari/537.36","WebKit","Chrome","129.0.0.0","Windows","10.0","https://hz8g1ckzuq.cognition.run/","en,en-US","ewgltuclg2n2k3m","45","[""Black or African-American""]","No","Male","1141150.8000000007","3494","","","{""product_choice"":""B""}","choice","ctd","repulsion_2","1","televisions","null","null","null","null","null","null","2","100","90","100","30","40","20","Screen size","Average lifespan","",""
"","","","","","choice_trial_setup","html-keyboard-response","100","950823","0.0-5.0-0.8","46","1","2025-04-11 14:14:01","bb671e3ae32f654b8954ea4c4635f915","","Mozilla/5.0 (Windows NT 10.0; Win64; x64) AppleWebKit/537.36 (KHTML, like Gecko) Chrome/129.0.0.0 Safari/537.36","WebKit","Chrome","129.0.0.0","Windows","10.0","https://hz8g1ckzuq.cognition.run/","en,en-US","ewgltuclg2n2k3m","45","[""Black or African-American""]","No","Male","1141150.8000000007","null","","<p></p>","null","choice","ctd","attraction_1","2","microwave ovens","null","null","null","null","null","null","1","","","","","","","","","",""
"","","","","","choice_trial","survey-html-form","101","954582","0.0-5.0-1.8","46","1","2025-04-11 14:14:01","bb671e3ae32f654b8954ea4c4635f915","","Mozilla/5.0 (Windows NT 10.0; Win64; x64) AppleWebKit/537.36 (KHTML, like Gecko) Chrome/129.0.0.0 Safari/537.36","WebKit","Chrome","129.0.0.0","Windows","10.0","https://hz8g1ckzuq.cognition.run/","en,en-US","ewgltuclg2n2k3m","45","[""Black or African-American""]","No","Male","1141150.8000000007","3748","","","{""product_choice"":""A""}","choice","ctd","attraction_1","2","microwave ovens","null","null","null","null","null","null","1","50","60","45","60","50","60","Warranty","Cooking power","",""
"","","","","","choice_trial_setup","html-keyboard-response","102","954887","0.0-5.0-0.9","46","1","2025-04-11 14:14:01","bb671e3ae32f654b8954ea4c4635f915","","Mozilla/5.0 (Windows NT 10.0; Win64; x64) AppleWebKit/537.36 (KHTML, like Gecko) Chrome/129.0.0.0 Safari/537.36","WebKit","Chrome","129.0.0.0","Windows","10.0","https://hz8g1ckzuq.cognition.run/","en,en-US","ewgltuclg2n2k3m","45","[""Black or African-American""]","No","Male","1141150.8000000007","null","","<p></p>","null","choice","dtc","attraction_1","1","laptops","null","null","null","null","null","null","1","","","","","","","","","",""
"","","","","","choice_trial","survey-html-form","103","958662","0.0-5.0-1.9","46","1","2025-04-11 14:14:01","bb671e3ae32f654b8954ea4c4635f915","","Mozilla/5.0 (Windows NT 10.0; Win64; x64) AppleWebKit/537.36 (KHTML, like Gecko) Chrome/129.0.0.0 Safari/537.36","WebKit","Chrome","129.0.0.0","Windows","10.0","https://hz8g1ckzuq.cognition.run/","en,en-US","ewgltuclg2n2k3m","45","[""Black or African-American""]","No","Male","1141150.8000000007","3760","","","{""product_choice"":""C""}","choice","dtc","attraction_1","1","laptops","null","null","null","null","null","null","1","60","50","60","50","60","45","Processing speed","Memory (RAM)","",""
"","","","","","choice_trial_setup","html-keyboard-response","104","958967","0.0-5.0-0.10","46","1","2025-04-11 14:14:01","bb671e3ae32f654b8954ea4c4635f915","","Mozilla/5.0 (Windows NT 10.0; Win64; x64) AppleWebKit/537.36 (KHTML, like Gecko) Chrome/129.0.0.0 Safari/537.36","WebKit","Chrome","129.0.0.0","Windows","10.0","https://hz8g1ckzuq.cognition.run/","en,en-US","ewgltuclg2n2k3m","45","[""Black or African-American""]","No","Male","1141150.8000000007","null","","<p></p>","null","choice","dct","attraction_2","2","televisions","null","null","null","null","null","null","2","","","","","","","","","",""
"","","","","","choice_trial","survey-html-form","105","961390","0.0-5.0-1.10","46","1","2025-04-11 14:14:01","bb671e3ae32f654b8954ea4c4635f915","","Mozilla/5.0 (Windows NT 10.0; Win64; x64) AppleWebKit/537.36 (KHTML, like Gecko) Chrome/129.0.0.0 Safari/537.36","WebKit","Chrome","129.0.0.0","Windows","10.0","https://hz8g1ckzuq.cognition.run/","en,en-US","ewgltuclg2n2k3m","45","[""Black or African-American""]","No","Male","1141150.8000000007","2412","","","{""product_choice"":""B""}","choice","dct","attraction_2","2","televisions","null","null","null","null","null","null","2","50","60","40","60","50","60","Screen size","Average lifespan","",""
"","","","","","choice_trial_setup","html-keyboard-response","106","961695","0.0-5.0-0.11","46","1","2025-04-11 14:14:01","bb671e3ae32f654b8954ea4c4635f915","","Mozilla/5.0 (Windows NT 10.0; Win64; x64) AppleWebKit/537.36 (KHTML, like Gecko) Chrome/129.0.0.0 Safari/537.36","WebKit","Chrome","129.0.0.0","Windows","10.0","https://hz8g1ckzuq.cognition.run/","en,en-US","ewgltuclg2n2k3m","45","[""Black or African-American""]","No","Male","1141150.8000000007","null","","<p></p>","null","choice","tdc","attraction_2","1","microwave ovens","null","null","null","null","null","null","2","","","","","","","","","",""
"","","","","","choice_trial","survey-html-form","107","965214","0.0-5.0-1.11","46","1","2025-04-11 14:14:01","bb671e3ae32f654b8954ea4c4635f915","","Mozilla/5.0 (Windows NT 10.0; Win64; x64) AppleWebKit/537.36 (KHTML, like Gecko) Chrome/129.0.0.0 Safari/537.36","WebKit","Chrome","129.0.0.0","Windows","10.0","https://hz8g1ckzuq.cognition.run/","en,en-US","ewgltuclg2n2k3m","45","[""Black or African-American""]","No","Male","1141150.8000000007","3508","","","{""product_choice"":""A""}","choice","tdc","attraction_2","1","microwave ovens","null","null","null","null","null","null","2","60","50","60","50","60","40","Warranty","Cooking power","",""
"","","","","","choice_trial_setup","html-keyboard-response","108","965527","0.0-5.0-0.12","46","1","2025-04-11 14:14:01","bb671e3ae32f654b8954ea4c4635f915","","Mozilla/5.0 (Windows NT 10.0; Win64; x64) AppleWebKit/537.36 (KHTML, like Gecko) Chrome/129.0.0.0 Safari/537.36","WebKit","Chrome","129.0.0.0","Windows","10.0","https://hz8g1ckzuq.cognition.run/","en,en-US","ewgltuclg2n2k3m","45","[""Black or African-American""]","No","Male","1141150.8000000007","null","","<p></p>","null","choice","cdt","attraction_1","2","washing machines","null","null","null","null","null","null","1","","","","","","","","","",""
"","","","","","choice_trial","survey-html-form","109","968630","0.0-5.0-1.12","46","1","2025-04-11 14:14:01","bb671e3ae32f654b8954ea4c4635f915","","Mozilla/5.0 (Windows NT 10.0; Win64; x64) AppleWebKit/537.36 (KHTML, like Gecko) Chrome/129.0.0.0 Safari/537.36","WebKit","Chrome","129.0.0.0","Windows","10.0","https://hz8g1ckzuq.cognition.run/","en,en-US","ewgltuclg2n2k3m","45","[""Black or African-American""]","No","Male","1141150.8000000007","3091","","","{""product_choice"":""B""}","choice","cdt","attraction_1","2","washing machines","null","null","null","null","null","null","1","50","60","45","60","50","60","Average lifespan","Energy savings","",""
"","","","","","choice_trial_setup","html-keyboard-response","110","968935","0.0-5.0-0.13","46","1","2025-04-11 14:14:01","bb671e3ae32f654b8954ea4c4635f915","","Mozilla/5.0 (Windows NT 10.0; Win64; x64) AppleWebKit/537.36 (KHTML, like Gecko) Chrome/129.0.0.0 Safari/537.36","WebKit","Chrome","129.0.0.0","Windows","10.0","https://hz8g1ckzuq.cognition.run/","en,en-US","ewgltuclg2n2k3m","45","[""Black or African-American""]","No","Male","1141150.8000000007","null","","<p></p>","null","choice","bww","catch","null","microwave ovens","75","85","35","15","10","50","2","","","","","","","","","",""
"","","","","","choice_trial","survey-html-form","111","972133","0.0-5.0-1.13","46","1","2025-04-11 14:14:01","bb671e3ae32f654b8954ea4c4635f915","","Mozilla/5.0 (Windows NT 10.0; Win64; x64) AppleWebKit/537.36 (KHTML, like Gecko) Chrome/129.0.0.0 Safari/537.36","WebKit","Chrome","129.0.0.0","Windows","10.0","https://hz8g1ckzuq.cognition.run/","en,en-US","ewgltuclg2n2k3m","45","[""Black or African-American""]","No","Male","1141150.8000000007","3186","","","{""product_choice"":""A""}","choice","bww","catch","null","microwave ovens","75","85","35","15","10","50","2","null","null","null","null","null","null","Warranty","Cooking power","",""
"","","","","","choice_trial_setup","html-keyboard-response","112","972439","0.0-5.0-0.14","46","1","2025-04-11 14:14:01","bb671e3ae32f654b8954ea4c4635f915","","Mozilla/5.0 (Windows NT 10.0; Win64; x64) AppleWebKit/537.36 (KHTML, like Gecko) Chrome/129.0.0.0 Safari/537.36","WebKit","Chrome","129.0.0.0","Windows","10.0","https://hz8g1ckzuq.cognition.run/","en,en-US","ewgltuclg2n2k3m","45","[""Black or African-American""]","No","Male","1141150.8000000007","null","","<p></p>","null","choice","wwb","catch","null","laptops","70","55","5","35","40","10","2","","","","","","","","","",""
"","","","","","choice_trial","survey-html-form","113","976398","0.0-5.0-1.14","46","1","2025-04-11 14:14:01","bb671e3ae32f654b8954ea4c4635f915","","Mozilla/5.0 (Windows NT 10.0; Win64; x64) AppleWebKit/537.36 (KHTML, like Gecko) Chrome/129.0.0.0 Safari/537.36","WebKit","Chrome","129.0.0.0","Windows","10.0","https://hz8g1ckzuq.cognition.run/","en,en-US","ewgltuclg2n2k3m","45","[""Black or African-American""]","No","Male","1141150.8000000007","3948","","","{""product_choice"":""C""}","choice","wwb","catch","null","laptops","70","55","5","35","40","10","2","null","null","null","null","null","null","Processing speed","Memory (RAM)","",""
"","","","","","choice_trial_setup","html-keyboard-response","114","976711","0.0-5.0-0.15","46","1","2025-04-11 14:14:01","bb671e3ae32f654b8954ea4c4635f915","","Mozilla/5.0 (Windows NT 10.0; Win64; x64) AppleWebKit/537.36 (KHTML, like Gecko) Chrome/129.0.0.0 Safari/537.36","WebKit","Chrome","129.0.0.0","Windows","10.0","https://hz8g1ckzuq.cognition.run/","en,en-US","ewgltuclg2n2k3m","45","[""Black or African-American""]","No","Male","1141150.8000000007","null","","<p></p>","null","choice","tcd","repulsion_1","1","televisions","null","null","null","null","null","null","2","","","","","","","","","",""
"","","","","","choice_trial","survey-html-form","115","979950","0.0-5.0-1.15","46","1","2025-04-11 14:14:01","bb671e3ae32f654b8954ea4c4635f915","","Mozilla/5.0 (Windows NT 10.0; Win64; x64) AppleWebKit/537.36 (KHTML, like Gecko) Chrome/129.0.0.0 Safari/537.36","WebKit","Chrome","129.0.0.0","Windows","10.0","https://hz8g1ckzuq.cognition.run/","en,en-US","ewgltuclg2n2k3m","45","[""Black or African-American""]","No","Male","1141150.8000000007","3223","","","{""product_choice"":""B""}","choice","tcd","repulsion_1","1","televisions","null","null","null","null","null","null","2","100","90","100","30","40","25","Screen size","Average lifespan","",""
"","","","","","choice_trial_setup","html-keyboard-response","116","980255","0.0-5.0-0.16","46","1","2025-04-11 14:14:01","bb671e3ae32f654b8954ea4c4635f915","","Mozilla/5.0 (Windows NT 10.0; Win64; x64) AppleWebKit/537.36 (KHTML, like Gecko) Chrome/129.0.0.0 Safari/537.36","WebKit","Chrome","129.0.0.0","Windows","10.0","https://hz8g1ckzuq.cognition.run/","en,en-US","ewgltuclg2n2k3m","45","[""Black or African-American""]","No","Male","1141150.8000000007","null","","<p></p>","null","choice","dtc","repulsion_2","1","laptops","null","null","null","null","null","null","1","","","","","","","","","",""
"","","","","","choice_trial","survey-html-form","117","983221","0.0-5.0-1.16","46","1","2025-04-11 14:14:01","bb671e3ae32f654b8954ea4c4635f915","","Mozilla/5.0 (Windows NT 10.0; Win64; x64) AppleWebKit/537.36 (KHTML, like Gecko) Chrome/129.0.0.0 Safari/537.36","WebKit","Chrome","129.0.0.0","Windows","10.0","https://hz8g1ckzuq.cognition.run/","en,en-US","ewgltuclg2n2k3m","45","[""Black or African-American""]","No","Male","1141150.8000000007","2955","","","{""product_choice"":""A""}","choice","dtc","repulsion_2","1","laptops","null","null","null","null","null","null","1","100","90","100","30","40","20","Processing speed","Memory (RAM)","",""
"","","","","","choice_trial_setup","html-keyboard-response","118","983526","0.0-5.0-0.17","46","1","2025-04-11 14:14:01","bb671e3ae32f654b8954ea4c4635f915","","Mozilla/5.0 (Windows NT 10.0; Win64; x64) AppleWebKit/537.36 (KHTML, like Gecko) Chrome/129.0.0.0 Safari/537.36","WebKit","Chrome","129.0.0.0","Windows","10.0","https://hz8g1ckzuq.cognition.run/","en,en-US","ewgltuclg2n2k3m","45","[""Black or African-American""]","No","Male","1141150.8000000007","null","","<p></p>","null","choice","wwb","catch","null","microwave ovens","95","90","40","40","50","30","2","","","","","","","","","",""
"","","","","","choice_trial","survey-html-form","119","986413","0.0-5.0-1.17","46","1","2025-04-11 14:14:01","bb671e3ae32f654b8954ea4c4635f915","","Mozilla/5.0 (Windows NT 10.0; Win64; x64) AppleWebKit/537.36 (KHTML, like Gecko) Chrome/129.0.0.0 Safari/537.36","WebKit","Chrome","129.0.0.0","Windows","10.0","https://hz8g1ckzuq.cognition.run/","en,en-US","ewgltuclg2n2k3m","45","[""Black or African-American""]","No","Male","1141150.8000000007","2874","","","{""product_choice"":""C""}","choice","wwb","catch","null","microwave ovens","95","90","40","40","50","30","2","null","null","null","null","null","null","Warranty","Cooking power","",""
"","","","","","choice_trial_setup","html-keyboard-response","120","986729","0.0-5.0-0.18","46","1","2025-04-11 14:14:01","bb671e3ae32f654b8954ea4c4635f915","","Mozilla/5.0 (Windows NT 10.0; Win64; x64) AppleWebKit/537.36 (KHTML, like Gecko) Chrome/129.0.0.0 Safari/537.36","WebKit","Chrome","129.0.0.0","Windows","10.0","https://hz8g1ckzuq.cognition.run/","en,en-US","ewgltuclg2n2k3m","45","[""Black or African-American""]","No","Male","1141150.8000000007","null","","<p></p>","null","choice","dct","repulsion_2","2","washing machines","null","null","null","null","null","null","2","","","","","","","","","",""
"","","","","","choice_trial","survey-html-form","121","989429","0.0-5.0-1.18","46","1","2025-04-11 14:14:01","bb671e3ae32f654b8954ea4c4635f915","","Mozilla/5.0 (Windows NT 10.0; Win64; x64) AppleWebKit/537.36 (KHTML, like Gecko) Chrome/129.0.0.0 Safari/537.36","WebKit","Chrome","129.0.0.0","Windows","10.0","https://hz8g1ckzuq.cognition.run/","en,en-US","ewgltuclg2n2k3m","45","[""Black or African-American""]","No","Male","1141150.8000000007","2687","","","{""product_choice"":""B""}","choice","dct","repulsion_2","2","washing machines","null","null","null","null","null","null","2","30","40","20","100","90","100","Average lifespan","Energy savings","",""
"","","","","","choice_trial_setup","html-keyboard-response","122","989742","0.0-5.0-0.19","46","1","2025-04-11 14:14:01","bb671e3ae32f654b8954ea4c4635f915","","Mozilla/5.0 (Windows NT 10.0; Win64; x64) AppleWebKit/537.36 (KHTML, like Gecko) Chrome/129.0.0.0 Safari/537.36","WebKit","Chrome","129.0.0.0","Windows","10.0","https://hz8g1ckzuq.cognition.run/","en,en-US","ewgltuclg2n2k3m","45","[""Black or African-American""]","No","Male","1141150.8000000007","null","","<p></p>","null","choice","cdt","repulsion_1","1","microwave ovens","null","null","null","null","null","null","1","","","","","","","","","",""
"","","","","","choice_trial","survey-html-form","123","993957","0.0-5.0-1.19","46","1","2025-04-11 14:14:01","bb671e3ae32f654b8954ea4c4635f915","","Mozilla/5.0 (Windows NT 10.0; Win64; x64) AppleWebKit/537.36 (KHTML, like Gecko) Chrome/129.0.0.0 Safari/537.36","WebKit","Chrome","129.0.0.0","Windows","10.0","https://hz8g1ckzuq.cognition.run/","en,en-US","ewgltuclg2n2k3m","45","[""Black or African-American""]","No","Male","1141150.8000000007","4202","","","{""product_choice"":""A""}","choice","cdt","repulsion_1","1","microwave ovens","null","null","null","null","null","null","1","100","90","100","30","40","25","Warranty","Cooking power","",""
"","","","","","choice_trial_setup","html-keyboard-response","124","994270","0.0-5.0-0.20","46","1","2025-04-11 14:14:01","bb671e3ae32f654b8954ea4c4635f915","","Mozilla/5.0 (Windows NT 10.0; Win64; x64) AppleWebKit/537.36 (KHTML, like Gecko) Chrome/129.0.0.0 Safari/537.36","WebKit","Chrome","129.0.0.0","Windows","10.0","https://hz8g1ckzuq.cognition.run/","en,en-US","ewgltuclg2n2k3m","45","[""Black or African-American""]","No","Male","1141150.8000000007","null","","<p></p>","null","choice","tcd","repulsion_2","1","washing machines","null","null","null","null","null","null","1","","","","","","","","","",""
"","","","","","choice_trial","survey-html-form","125","997205","0.0-5.0-1.20","46","1","2025-04-11 14:14:01","bb671e3ae32f654b8954ea4c4635f915","","Mozilla/5.0 (Windows NT 10.0; Win64; x64) AppleWebKit/537.36 (KHTML, like Gecko) Chrome/129.0.0.0 Safari/537.36","WebKit","Chrome","129.0.0.0","Windows","10.0","https://hz8g1ckzuq.cognition.run/","en,en-US","ewgltuclg2n2k3m","45","[""Black or African-American""]","No","Male","1141150.8000000007","2922","","","{""product_choice"":""B""}","choice","tcd","repulsion_2","1","washing machines","null","null","null","null","null","null","1","100","90","100","30","40","20","Average lifespan","Energy savings","",""
"","","","","","choice_trial_setup","html-keyboard-response","126","997517","0.0-5.0-0.21","46","1","2025-04-11 14:14:01","bb671e3ae32f654b8954ea4c4635f915","","Mozilla/5.0 (Windows NT 10.0; Win64; x64) AppleWebKit/537.36 (KHTML, like Gecko) Chrome/129.0.0.0 Safari/537.36","WebKit","Chrome","129.0.0.0","Windows","10.0","https://hz8g1ckzuq.cognition.run/","en,en-US","ewgltuclg2n2k3m","45","[""Black or African-American""]","No","Male","1141150.8000000007","null","","<p></p>","null","choice","cdt","repulsion_2","2","televisions","null","null","null","null","null","null","2","","","","","","","","","",""
"","","","","","choice_trial","survey-html-form","127","1000261","0.0-5.0-1.21","46","1","2025-04-11 14:14:01","bb671e3ae32f654b8954ea4c4635f915","","Mozilla/5.0 (Windows NT 10.0; Win64; x64) AppleWebKit/537.36 (KHTML, like Gecko) Chrome/129.0.0.0 Safari/537.36","WebKit","Chrome","129.0.0.0","Windows","10.0","https://hz8g1ckzuq.cognition.run/","en,en-US","ewgltuclg2n2k3m","45","[""Black or African-American""]","No","Male","1141150.8000000007","2729","","","{""product_choice"":""C""}","choice","cdt","repulsion_2","2","televisions","null","null","null","null","null","null","2","30","40","20","100","90","100","Screen size","Average lifespan","",""
"","","","","","choice_trial_setup","html-keyboard-response","128","1000566","0.0-5.0-0.22","46","1","2025-04-11 14:14:01","bb671e3ae32f654b8954ea4c4635f915","","Mozilla/5.0 (Windows NT 10.0; Win64; x64) AppleWebKit/537.36 (KHTML, like Gecko) Chrome/129.0.0.0 Safari/537.36","WebKit","Chrome","129.0.0.0","Windows","10.0","https://hz8g1ckzuq.cognition.run/","en,en-US","ewgltuclg2n2k3m","45","[""Black or African-American""]","No","Male","1141150.8000000007","null","","<p></p>","null","choice","dtc","repulsion_1","2","washing machines","null","null","null","null","null","null","2","","","","","","","","","",""
"","","","","","choice_trial","survey-html-form","129","1002573","0.0-5.0-1.22","46","1","2025-04-11 14:14:01","bb671e3ae32f654b8954ea4c4635f915","","Mozilla/5.0 (Windows NT 10.0; Win64; x64) AppleWebKit/537.36 (KHTML, like Gecko) Chrome/129.0.0.0 Safari/537.36","WebKit","Chrome","129.0.0.0","Windows","10.0","https://hz8g1ckzuq.cognition.run/","en,en-US","ewgltuclg2n2k3m","45","[""Black or African-American""]","No","Male","1141150.8000000007","1993","","","{""product_choice"":""B""}","choice","dtc","repulsion_1","2","washing machines","null","null","null","null","null","null","2","30","40","25","100","90","100","Average lifespan","Energy savings","",""
"","","","","","choice_trial_setup","html-keyboard-response","130","1002878","0.0-5.0-0.23","46","1","2025-04-11 14:14:01","bb671e3ae32f654b8954ea4c4635f915","","Mozilla/5.0 (Windows NT 10.0; Win64; x64) AppleWebKit/537.36 (KHTML, like Gecko) Chrome/129.0.0.0 Safari/537.36","WebKit","Chrome","129.0.0.0","Windows","10.0","https://hz8g1ckzuq.cognition.run/","en,en-US","ewgltuclg2n2k3m","45","[""Black or African-American""]","No","Male","1141150.8000000007","null","","<p></p>","null","choice","ctd","repulsion_1","1","washing machines","null","null","null","null","null","null","1","","","","","","","","","",""
"","","","","","choice_trial","survey-html-form","131","1006573","0.0-5.0-1.23","46","1","2025-04-11 14:14:01","bb671e3ae32f654b8954ea4c4635f915","","Mozilla/5.0 (Windows NT 10.0; Win64; x64) AppleWebKit/537.36 (KHTML, like Gecko) Chrome/129.0.0.0 Safari/537.36","WebKit","Chrome","129.0.0.0","Windows","10.0","https://hz8g1ckzuq.cognition.run/","en,en-US","ewgltuclg2n2k3m","45","[""Black or African-American""]","No","Male","1141150.8000000007","3681","","","{""product_choice"":""A""}","choice","ctd","repulsion_1","1","washing machines","null","null","null","null","null","null","1","100","90","100","30","40","25","Average lifespan","Energy savings","",""
"","","","","","choice_trial_setup","html-keyboard-response","132","1006892","0.0-5.0-0.24","46","1","2025-04-11 14:14:01","bb671e3ae32f654b8954ea4c4635f915","","Mozilla/5.0 (Windows NT 10.0; Win64; x64) AppleWebKit/537.36 (KHTML, like Gecko) Chrome/129.0.0.0 Safari/537.36","WebKit","Chrome","129.0.0.0","Windows","10.0","https://hz8g1ckzuq.cognition.run/","en,en-US","ewgltuclg2n2k3m","45","[""Black or African-American""]","No","Male","1141150.8000000007","null","","<p></p>","null","choice","wwb","catch","null","laptops","60","75","40","5","15","30","1","","","","","","","","","",""
"","","","","","choice_trial","survey-html-form","133","1009637","0.0-5.0-1.24","46","1","2025-04-11 14:14:01","bb671e3ae32f654b8954ea4c4635f915","","Mozilla/5.0 (Windows NT 10.0; Win64; x64) AppleWebKit/537.36 (KHTML, like Gecko) Chrome/129.0.0.0 Safari/537.36","WebKit","Chrome","129.0.0.0","Windows","10.0","https://hz8g1ckzuq.cognition.run/","en,en-US","ewgltuclg2n2k3m","45","[""Black or African-American""]","No","Male","1141150.8000000007","2731","","","{""product_choice"":""B""}","choice","wwb","catch","null","laptops","60","75","40","5","15","30","1","null","null","null","null","null","null","Processing speed","Memory (RAM)","",""
"","","","","","choice_trial_setup","html-keyboard-response","134","1009946","0.0-5.0-0.25","46","1","2025-04-11 14:14:01","bb671e3ae32f654b8954ea4c4635f915","","Mozilla/5.0 (Windows NT 10.0; Win64; x64) AppleWebKit/537.36 (KHTML, like Gecko) Chrome/129.0.0.0 Safari/537.36","WebKit","Chrome","129.0.0.0","Windows","10.0","https://hz8g1ckzuq.cognition.run/","en,en-US","ewgltuclg2n2k3m","45","[""Black or African-American""]","No","Male","1141150.8000000007","null","","<p></p>","null","choice","tcd","repulsion_2","1","microwave ovens","null","null","null","null","null","null","2","","","","","","","","","",""
"","","","","","choice_trial","survey-html-form","135","1012414","0.0-5.0-1.25","46","1","2025-04-11 14:14:01","bb671e3ae32f654b8954ea4c4635f915","","Mozilla/5.0 (Windows NT 10.0; Win64; x64) AppleWebKit/537.36 (KHTML, like Gecko) Chrome/129.0.0.0 Safari/537.36","WebKit","Chrome","129.0.0.0","Windows","10.0","https://hz8g1ckzuq.cognition.run/","en,en-US","ewgltuclg2n2k3m","45","[""Black or African-American""]","No","Male","1141150.8000000007","2454","","","{""product_choice"":""C""}","choice","tcd","repulsion_2","1","microwave ovens","null","null","null","null","null","null","2","100","90","100","30","40","20","Warranty","Cooking power","",""
"","","","","","choice_trial_setup","html-keyboard-response","136","1012726","0.0-5.0-0.26","46","1","2025-04-11 14:14:01","bb671e3ae32f654b8954ea4c4635f915","","Mozilla/5.0 (Windows NT 10.0; Win64; x64) AppleWebKit/537.36 (KHTML, like Gecko) Chrome/129.0.0.0 Safari/537.36","WebKit","Chrome","129.0.0.0","Windows","10.0","https://hz8g1ckzuq.cognition.run/","en,en-US","ewgltuclg2n2k3m","45","[""Black or African-American""]","No","Male","1141150.8000000007","null","","<p></p>","null","choice","ctd","attraction_2","2","microwave ovens","null","null","null","null","null","null","2","","","","","","","","","",""
"","","","","","choice_trial","survey-html-form","137","1016797","0.0-5.0-1.26","46","1","2025-04-11 14:14:01","bb671e3ae32f654b8954ea4c4635f915","","Mozilla/5.0 (Windows NT 10.0; Win64; x64) AppleWebKit/537.36 (KHTML, like Gecko) Chrome/129.0.0.0 Safari/537.36","WebKit","Chrome","129.0.0.0","Windows","10.0","https://hz8g1ckzuq.cognition.run/","en,en-US","ewgltuclg2n2k3m","45","[""Black or African-American""]","No","Male","1141150.8000000007","4056","","","{""product_choice"":""B""}","choice","ctd","attraction_2","2","microwave ovens","null","null","null","null","null","null","2","50","60","40","60","50","60","Warranty","Cooking power","",""
"","","","","","choice_trial_setup","html-keyboard-response","138","1017104","0.0-5.0-0.27","46","1","2025-04-11 14:14:01","bb671e3ae32f654b8954ea4c4635f915","","Mozilla/5.0 (Windows NT 10.0; Win64; x64) AppleWebKit/537.36 (KHTML, like Gecko) Chrome/129.0.0.0 Safari/537.36","WebKit","Chrome","129.0.0.0","Windows","10.0","https://hz8g1ckzuq.cognition.run/","en,en-US","ewgltuclg2n2k3m","45","[""Black or African-American""]","No","Male","1141150.8000000007","null","","<p></p>","null","choice","wbw","catch","null","televisions","75","80","10","5","30","50","1","","","","","","","","","",""
"","","","","","choice_trial","survey-html-form","139","1019861","0.0-5.0-1.27","46","1","2025-04-11 14:14:01","bb671e3ae32f654b8954ea4c4635f915","","Mozilla/5.0 (Windows NT 10.0; Win64; x64) AppleWebKit/537.36 (KHTML, like Gecko) Chrome/129.0.0.0 Safari/537.36","WebKit","Chrome","129.0.0.0","Windows","10.0","https://hz8g1ckzuq.cognition.run/","en,en-US","ewgltuclg2n2k3m","45","[""Black or African-American""]","No","Male","1141150.8000000007","2741","","","{""product_choice"":""C""}","choice","wbw","catch","null","televisions","75","80","10","5","30","50","1","null","null","null","null","null","null","Screen size","Average lifespan","",""
"","","","","","choice_trial_setup","html-keyboard-response","140","1020167","0.0-5.0-0.28","46","1","2025-04-11 14:14:01","bb671e3ae32f654b8954ea4c4635f915","","Mozilla/5.0 (Windows NT 10.0; Win64; x64) AppleWebKit/537.36 (KHTML, like Gecko) Chrome/129.0.0.0 Safari/537.36","WebKit","Chrome","129.0.0.0","Windows","10.0","https://hz8g1ckzuq.cognition.run/","en,en-US","ewgltuclg2n2k3m","45","[""Black or African-American""]","No","Male","1141150.8000000007","null","","<p></p>","null","choice","cdt","attraction_2","1","televisions","null","null","null","null","null","null","1","","","","","","","","","",""
"","","","","","choice_trial","survey-html-form","141","1022837","0.0-5.0-1.28","46","1","2025-04-11 14:14:01","bb671e3ae32f654b8954ea4c4635f915","","Mozilla/5.0 (Windows NT 10.0; Win64; x64) AppleWebKit/537.36 (KHTML, like Gecko) Chrome/129.0.0.0 Safari/537.36","WebKit","Chrome","129.0.0.0","Windows","10.0","https://hz8g1ckzuq.cognition.run/","en,en-US","ewgltuclg2n2k3m","45","[""Black or African-American""]","No","Male","1141150.8000000007","2656","","","{""product_choice"":""B""}","choice","cdt","attraction_2","1","televisions","null","null","null","null","null","null","1","60","50","60","50","60","40","Screen size","Average lifespan","",""
"","","","","","choice_trial_setup","html-keyboard-response","142","1023144","0.0-5.0-0.29","46","1","2025-04-11 14:14:01","bb671e3ae32f654b8954ea4c4635f915","","Mozilla/5.0 (Windows NT 10.0; Win64; x64) AppleWebKit/537.36 (KHTML, like Gecko) Chrome/129.0.0.0 Safari/537.36","WebKit","Chrome","129.0.0.0","Windows","10.0","https://hz8g1ckzuq.cognition.run/","en,en-US","ewgltuclg2n2k3m","45","[""Black or African-American""]","No","Male","1141150.8000000007","null","","<p></p>","null","choice","wwb","catch","null","washing machines","50","90","30","35","50","5","2","","","","","","","","","",""
"","","","","","choice_trial","survey-html-form","143","1028701","0.0-5.0-1.29","46","1","2025-04-11 14:14:01","bb671e3ae32f654b8954ea4c4635f915","","Mozilla/5.0 (Windows NT 10.0; Win64; x64) AppleWebKit/537.36 (KHTML, like Gecko) Chrome/129.0.0.0 Safari/537.36","WebKit","Chrome","129.0.0.0","Windows","10.0","https://hz8g1ckzuq.cognition.run/","en,en-US","ewgltuclg2n2k3m","45","[""Black or African-American""]","No","Male","1141150.8000000007","5542","","","{""product_choice"":""A""}","choice","wwb","catch","null","washing machines","50","90","30","35","50","5","2","null","null","null","null","null","null","Average lifespan","Energy savings","",""
"","","","","","choice_trial_setup","html-keyboard-response","144","1029015","0.0-5.0-0.30","46","1","2025-04-11 14:14:01","bb671e3ae32f654b8954ea4c4635f915","","Mozilla/5.0 (Windows NT 10.0; Win64; x64) AppleWebKit/537.36 (KHTML, like Gecko) Chrome/129.0.0.0 Safari/537.36","WebKit","Chrome","129.0.0.0","Windows","10.0","https://hz8g1ckzuq.cognition.run/","en,en-US","ewgltuclg2n2k3m","45","[""Black or African-American""]","No","Male","1141150.8000000007","null","","<p></p>","null","choice","cdt","repulsion_1","2","televisions","null","null","null","null","null","null","1","","","","","","","","","",""
"","","","","","choice_trial","survey-html-form","145","1034277","0.0-5.0-1.30","46","1","2025-04-11 14:14:01","bb671e3ae32f654b8954ea4c4635f915","","Mozilla/5.0 (Windows NT 10.0; Win64; x64) AppleWebKit/537.36 (KHTML, like Gecko) Chrome/129.0.0.0 Safari/537.36","WebKit","Chrome","129.0.0.0","Windows","10.0","https://hz8g1ckzuq.cognition.run/","en,en-US","ewgltuclg2n2k3m","45","[""Black or African-American""]","No","Male","1141150.8000000007","5247","","","{""product_choice"":""B""}","choice","cdt","repulsion_1","2","televisions","null","null","null","null","null","null","1","30","40","25","100","90","100","Screen size","Average lifespan","",""
"","","","","","choice_trial_setup","html-keyboard-response","146","1034590","0.0-5.0-0.31","46","1","2025-04-11 14:14:01","bb671e3ae32f654b8954ea4c4635f915","","Mozilla/5.0 (Windows NT 10.0; Win64; x64) AppleWebKit/537.36 (KHTML, like Gecko) Chrome/129.0.0.0 Safari/537.36","WebKit","Chrome","129.0.0.0","Windows","10.0","https://hz8g1ckzuq.cognition.run/","en,en-US","ewgltuclg2n2k3m","45","[""Black or African-American""]","No","Male","1141150.8000000007","null","","<p></p>","null","choice","ctd","attraction_2","2","washing machines","null","null","null","null","null","null","1","","","","","","","","","",""
"","","","","","choice_trial","survey-html-form","147","1037917","0.0-5.0-1.31","46","1","2025-04-11 14:14:01","bb671e3ae32f654b8954ea4c4635f915","","Mozilla/5.0 (Windows NT 10.0; Win64; x64) AppleWebKit/537.36 (KHTML, like Gecko) Chrome/129.0.0.0 Safari/537.36","WebKit","Chrome","129.0.0.0","Windows","10.0","https://hz8g1ckzuq.cognition.run/","en,en-US","ewgltuclg2n2k3m","45","[""Black or African-American""]","No","Male","1141150.8000000007","3311","","","{""product_choice"":""C""}","choice","ctd","attraction_2","2","washing machines","null","null","null","null","null","null","1","50","60","40","60","50","60","Average lifespan","Energy savings","",""
"","","","","","choice_trial_setup","html-keyboard-response","148","1038225","0.0-5.0-0.32","46","1","2025-04-11 14:14:01","bb671e3ae32f654b8954ea4c4635f915","","Mozilla/5.0 (Windows NT 10.0; Win64; x64) AppleWebKit/537.36 (KHTML, like Gecko) Chrome/129.0.0.0 Safari/537.36","WebKit","Chrome","129.0.0.0","Windows","10.0","https://hz8g1ckzuq.cognition.run/","en,en-US","ewgltuclg2n2k3m","45","[""Black or African-American""]","No","Male","1141150.8000000007","null","","<p></p>","null","choice","ctd","attraction_2","1","washing machines","null","null","null","null","null","null","2","","","","","","","","","",""
"","","","","","choice_trial","survey-html-form","149","1040947","0.0-5.0-1.32","46","1","2025-04-11 14:14:01","bb671e3ae32f654b8954ea4c4635f915","","Mozilla/5.0 (Windows NT 10.0; Win64; x64) AppleWebKit/537.36 (KHTML, like Gecko) Chrome/129.0.0.0 Safari/537.36","WebKit","Chrome","129.0.0.0","Windows","10.0","https://hz8g1ckzuq.cognition.run/","en,en-US","ewgltuclg2n2k3m","45","[""Black or African-American""]","No","Male","1141150.8000000007","2701","","","{""product_choice"":""B""}","choice","ctd","attraction_2","1","washing machines","null","null","null","null","null","null","2","60","50","60","50","60","40","Average lifespan","Energy savings","",""
"","","","","","choice_trial_setup","html-keyboard-response","150","1041261","0.0-5.0-0.33","46","1","2025-04-11 14:14:01","bb671e3ae32f654b8954ea4c4635f915","","Mozilla/5.0 (Windows NT 10.0; Win64; x64) AppleWebKit/537.36 (KHTML, like Gecko) Chrome/129.0.0.0 Safari/537.36","WebKit","Chrome","129.0.0.0","Windows","10.0","https://hz8g1ckzuq.cognition.run/","en,en-US","ewgltuclg2n2k3m","45","[""Black or African-American""]","No","Male","1141150.8000000007","null","","<p></p>","null","choice","tdc","attraction_1","2","televisions","null","null","null","null","null","null","2","","","","","","","","","",""
"","","","","","choice_trial","survey-html-form","151","1043171","0.0-5.0-1.33","46","1","2025-04-11 14:14:01","bb671e3ae32f654b8954ea4c4635f915","","Mozilla/5.0 (Windows NT 10.0; Win64; x64) AppleWebKit/537.36 (KHTML, like Gecko) Chrome/129.0.0.0 Safari/537.36","WebKit","Chrome","129.0.0.0","Windows","10.0","https://hz8g1ckzuq.cognition.run/","en,en-US","ewgltuclg2n2k3m","45","[""Black or African-American""]","No","Male","1141150.8000000007","1895","","","{""product_choice"":""C""}","choice","tdc","attraction_1","2","televisions","null","null","null","null","null","null","2","50","60","45","60","50","60","Screen size","Average lifespan","",""
"","","","","","choice_trial_setup","html-keyboard-response","152","1043481","0.0-5.0-0.34","46","1","2025-04-11 14:14:01","bb671e3ae32f654b8954ea4c4635f915","","Mozilla/5.0 (Windows NT 10.0; Win64; x64) AppleWebKit/537.36 (KHTML, like Gecko) Chrome/129.0.0.0 Safari/537.36","WebKit","Chrome","129.0.0.0","Windows","10.0","https://hz8g1ckzuq.cognition.run/","en,en-US","ewgltuclg2n2k3m","45","[""Black or African-American""]","No","Male","1141150.8000000007","null","","<p></p>","null","choice","ctd","attraction_2","2","laptops","null","null","null","null","null","null","2","","","","","","","","","",""
"","","","","","choice_trial","survey-html-form","153","1045564","0.0-5.0-1.34","46","1","2025-04-11 14:14:01","bb671e3ae32f654b8954ea4c4635f915","","Mozilla/5.0 (Windows NT 10.0; Win64; x64) AppleWebKit/537.36 (KHTML, like Gecko) Chrome/129.0.0.0 Safari/537.36","WebKit","Chrome","129.0.0.0","Windows","10.0","https://hz8g1ckzuq.cognition.run/","en,en-US","ewgltuclg2n2k3m","45","[""Black or African-American""]","No","Male","1141150.8000000007","2067","","","{""product_choice"":""B""}","choice","ctd","attraction_2","2","laptops","null","null","null","null","null","null","2","50","60","40","60","50","60","Processing speed","Memory (RAM)","",""
"","","","","","choice_trial_setup","html-keyboard-response","154","1045876","0.0-5.0-0.35","46","1","2025-04-11 14:14:01","bb671e3ae32f654b8954ea4c4635f915","","Mozilla/5.0 (Windows NT 10.0; Win64; x64) AppleWebKit/537.36 (KHTML, like Gecko) Chrome/129.0.0.0 Safari/537.36","WebKit","Chrome","129.0.0.0","Windows","10.0","https://hz8g1ckzuq.cognition.run/","en,en-US","ewgltuclg2n2k3m","45","[""Black or African-American""]","No","Male","1141150.8000000007","null","","<p></p>","null","choice","tdc","attraction_1","1","washing machines","null","null","null","null","null","null","2","","","","","","","","","",""
