"success","timeout","failed_images","failed_audio","failed_video","screen_id","trial_type","trial_index","time_elapsed","internal_node_id","run_id","condition","recorded_at","source_code_version","ip","user_agent","device","browser","browser_version","platform","platform_version","referer","accept_language","ppt_id","age","race","ethnicity","gender","exp_duration","rt","view_history","stimulus","response","phase","order","effect","t_high","category","d1_best","d2_best","d1_worst1","d2_worst1","d1_worst2","d2_worst2","first_dim","d1_t","d1_c","d1_d","d2_t","d2_c","d2_d","d1_name","d2_name","strategy_response","question_order"
"true","false","[]","[]","[]","img preload","preload","0","2900","0.0-0.0","47","1","2025-04-11 14:14:27","bb671e3ae32f654b8954ea4c4635f915","","Mozilla/5.0 (Windows NT 10.0; Win64; x64) AppleWebKit/537.36 (KHTML, like Gecko) Chrome/130.0.0.0 Safari/537.36","WebKit","Chrome","130.0.0.0","Windows","10.0","https://hz8g1ckzuq.cognition.run/","en-US,en;q=0.9,en-GB;q=0.8","u96bx42a730cab8","27","[""Black or African-American""]","No","Female","1511661.2000000011","","","","","","","","","","","","","","","","","","","","","","","","","",""
"true","","","","","","fullscreen","1","6218","0.0-1.0","47","1","2025-04-11 14:14:27","bb671e3ae32f654b8954ea4c4635f915","","Mozilla/5.0 (Windows NT 10.0; Win64; x64) AppleWebKit/537.36 (KHTML, like Gecko) Chrome/130.0.0.0 Safari/537.36","WebKit","Chrome","130.0.0.0","Windows","10.0","https://hz8g1ckzuq.cognition.run/","en-US,en;q=0.9,en-GB;q=0.8","u96bx42a730cab8","27","[""Black or African-American""]","No","Female","1511661.2000000011","2313","","","","","","","","","","","","","","","","","","","","","","","","",""
"","","","","","","instructions","2","123597","0.0-2.0","47","1","2025-04-11 14:14:27","bb671e3ae32f654b8954ea4c4635f915","","Mozilla/5.0 (Windows NT 10.0; Win64; x64) AppleWebKit/537.36 (KHTML, like Gecko) Chrome/130.0.0.0 Safari/537.36","WebKit","Chrome","130.0.0.0","Windows","10.0","https://hz8g1ckzuq.cognition.run/","en-US,en;q=0.9,en-GB;q=0.8","u96bx42a730cab8","27","[""Black or African-American""]","No","Female","1511661.2000000011","117377","[{""page_index"":0,""viewing_time"":5117},{""page_index"":1,""viewing_time"":20321},{""page_index"":2,""viewing_time"":5550},{""page_index"":3,""viewing_time"":14499},{""page_index"":4,""viewing_time"":19404},{""page_index"":5,""viewing_time"":8975},{""page_index"":6,""viewing_time"":1292},{""page_index"":7,""viewing_time"":3393},{""page_index"":8,""viewing_time"":2096},{""page_index"":9,""viewing_time"":36728}]","","","","","","","","","","","","","","","","","","","","","","","",""
"","","","","","rating_trial_setup","html-keyboard-response","3","123903","0.0-3.0-0.0","47","1","2025-04-11 14:14:27","bb671e3ae32f654b8954ea4c4635f915","","Mozilla/5.0 (Windows NT 10.0; Win64; x64) AppleWebKit/537.36 (KHTML, like Gecko) Chrome/130.0.0.0 Safari/537.36","WebKit","Chrome","130.0.0.0","Windows","10.0","https://hz8g1ckzuq.cognition.run/","en-US,en;q=0.9,en-GB;q=0.8","u96bx42a730cab8","27","[""Black or African-American""]","No","Female","1511661.2000000011","null","","<p></p>","null","rating","dct","repulsion_2","2","microwave ovens","null","null","null","null","null","null","1","","","","","","","","","",""
"","","","","","rating_trial","survey-html-form","4","148039","0.0-3.0-1.0","47","1","2025-04-11 14:14:27","bb671e3ae32f654b8954ea4c4635f915","","Mozilla/5.0 (Windows NT 10.0; Win64; x64) AppleWebKit/537.36 (KHTML, like Gecko) Chrome/130.0.0.0 Safari/537.36","WebKit","Chrome","130.0.0.0","Windows","10.0","https://hz8g1ckzuq.cognition.run/","en-US,en;q=0.9,en-GB;q=0.8","u96bx42a730cab8","27","[""Black or African-American""]","No","Female","1511661.2000000011","24132","","","{""price_1"":""95"",""price_2"":""80"",""price_3"":""90""}","rating","dct","repulsion_2","2","microwave ovens","null","null","null","null","null","null","1","30","40","20","100","90","100","Warranty","Cooking power","",""
"","","","","","rating_trial_setup","html-keyboard-response","5","148344","0.0-3.0-0.1","47","1","2025-04-11 14:14:27","bb671e3ae32f654b8954ea4c4635f915","","Mozilla/5.0 (Windows NT 10.0; Win64; x64) AppleWebKit/537.36 (KHTML, like Gecko) Chrome/130.0.0.0 Safari/537.36","WebKit","Chrome","130.0.0.0","Windows","10.0","https://hz8g1ckzuq.cognition.run/","en-US,en;q=0.9,en-GB;q=0.8","u96bx42a730cab8","27","[""Black or African-American""]","No","Female","1511661.2000000011","null","","<p></p>","null","rating","wbw","catch","null","laptops","55","90","30","25","15","45","1","","","","","","","","","",""
"","","","","","rating_trial","survey-html-form","6","185475","0.0-3.0-1.1","47","1","2025-04-11 14:14:27","bb671e3ae32f654b8954ea4c4635f915","","Mozilla/5.0 (Windows NT 10.0; Win64; x64) AppleWebKit/537.36 (KHTML, like Gecko) Chrome/130.0.0.0 Safari/537.36","WebKit","Chrome","130.0.0.0","Windows","10.0","https://hz8g1ckzuq.cognition.run/","en-US,en;q=0.9,en-GB;q=0.8","u96bx42a730cab8","27","[""Black or African-American""]","No","Female","1511661.2000000011","37128","","","{""price_1"":""500"",""price_2"":""450"",""price_3"":""300""}","rating","wbw","catch","null","laptops","55","90","30","25","15","45","1","null","null","null","null","null","null","Processing speed","Memory (RAM)","",""
"","","","","","rating_trial_setup","html-keyboard-response","7","185779","0.0-3.0-0.2","47","1","2025-04-11 14:14:27","bb671e3ae32f654b8954ea4c4635f915","","Mozilla/5.0 (Windows NT 10.0; Win64; x64) AppleWebKit/537.36 (KHTML, like Gecko) Chrome/130.0.0.0 Safari/537.36","WebKit","Chrome","130.0.0.0","Windows","10.0","https://hz8g1ckzuq.cognition.run/","en-US,en;q=0.9,en-GB;q=0.8","u96bx42a730cab8","27","[""Black or African-American""]","No","Female","1511661.2000000011","null","","<p></p>","null","rating","wwb","catch","null","washing machines","55","70","40","30","50","5","1","","","","","","","","","",""
"","","","","","rating_trial","survey-html-form","8","194857","0.0-3.0-1.2","47","1","2025-04-11 14:14:27","bb671e3ae32f654b8954ea4c4635f915","","Mozilla/5.0 (Windows NT 10.0; Win64; x64) AppleWebKit/537.36 (KHTML, like Gecko) Chrome/130.0.0.0 Safari/537.36","WebKit","Chrome","130.0.0.0","Windows","10.0","https://hz8g1ckzuq.cognition.run/","en-US,en;q=0.9,en-GB;q=0.8","u96bx42a730cab8","27","[""Black or African-American""]","No","Female","1511661.2000000011","9075","","","{""price_1"":""200"",""price_2"":""90"",""price_3"":""80""}","rating","wwb","catch","null","washing machines","55","70","40","30","50","5","1","null","null","null","null","null","null","Average lifespan","Energy savings","",""
"","","","","","rating_trial_setup","html-keyboard-response","9","195160","0.0-3.0-0.3","47","1","2025-04-11 14:14:27","bb671e3ae32f654b8954ea4c4635f915","","Mozilla/5.0 (Windows NT 10.0; Win64; x64) AppleWebKit/537.36 (KHTML, like Gecko) Chrome/130.0.0.0 Safari/537.36","WebKit","Chrome","130.0.0.0","Windows","10.0","https://hz8g1ckzuq.cognition.run/","en-US,en;q=0.9,en-GB;q=0.8","u96bx42a730cab8","27","[""Black or African-American""]","No","Female","1511661.2000000011","null","","<p></p>","null","rating","dct","attraction_1","1","microwave ovens","null","null","null","null","null","null","2","","","","","","","","","",""
"","","","","","rating_trial","survey-html-form","10","205940","0.0-3.0-1.3","47","1","2025-04-11 14:14:27","bb671e3ae32f654b8954ea4c4635f915","","Mozilla/5.0 (Windows NT 10.0; Win64; x64) AppleWebKit/537.36 (KHTML, like Gecko) Chrome/130.0.0.0 Safari/537.36","WebKit","Chrome","130.0.0.0","Windows","10.0","https://hz8g1ckzuq.cognition.run/","en-US,en;q=0.9,en-GB;q=0.8","u96bx42a730cab8","27","[""Black or African-American""]","No","Female","1511661.2000000011","10778","","","{""price_1"":""150"",""price_2"":""140"",""price_3"":""140""}","rating","dct","attraction_1","1","microwave ovens","null","null","null","null","null","null","2","60","50","60","50","60","45","Warranty","Cooking power","",""
"","","","","","rating_trial_setup","html-keyboard-response","11","206243","0.0-3.0-0.4","47","1","2025-04-11 14:14:27","bb671e3ae32f654b8954ea4c4635f915","","Mozilla/5.0 (Windows NT 10.0; Win64; x64) AppleWebKit/537.36 (KHTML, like Gecko) Chrome/130.0.0.0 Safari/537.36","WebKit","Chrome","130.0.0.0","Windows","10.0","https://hz8g1ckzuq.cognition.run/","en-US,en;q=0.9,en-GB;q=0.8","u96bx42a730cab8","27","[""Black or African-American""]","No","Female","1511661.2000000011","null","","<p></p>","null","rating","dct","repulsion_1","2","washing machines","null","null","null","null","null","null","2","","","","","","","","","",""
"","","","","","rating_trial","survey-html-form","12","223046","0.0-3.0-1.4","47","1","2025-04-11 14:14:27","bb671e3ae32f654b8954ea4c4635f915","","Mozilla/5.0 (Windows NT 10.0; Win64; x64) AppleWebKit/537.36 (KHTML, like Gecko) Chrome/130.0.0.0 Safari/537.36","WebKit","Chrome","130.0.0.0","Windows","10.0","https://hz8g1ckzuq.cognition.run/","en-US,en;q=0.9,en-GB;q=0.8","u96bx42a730cab8","27","[""Black or African-American""]","No","Female","1511661.2000000011","16801","","","{""price_1"":""80"",""price_2"":""85"",""price_3"":""95""}","rating","dct","repulsion_1","2","washing machines","null","null","null","null","null","null","2","30","40","25","100","90","100","Average lifespan","Energy savings","",""
"","","","","","rating_trial_setup","html-keyboard-response","13","223349","0.0-3.0-0.5","47","1","2025-04-11 14:14:27","bb671e3ae32f654b8954ea4c4635f915","","Mozilla/5.0 (Windows NT 10.0; Win64; x64) AppleWebKit/537.36 (KHTML, like Gecko) Chrome/130.0.0.0 Safari/537.36","WebKit","Chrome","130.0.0.0","Windows","10.0","https://hz8g1ckzuq.cognition.run/","en-US,en;q=0.9,en-GB;q=0.8","u96bx42a730cab8","27","[""Black or African-American""]","No","Female","1511661.2000000011","null","","<p></p>","null","rating","tdc","repulsion_1","2","laptops","null","null","null","null","null","null","1","","","","","","","","","",""
"","","","","","rating_trial","survey-html-form","14","243840","0.0-3.0-1.5","47","1","2025-04-11 14:14:27","bb671e3ae32f654b8954ea4c4635f915","","Mozilla/5.0 (Windows NT 10.0; Win64; x64) AppleWebKit/537.36 (KHTML, like Gecko) Chrome/130.0.0.0 Safari/537.36","WebKit","Chrome","130.0.0.0","Windows","10.0","https://hz8g1ckzuq.cognition.run/","en-US,en;q=0.9,en-GB;q=0.8","u96bx42a730cab8","27","[""Black or African-American""]","No","Female","1511661.2000000011","20488","","","{""price_1"":""280"",""price_2"":""280"",""price_3"":""300""}","rating","tdc","repulsion_1","2","laptops","null","null","null","null","null","null","1","30","40","25","100","90","100","Processing speed","Memory (RAM)","",""
"","","","","","rating_trial_setup","html-keyboard-response","15","244143","0.0-3.0-0.6","47","1","2025-04-11 14:14:27","bb671e3ae32f654b8954ea4c4635f915","","Mozilla/5.0 (Windows NT 10.0; Win64; x64) AppleWebKit/537.36 (KHTML, like Gecko) Chrome/130.0.0.0 Safari/537.36","WebKit","Chrome","130.0.0.0","Windows","10.0","https://hz8g1ckzuq.cognition.run/","en-US,en;q=0.9,en-GB;q=0.8","u96bx42a730cab8","27","[""Black or African-American""]","No","Female","1511661.2000000011","null","","<p></p>","null","rating","bww","catch","null","washing machines","50","70","15","20","25","15","2","","","","","","","","","",""
"","","","","","rating_trial","survey-html-form","16","254986","0.0-3.0-1.6","47","1","2025-04-11 14:14:27","bb671e3ae32f654b8954ea4c4635f915","","Mozilla/5.0 (Windows NT 10.0; Win64; x64) AppleWebKit/537.36 (KHTML, like Gecko) Chrome/130.0.0.0 Safari/537.36","WebKit","Chrome","130.0.0.0","Windows","10.0","https://hz8g1ckzuq.cognition.run/","en-US,en;q=0.9,en-GB;q=0.8","u96bx42a730cab8","27","[""Black or African-American""]","No","Female","1511661.2000000011","10840","","","{""price_1"":""90"",""price_2"":""85"",""price_3"":""85""}","rating","bww","catch","null","washing machines","50","70","15","20","25","15","2","null","null","null","null","null","null","Average lifespan","Energy savings","",""
"","","","","","rating_trial_setup","html-keyboard-response","17","255288","0.0-3.0-0.7","47","1","2025-04-11 14:14:27","bb671e3ae32f654b8954ea4c4635f915","","Mozilla/5.0 (Windows NT 10.0; Win64; x64) AppleWebKit/537.36 (KHTML, like Gecko) Chrome/130.0.0.0 Safari/537.36","WebKit","Chrome","130.0.0.0","Windows","10.0","https://hz8g1ckzuq.cognition.run/","en-US,en;q=0.9,en-GB;q=0.8","u96bx42a730cab8","27","[""Black or African-American""]","No","Female","1511661.2000000011","null","","<p></p>","null","rating","tcd","attraction_2","2","laptops","null","null","null","null","null","null","1","","","","","","","","","",""
"","","","","","rating_trial","survey-html-form","18","289444","0.0-3.0-1.7","47","1","2025-04-11 14:14:27","bb671e3ae32f654b8954ea4c4635f915","","Mozilla/5.0 (Windows NT 10.0; Win64; x64) AppleWebKit/537.36 (KHTML, like Gecko) Chrome/130.0.0.0 Safari/537.36","WebKit","Chrome","130.0.0.0","Windows","10.0","https://hz8g1ckzuq.cognition.run/","en-US,en;q=0.9,en-GB;q=0.8","u96bx42a730cab8","27","[""Black or African-American""]","No","Female","1511661.2000000011","34153","","","{""price_1"":""300"",""price_2"":""295"",""price_3"":""290""}","rating","tcd","attraction_2","2","laptops","null","null","null","null","null","null","1","50","60","40","60","50","60","Processing speed","Memory (RAM)","",""
"","","","","","rating_trial_setup","html-keyboard-response","19","289747","0.0-3.0-0.8","47","1","2025-04-11 14:14:27","bb671e3ae32f654b8954ea4c4635f915","","Mozilla/5.0 (Windows NT 10.0; Win64; x64) AppleWebKit/537.36 (KHTML, like Gecko) Chrome/130.0.0.0 Safari/537.36","WebKit","Chrome","130.0.0.0","Windows","10.0","https://hz8g1ckzuq.cognition.run/","en-US,en;q=0.9,en-GB;q=0.8","u96bx42a730cab8","27","[""Black or African-American""]","No","Female","1511661.2000000011","null","","<p></p>","null","rating","bww","catch","null","microwave ovens","90","55","30","20","20","35","1","","","","","","","","","",""
"","","","","","rating_trial","survey-html-form","20","320110","0.0-3.0-1.8","47","1","2025-04-11 14:14:27","bb671e3ae32f654b8954ea4c4635f915","","Mozilla/5.0 (Windows NT 10.0; Win64; x64) AppleWebKit/537.36 (KHTML, like Gecko) Chrome/130.0.0.0 Safari/537.36","WebKit","Chrome","130.0.0.0","Windows","10.0","https://hz8g1ckzuq.cognition.run/","en-US,en;q=0.9,en-GB;q=0.8","u96bx42a730cab8","27","[""Black or African-American""]","No","Female","1511661.2000000011","30360","","","{""price_1"":""90"",""price_2"":""95"",""price_3"":""95""}","rating","bww","catch","null","microwave ovens","90","55","30","20","20","35","1","null","null","null","null","null","null","Warranty","Cooking power","",""
"","","","","","rating_trial_setup","html-keyboard-response","21","320413","0.0-3.0-0.9","47","1","2025-04-11 14:14:27","bb671e3ae32f654b8954ea4c4635f915","","Mozilla/5.0 (Windows NT 10.0; Win64; x64) AppleWebKit/537.36 (KHTML, like Gecko) Chrome/130.0.0.0 Safari/537.36","WebKit","Chrome","130.0.0.0","Windows","10.0","https://hz8g1ckzuq.cognition.run/","en-US,en;q=0.9,en-GB;q=0.8","u96bx42a730cab8","27","[""Black or African-American""]","No","Female","1511661.2000000011","null","","<p></p>","null","rating","dct","repulsion_1","2","microwave ovens","null","null","null","null","null","null","1","","","","","","","","","",""
"","","","","","rating_trial","survey-html-form","22","344569","0.0-3.0-1.9","47","1","2025-04-11 14:14:27","bb671e3ae32f654b8954ea4c4635f915","","Mozilla/5.0 (Windows NT 10.0; Win64; x64) AppleWebKit/537.36 (KHTML, like Gecko) Chrome/130.0.0.0 Safari/537.36","WebKit","Chrome","130.0.0.0","Windows","10.0","https://hz8g1ckzuq.cognition.run/","en-US,en;q=0.9,en-GB;q=0.8","u96bx42a730cab8","27","[""Black or African-American""]","No","Female","1511661.2000000011","24153","","","{""price_1"":""110"",""price_2"":""100"",""price_3"":""105""}","rating","dct","repulsion_1","2","microwave ovens","null","null","null","null","null","null","1","30","40","25","100","90","100","Warranty","Cooking power","",""
"","","","","","rating_trial_setup","html-keyboard-response","23","344874","0.0-3.0-0.10","47","1","2025-04-11 14:14:27","bb671e3ae32f654b8954ea4c4635f915","","Mozilla/5.0 (Windows NT 10.0; Win64; x64) AppleWebKit/537.36 (KHTML, like Gecko) Chrome/130.0.0.0 Safari/537.36","WebKit","Chrome","130.0.0.0","Windows","10.0","https://hz8g1ckzuq.cognition.run/","en-US,en;q=0.9,en-GB;q=0.8","u96bx42a730cab8","27","[""Black or African-American""]","No","Female","1511661.2000000011","null","","<p></p>","null","rating","dtc","attraction_1","2","televisions","null","null","null","null","null","null","2","","","","","","","","","",""
"","","","","","rating_trial","survey-html-form","24","416016","0.0-3.0-1.10","47","1","2025-04-11 14:14:27","bb671e3ae32f654b8954ea4c4635f915","","Mozilla/5.0 (Windows NT 10.0; Win64; x64) AppleWebKit/537.36 (KHTML, like Gecko) Chrome/130.0.0.0 Safari/537.36","WebKit","Chrome","130.0.0.0","Windows","10.0","https://hz8g1ckzuq.cognition.run/","en-US,en;q=0.9,en-GB;q=0.8","u96bx42a730cab8","27","[""Black or African-American""]","No","Female","1511661.2000000011","71139","","","{""price_1"":""210"",""price_2"":""205"",""price_3"":""205""}","rating","dtc","attraction_1","2","televisions","null","null","null","null","null","null","2","50","60","45","60","50","60","Screen size","Average lifespan","",""
"","","","","","rating_trial_setup","html-keyboard-response","25","416323","0.0-3.0-0.11","47","1","2025-04-11 14:14:27","bb671e3ae32f654b8954ea4c4635f915","","Mozilla/5.0 (Windows NT 10.0; Win64; x64) AppleWebKit/537.36 (KHTML, like Gecko) Chrome/130.0.0.0 Safari/537.36","WebKit","Chrome","130.0.0.0","Windows","10.0","https://hz8g1ckzuq.cognition.run/","en-US,en;q=0.9,en-GB;q=0.8","u96bx42a730cab8","27","[""Black or African-American""]","No","Female","1511661.2000000011","null","","<p></p>","null","rating","ctd","attraction_1","2","microwave ovens","null","null","null","null","null","null","2","","","","","","","","","",""
"","","","","","rating_trial","survey-html-form","26","431478","0.0-3.0-1.11","47","1","2025-04-11 14:14:27","bb671e3ae32f654b8954ea4c4635f915","","Mozilla/5.0 (Windows NT 10.0; Win64; x64) AppleWebKit/537.36 (KHTML, like Gecko) Chrome/130.0.0.0 Safari/537.36","WebKit","Chrome","130.0.0.0","Windows","10.0","https://hz8g1ckzuq.cognition.run/","en-US,en;q=0.9,en-GB;q=0.8","u96bx42a730cab8","27","[""Black or African-American""]","No","Female","1511661.2000000011","15152","","","{""price_1"":""120"",""price_2"":""115"",""price_3"":""110""}","rating","ctd","attraction_1","2","microwave ovens","null","null","null","null","null","null","2","50","60","45","60","50","60","Warranty","Cooking power","",""
"","","","","","rating_trial_setup","html-keyboard-response","27","431783","0.0-3.0-0.12","47","1","2025-04-11 14:14:27","bb671e3ae32f654b8954ea4c4635f915","","Mozilla/5.0 (Windows NT 10.0; Win64; x64) AppleWebKit/537.36 (KHTML, like Gecko) Chrome/130.0.0.0 Safari/537.36","WebKit","Chrome","130.0.0.0","Windows","10.0","https://hz8g1ckzuq.cognition.run/","en-US,en;q=0.9,en-GB;q=0.8","u96bx42a730cab8","27","[""Black or African-American""]","No","Female","1511661.2000000011","null","","<p></p>","null","rating","tdc","attraction_2","1","microwave ovens","null","null","null","null","null","null","2","","","","","","","","","",""
"","","","","","rating_trial","survey-html-form","28","453127","0.0-3.0-1.12","47","1","2025-04-11 14:14:27","bb671e3ae32f654b8954ea4c4635f915","","Mozilla/5.0 (Windows NT 10.0; Win64; x64) AppleWebKit/537.36 (KHTML, like Gecko) Chrome/130.0.0.0 Safari/537.36","WebKit","Chrome","130.0.0.0","Windows","10.0","https://hz8g1ckzuq.cognition.run/","en-US,en;q=0.9,en-GB;q=0.8","u96bx42a730cab8","27","[""Black or African-American""]","No","Female","1511661.2000000011","21341","","","{""price_1"":""120"",""price_2"":""115"",""price_3"":""120""}","rating","tdc","attraction_2","1","microwave ovens","null","null","null","null","null","null","2","60","50","60","50","60","40","Warranty","Cooking power","",""
"","","","","","rating_trial_setup","html-keyboard-response","29","453431","0.0-3.0-0.13","47","1","2025-04-11 14:14:27","bb671e3ae32f654b8954ea4c4635f915","","Mozilla/5.0 (Windows NT 10.0; Win64; x64) AppleWebKit/537.36 (KHTML, like Gecko) Chrome/130.0.0.0 Safari/537.36","WebKit","Chrome","130.0.0.0","Windows","10.0","https://hz8g1ckzuq.cognition.run/","en-US,en;q=0.9,en-GB;q=0.8","u96bx42a730cab8","27","[""Black or African-American""]","No","Female","1511661.2000000011","null","","<p></p>","null","rating","bww","catch","null","televisions","90","90","30","40","10","5","1","","","","","","","","","",""
"","","","","","rating_trial","survey-html-form","30","492109","0.0-3.0-1.13","47","1","2025-04-11 14:14:27","bb671e3ae32f654b8954ea4c4635f915","","Mozilla/5.0 (Windows NT 10.0; Win64; x64) AppleWebKit/537.36 (KHTML, like Gecko) Chrome/130.0.0.0 Safari/537.36","WebKit","Chrome","130.0.0.0","Windows","10.0","https://hz8g1ckzuq.cognition.run/","en-US,en;q=0.9,en-GB;q=0.8","u96bx42a730cab8","27","[""Black or African-American""]","No","Female","1511661.2000000011","38674","","","{""price_1"":""340"",""price_2"":""300"",""price_3"":""220""}","rating","bww","catch","null","televisions","90","90","30","40","10","5","1","null","null","null","null","null","null","Screen size","Average lifespan","",""
"","","","","","rating_trial_setup","html-keyboard-response","31","492414","0.0-3.0-0.14","47","1","2025-04-11 14:14:27","bb671e3ae32f654b8954ea4c4635f915","","Mozilla/5.0 (Windows NT 10.0; Win64; x64) AppleWebKit/537.36 (KHTML, like Gecko) Chrome/130.0.0.0 Safari/537.36","WebKit","Chrome","130.0.0.0","Windows","10.0","https://hz8g1ckzuq.cognition.run/","en-US,en;q=0.9,en-GB;q=0.8","u96bx42a730cab8","27","[""Black or African-American""]","No","Female","1511661.2000000011","null","","<p></p>","null","rating","wwb","catch","null","laptops","80","80","10","45","45","40","1","","","","","","","","","",""
"","","","","","rating_trial","survey-html-form","32","542876","0.0-3.0-1.14","47","1","2025-04-11 14:14:27","bb671e3ae32f654b8954ea4c4635f915","","Mozilla/5.0 (Windows NT 10.0; Win64; x64) AppleWebKit/537.36 (KHTML, like Gecko) Chrome/130.0.0.0 Safari/537.36","WebKit","Chrome","130.0.0.0","Windows","10.0","https://hz8g1ckzuq.cognition.run/","en-US,en;q=0.9,en-GB;q=0.8","u96bx42a730cab8","27","[""Black or African-American""]","No","Female","1511661.2000000011","50458","","","{""price_1"":""175"",""price_2"":""180"",""price_3"":""220""}","rating","wwb","catch","null","laptops","80","80","10","45","45","40","1","null","null","null","null","null","null","Processing speed","Memory (RAM)","",""
"","","","","","rating_trial_setup","html-keyboard-response","33","543182","0.0-3.0-0.15","47","1","2025-04-11 14:14:27","bb671e3ae32f654b8954ea4c4635f915","","Mozilla/5.0 (Windows NT 10.0; Win64; x64) AppleWebKit/537.36 (KHTML, like Gecko) Chrome/130.0.0.0 Safari/537.36","WebKit","Chrome","130.0.0.0","Windows","10.0","https://hz8g1ckzuq.cognition.run/","en-US,en;q=0.9,en-GB;q=0.8","u96bx42a730cab8","27","[""Black or African-American""]","No","Female","1511661.2000000011","null","","<p></p>","null","rating","wwb","catch","null","microwave ovens","60","85","30","50","50","50","2","","","","","","","","","",""
"","","","","","rating_trial","survey-html-form","34","678989","0.0-3.0-1.15","47","1","2025-04-11 14:14:27","bb671e3ae32f654b8954ea4c4635f915","","Mozilla/5.0 (Windows NT 10.0; Win64; x64) AppleWebKit/537.36 (KHTML, like Gecko) Chrome/130.0.0.0 Safari/537.36","WebKit","Chrome","130.0.0.0","Windows","10.0","https://hz8g1ckzuq.cognition.run/","en-US,en;q=0.9,en-GB;q=0.8","u96bx42a730cab8","27","[""Black or African-American""]","No","Female","1511661.2000000011","135803","","","{""price_1"":""195"",""price_2"":""200"",""price_3"":""210""}","rating","wwb","catch","null","microwave ovens","60","85","30","50","50","50","2","null","null","null","null","null","null","Warranty","Cooking power","",""
"","","","","","rating_trial_setup","html-keyboard-response","35","679293","0.0-3.0-0.16","47","1","2025-04-11 14:14:27","bb671e3ae32f654b8954ea4c4635f915","","Mozilla/5.0 (Windows NT 10.0; Win64; x64) AppleWebKit/537.36 (KHTML, like Gecko) Chrome/130.0.0.0 Safari/537.36","WebKit","Chrome","130.0.0.0","Windows","10.0","https://hz8g1ckzuq.cognition.run/","en-US,en;q=0.9,en-GB;q=0.8","u96bx42a730cab8","27","[""Black or African-American""]","No","Female","1511661.2000000011","null","","<p></p>","null","rating","ctd","repulsion_1","2","televisions","null","null","null","null","null","null","2","","","","","","","","","",""
"","","","","","rating_trial","survey-html-form","36","705318","0.0-3.0-1.16","47","1","2025-04-11 14:14:27","bb671e3ae32f654b8954ea4c4635f915","","Mozilla/5.0 (Windows NT 10.0; Win64; x64) AppleWebKit/537.36 (KHTML, like Gecko) Chrome/130.0.0.0 Safari/537.36","WebKit","Chrome","130.0.0.0","Windows","10.0","https://hz8g1ckzuq.cognition.run/","en-US,en;q=0.9,en-GB;q=0.8","u96bx42a730cab8","27","[""Black or African-American""]","No","Female","1511661.2000000011","26022","","","{""price_1"":""230"",""price_2"":""215"",""price_3"":""210""}","rating","ctd","repulsion_1","2","televisions","null","null","null","null","null","null","2","30","40","25","100","90","100","Screen size","Average lifespan","",""
"","","","","","rating_trial_setup","html-keyboard-response","37","705623","0.0-3.0-0.17","47","1","2025-04-11 14:14:27","bb671e3ae32f654b8954ea4c4635f915","","Mozilla/5.0 (Windows NT 10.0; Win64; x64) AppleWebKit/537.36 (KHTML, like Gecko) Chrome/130.0.0.0 Safari/537.36","WebKit","Chrome","130.0.0.0","Windows","10.0","https://hz8g1ckzuq.cognition.run/","en-US,en;q=0.9,en-GB;q=0.8","u96bx42a730cab8","27","[""Black or African-American""]","No","Female","1511661.2000000011","null","","<p></p>","null","rating","dct","repulsion_2","1","microwave ovens","null","null","null","null","null","null","2","","","","","","","","","",""
"","","","","","rating_trial","survey-html-form","38","725086","0.0-3.0-1.17","47","1","2025-04-11 14:14:27","bb671e3ae32f654b8954ea4c4635f915","","Mozilla/5.0 (Windows NT 10.0; Win64; x64) AppleWebKit/537.36 (KHTML, like Gecko) Chrome/130.0.0.0 Safari/537.36","WebKit","Chrome","130.0.0.0","Windows","10.0","https://hz8g1ckzuq.cognition.run/","en-US,en;q=0.9,en-GB;q=0.8","u96bx42a730cab8","27","[""Black or African-American""]","No","Female","1511661.2000000011","19459","","","{""price_1"":""135"",""price_2"":""140"",""price_3"":""130""}","rating","dct","repulsion_2","1","microwave ovens","null","null","null","null","null","null","2","100","90","100","30","40","20","Warranty","Cooking power","",""
"","","","","","rating_trial_setup","html-keyboard-response","39","725391","0.0-3.0-0.18","47","1","2025-04-11 14:14:27","bb671e3ae32f654b8954ea4c4635f915","","Mozilla/5.0 (Windows NT 10.0; Win64; x64) AppleWebKit/537.36 (KHTML, like Gecko) Chrome/130.0.0.0 Safari/537.36","WebKit","Chrome","130.0.0.0","Windows","10.0","https://hz8g1ckzuq.cognition.run/","en-US,en;q=0.9,en-GB;q=0.8","u96bx42a730cab8","27","[""Black or African-American""]","No","Female","1511661.2000000011","null","","<p></p>","null","rating","ctd","repulsion_2","1","washing machines","null","null","null","null","null","null","2","","","","","","","","","",""
"","","","","","rating_trial","survey-html-form","40","748446","0.0-3.0-1.18","47","1","2025-04-11 14:14:27","bb671e3ae32f654b8954ea4c4635f915","","Mozilla/5.0 (Windows NT 10.0; Win64; x64) AppleWebKit/537.36 (KHTML, like Gecko) Chrome/130.0.0.0 Safari/537.36","WebKit","Chrome","130.0.0.0","Windows","10.0","https://hz8g1ckzuq.cognition.run/","en-US,en;q=0.9,en-GB;q=0.8","u96bx42a730cab8","27","[""Black or African-American""]","No","Female","1511661.2000000011","23049","","","{""price_1"":""105"",""price_2"":""110"",""price_3"":""100""}","rating","ctd","repulsion_2","1","washing machines","null","null","null","null","null","null","2","100","90","100","30","40","20","Average lifespan","Energy savings","",""
"","","","","","rating_trial_setup","html-keyboard-response","41","748751","0.0-3.0-0.19","47","1","2025-04-11 14:14:27","bb671e3ae32f654b8954ea4c4635f915","","Mozilla/5.0 (Windows NT 10.0; Win64; x64) AppleWebKit/537.36 (KHTML, like Gecko) Chrome/130.0.0.0 Safari/537.36","WebKit","Chrome","130.0.0.0","Windows","10.0","https://hz8g1ckzuq.cognition.run/","en-US,en;q=0.9,en-GB;q=0.8","u96bx42a730cab8","27","[""Black or African-American""]","No","Female","1511661.2000000011","null","","<p></p>","null","rating","dtc","repulsion_1","1","microwave ovens","null","null","null","null","null","null","1","","","","","","","","","",""
"","","","","","rating_trial","survey-html-form","42","763270","0.0-3.0-1.19","47","1","2025-04-11 14:14:27","bb671e3ae32f654b8954ea4c4635f915","","Mozilla/5.0 (Windows NT 10.0; Win64; x64) AppleWebKit/537.36 (KHTML, like Gecko) Chrome/130.0.0.0 Safari/537.36","WebKit","Chrome","130.0.0.0","Windows","10.0","https://hz8g1ckzuq.cognition.run/","en-US,en;q=0.9,en-GB;q=0.8","u96bx42a730cab8","27","[""Black or African-American""]","No","Female","1511661.2000000011","14516","","","{""price_1"":""110"",""price_2"":""115"",""price_3"":""110""}","rating","dtc","repulsion_1","1","microwave ovens","null","null","null","null","null","null","1","100","90","100","30","40","25","Warranty","Cooking power","",""
"","","","","","rating_trial_setup","html-keyboard-response","43","763572","0.0-3.0-0.20","47","1","2025-04-11 14:14:27","bb671e3ae32f654b8954ea4c4635f915","","Mozilla/5.0 (Windows NT 10.0; Win64; x64) AppleWebKit/537.36 (KHTML, like Gecko) Chrome/130.0.0.0 Safari/537.36","WebKit","Chrome","130.0.0.0","Windows","10.0","https://hz8g1ckzuq.cognition.run/","en-US,en;q=0.9,en-GB;q=0.8","u96bx42a730cab8","27","[""Black or African-American""]","No","Female","1511661.2000000011","null","","<p></p>","null","rating","cdt","repulsion_2","1","laptops","null","null","null","null","null","null","2","","","","","","","","","",""
"","","","","","rating_trial","survey-html-form","44","776331","0.0-3.0-1.20","47","1","2025-04-11 14:14:27","bb671e3ae32f654b8954ea4c4635f915","","Mozilla/5.0 (Windows NT 10.0; Win64; x64) AppleWebKit/537.36 (KHTML, like Gecko) Chrome/130.0.0.0 Safari/537.36","WebKit","Chrome","130.0.0.0","Windows","10.0","https://hz8g1ckzuq.cognition.run/","en-US,en;q=0.9,en-GB;q=0.8","u96bx42a730cab8","27","[""Black or African-American""]","No","Female","1511661.2000000011","12756","","","{""price_1"":""100"",""price_2"":""115"",""price_3"":""110""}","rating","cdt","repulsion_2","1","laptops","null","null","null","null","null","null","2","100","90","100","30","40","20","Processing speed","Memory (RAM)","",""
"","","","","","rating_trial_setup","html-keyboard-response","45","776636","0.0-3.0-0.21","47","1","2025-04-11 14:14:27","bb671e3ae32f654b8954ea4c4635f915","","Mozilla/5.0 (Windows NT 10.0; Win64; x64) AppleWebKit/537.36 (KHTML, like Gecko) Chrome/130.0.0.0 Safari/537.36","WebKit","Chrome","130.0.0.0","Windows","10.0","https://hz8g1ckzuq.cognition.run/","en-US,en;q=0.9,en-GB;q=0.8","u96bx42a730cab8","27","[""Black or African-American""]","No","Female","1511661.2000000011","null","","<p></p>","null","rating","dtc","attraction_2","2","televisions","null","null","null","null","null","null","2","","","","","","","","","",""
"","","","","","rating_trial","survey-html-form","46","788742","0.0-3.0-1.21","47","1","2025-04-11 14:14:27","bb671e3ae32f654b8954ea4c4635f915","","Mozilla/5.0 (Windows NT 10.0; Win64; x64) AppleWebKit/537.36 (KHTML, like Gecko) Chrome/130.0.0.0 Safari/537.36","WebKit","Chrome","130.0.0.0","Windows","10.0","https://hz8g1ckzuq.cognition.run/","en-US,en;q=0.9,en-GB;q=0.8","u96bx42a730cab8","27","[""Black or African-American""]","No","Female","1511661.2000000011","12101","","","{""price_1"":""130"",""price_2"":""130"",""price_3"":""130""}","rating","dtc","attraction_2","2","televisions","null","null","null","null","null","null","2","50","60","40","60","50","60","Screen size","Average lifespan","",""
"","","","","","rating_trial_setup","html-keyboard-response","47","789047","0.0-3.0-0.22","47","1","2025-04-11 14:14:27","bb671e3ae32f654b8954ea4c4635f915","","Mozilla/5.0 (Windows NT 10.0; Win64; x64) AppleWebKit/537.36 (KHTML, like Gecko) Chrome/130.0.0.0 Safari/537.36","WebKit","Chrome","130.0.0.0","Windows","10.0","https://hz8g1ckzuq.cognition.run/","en-US,en;q=0.9,en-GB;q=0.8","u96bx42a730cab8","27","[""Black or African-American""]","No","Female","1511661.2000000011","null","","<p></p>","null","rating","tdc","attraction_2","1","washing machines","null","null","null","null","null","null","1","","","","","","","","","",""
"","","","","","rating_trial","survey-html-form","48","794237","0.0-3.0-1.22","47","1","2025-04-11 14:14:27","bb671e3ae32f654b8954ea4c4635f915","","Mozilla/5.0 (Windows NT 10.0; Win64; x64) AppleWebKit/537.36 (KHTML, like Gecko) Chrome/130.0.0.0 Safari/537.36","WebKit","Chrome","130.0.0.0","Windows","10.0","https://hz8g1ckzuq.cognition.run/","en-US,en;q=0.9,en-GB;q=0.8","u96bx42a730cab8","27","[""Black or African-American""]","No","Female","1511661.2000000011","5185","","","{""price_1"":""100"",""price_2"":""100"",""price_3"":""100""}","rating","tdc","attraction_2","1","washing machines","null","null","null","null","null","null","1","60","50","60","50","60","40","Average lifespan","Energy savings","",""
"","","","","","rating_trial_setup","html-keyboard-response","49","794541","0.0-3.0-0.23","47","1","2025-04-11 14:14:27","bb671e3ae32f654b8954ea4c4635f915","","Mozilla/5.0 (Windows NT 10.0; Win64; x64) AppleWebKit/537.36 (KHTML, like Gecko) Chrome/130.0.0.0 Safari/537.36","WebKit","Chrome","130.0.0.0","Windows","10.0","https://hz8g1ckzuq.cognition.run/","en-US,en;q=0.9,en-GB;q=0.8","u96bx42a730cab8","27","[""Black or African-American""]","No","Female","1511661.2000000011","null","","<p></p>","null","rating","tdc","repulsion_2","1","televisions","null","null","null","null","null","null","1","","","","","","","","","",""
"","","","","","rating_trial","survey-html-form","50","801409","0.0-3.0-1.23","47","1","2025-04-11 14:14:27","bb671e3ae32f654b8954ea4c4635f915","","Mozilla/5.0 (Windows NT 10.0; Win64; x64) AppleWebKit/537.36 (KHTML, like Gecko) Chrome/130.0.0.0 Safari/537.36","WebKit","Chrome","130.0.0.0","Windows","10.0","https://hz8g1ckzuq.cognition.run/","en-US,en;q=0.9,en-GB;q=0.8","u96bx42a730cab8","27","[""Black or African-American""]","No","Female","1511661.2000000011","6862","","","{""price_1"":""120"",""price_2"":""120"",""price_3"":""120""}","rating","tdc","repulsion_2","1","televisions","null","null","null","null","null","null","1","100","90","100","30","40","20","Screen size","Average lifespan","",""
"","","","","","rating_trial_setup","html-keyboard-response","51","801714","0.0-3.0-0.24","47","1","2025-04-11 14:14:27","bb671e3ae32f654b8954ea4c4635f915","","Mozilla/5.0 (Windows NT 10.0; Win64; x64) AppleWebKit/537.36 (KHTML, like Gecko) Chrome/130.0.0.0 Safari/537.36","WebKit","Chrome","130.0.0.0","Windows","10.0","https://hz8g1ckzuq.cognition.run/","en-US,en;q=0.9,en-GB;q=0.8","u96bx42a730cab8","27","[""Black or African-American""]","No","Female","1511661.2000000011","null","","<p></p>","null","rating","dtc","attraction_2","2","washing machines","null","null","null","null","null","null","1","","","","","","","","","",""
"","","","","","rating_trial","survey-html-form","52","807613","0.0-3.0-1.24","47","1","2025-04-11 14:14:27","bb671e3ae32f654b8954ea4c4635f915","","Mozilla/5.0 (Windows NT 10.0; Win64; x64) AppleWebKit/537.36 (KHTML, like Gecko) Chrome/130.0.0.0 Safari/537.36","WebKit","Chrome","130.0.0.0","Windows","10.0","https://hz8g1ckzuq.cognition.run/","en-US,en;q=0.9,en-GB;q=0.8","u96bx42a730cab8","27","[""Black or African-American""]","No","Female","1511661.2000000011","5895","","","{""price_1"":""80"",""price_2"":""80"",""price_3"":""80""}","rating","dtc","attraction_2","2","washing machines","null","null","null","null","null","null","1","50","60","40","60","50","60","Average lifespan","Energy savings","",""
"","","","","","rating_trial_setup","html-keyboard-response","53","807917","0.0-3.0-0.25","47","1","2025-04-11 14:14:27","bb671e3ae32f654b8954ea4c4635f915","","Mozilla/5.0 (Windows NT 10.0; Win64; x64) AppleWebKit/537.36 (KHTML, like Gecko) Chrome/130.0.0.0 Safari/537.36","WebKit","Chrome","130.0.0.0","Windows","10.0","https://hz8g1ckzuq.cognition.run/","en-US,en;q=0.9,en-GB;q=0.8","u96bx42a730cab8","27","[""Black or African-American""]","No","Female","1511661.2000000011","null","","<p></p>","null","rating","tcd","repulsion_2","2","televisions","null","null","null","null","null","null","2","","","","","","","","","",""
"","","","","","rating_trial","survey-html-form","54","817158","0.0-3.0-1.25","47","1","2025-04-11 14:14:27","bb671e3ae32f654b8954ea4c4635f915","","Mozilla/5.0 (Windows NT 10.0; Win64; x64) AppleWebKit/537.36 (KHTML, like Gecko) Chrome/130.0.0.0 Safari/537.36","WebKit","Chrome","130.0.0.0","Windows","10.0","https://hz8g1ckzuq.cognition.run/","en-US,en;q=0.9,en-GB;q=0.8","u96bx42a730cab8","27","[""Black or African-American""]","No","Female","1511661.2000000011","9235","","","{""price_1"":""130"",""price_2"":""130"",""price_3"":""130""}","rating","tcd","repulsion_2","2","televisions","null","null","null","null","null","null","2","30","40","20","100","90","100","Screen size","Average lifespan","",""
"","","","","","rating_trial_setup","html-keyboard-response","55","817463","0.0-3.0-0.26","47","1","2025-04-11 14:14:27","bb671e3ae32f654b8954ea4c4635f915","","Mozilla/5.0 (Windows NT 10.0; Win64; x64) AppleWebKit/537.36 (KHTML, like Gecko) Chrome/130.0.0.0 Safari/537.36","WebKit","Chrome","130.0.0.0","Windows","10.0","https://hz8g1ckzuq.cognition.run/","en-US,en;q=0.9,en-GB;q=0.8","u96bx42a730cab8","27","[""Black or African-American""]","No","Female","1511661.2000000011","null","","<p></p>","null","rating","dct","attraction_1","2","washing machines","null","null","null","null","null","null","2","","","","","","","","","",""
"","","","","","rating_trial","survey-html-form","56","829869","0.0-3.0-1.26","47","1","2025-04-11 14:14:27","bb671e3ae32f654b8954ea4c4635f915","","Mozilla/5.0 (Windows NT 10.0; Win64; x64) AppleWebKit/537.36 (KHTML, like Gecko) Chrome/130.0.0.0 Safari/537.36","WebKit","Chrome","130.0.0.0","Windows","10.0","https://hz8g1ckzuq.cognition.run/","en-US,en;q=0.9,en-GB;q=0.8","u96bx42a730cab8","27","[""Black or African-American""]","No","Female","1511661.2000000011","12401","","","{""price_1"":""90"",""price_2"":""90"",""price_3"":""90""}","rating","dct","attraction_1","2","washing machines","null","null","null","null","null","null","2","50","60","45","60","50","60","Average lifespan","Energy savings","",""
"","","","","","rating_trial_setup","html-keyboard-response","57","830175","0.0-3.0-0.27","47","1","2025-04-11 14:14:27","bb671e3ae32f654b8954ea4c4635f915","","Mozilla/5.0 (Windows NT 10.0; Win64; x64) AppleWebKit/537.36 (KHTML, like Gecko) Chrome/130.0.0.0 Safari/537.36","WebKit","Chrome","130.0.0.0","Windows","10.0","https://hz8g1ckzuq.cognition.run/","en-US,en;q=0.9,en-GB;q=0.8","u96bx42a730cab8","27","[""Black or African-American""]","No","Female","1511661.2000000011","null","","<p></p>","null","rating","cdt","repulsion_2","2","washing machines","null","null","null","null","null","null","1","","","","","","","","","",""
"","","","","","rating_trial","survey-html-form","58","839565","0.0-3.0-1.27","47","1","2025-04-11 14:14:27","bb671e3ae32f654b8954ea4c4635f915","","Mozilla/5.0 (Windows NT 10.0; Win64; x64) AppleWebKit/537.36 (KHTML, like Gecko) Chrome/130.0.0.0 Safari/537.36","WebKit","Chrome","130.0.0.0","Windows","10.0","https://hz8g1ckzuq.cognition.run/","en-US,en;q=0.9,en-GB;q=0.8","u96bx42a730cab8","27","[""Black or African-American""]","No","Female","1511661.2000000011","9385","","","{""price_1"":""100"",""price_2"":""100"",""price_3"":""100""}","rating","cdt","repulsion_2","2","washing machines","null","null","null","null","null","null","1","30","40","20","100","90","100","Average lifespan","Energy savings","",""
"","","","","","rating_trial_setup","html-keyboard-response","59","839871","0.0-3.0-0.28","47","1","2025-04-11 14:14:27","bb671e3ae32f654b8954ea4c4635f915","","Mozilla/5.0 (Windows NT 10.0; Win64; x64) AppleWebKit/537.36 (KHTML, like Gecko) Chrome/130.0.0.0 Safari/537.36","WebKit","Chrome","130.0.0.0","Windows","10.0","https://hz8g1ckzuq.cognition.run/","en-US,en;q=0.9,en-GB;q=0.8","u96bx42a730cab8","27","[""Black or African-American""]","No","Female","1511661.2000000011","null","","<p></p>","null","rating","dct","attraction_1","1","washing machines","null","null","null","null","null","null","1","","","","","","","","","",""
"","","","","","rating_trial","survey-html-form","60","849710","0.0-3.0-1.28","47","1","2025-04-11 14:14:27","bb671e3ae32f654b8954ea4c4635f915","","Mozilla/5.0 (Windows NT 10.0; Win64; x64) AppleWebKit/537.36 (KHTML, like Gecko) Chrome/130.0.0.0 Safari/537.36","WebKit","Chrome","130.0.0.0","Windows","10.0","https://hz8g1ckzuq.cognition.run/","en-US,en;q=0.9,en-GB;q=0.8","u96bx42a730cab8","27","[""Black or African-American""]","No","Female","1511661.2000000011","9835","","","{""price_1"":""110"",""price_2"":""110"",""price_3"":""100""}","rating","dct","attraction_1","1","washing machines","null","null","null","null","null","null","1","60","50","60","50","60","45","Average lifespan","Energy savings","",""
"","","","","","rating_trial_setup","html-keyboard-response","61","850016","0.0-3.0-0.29","47","1","2025-04-11 14:14:27","bb671e3ae32f654b8954ea4c4635f915","","Mozilla/5.0 (Windows NT 10.0; Win64; x64) AppleWebKit/537.36 (KHTML, like Gecko) Chrome/130.0.0.0 Safari/537.36","WebKit","Chrome","130.0.0.0","Windows","10.0","https://hz8g1ckzuq.cognition.run/","en-US,en;q=0.9,en-GB;q=0.8","u96bx42a730cab8","27","[""Black or African-American""]","No","Female","1511661.2000000011","null","","<p></p>","null","rating","ctd","attraction_1","1","televisions","null","null","null","null","null","null","1","","","","","","","","","",""
"","","","","","rating_trial","survey-html-form","62","863882","0.0-3.0-1.29","47","1","2025-04-11 14:14:27","bb671e3ae32f654b8954ea4c4635f915","","Mozilla/5.0 (Windows NT 10.0; Win64; x64) AppleWebKit/537.36 (KHTML, like Gecko) Chrome/130.0.0.0 Safari/537.36","WebKit","Chrome","130.0.0.0","Windows","10.0","https://hz8g1ckzuq.cognition.run/","en-US,en;q=0.9,en-GB;q=0.8","u96bx42a730cab8","27","[""Black or African-American""]","No","Female","1511661.2000000011","13860","","","{""price_1"":""130"",""price_2"":""130"",""price_3"":""130""}","rating","ctd","attraction_1","1","televisions","null","null","null","null","null","null","1","60","50","60","50","60","45","Screen size","Average lifespan","",""
"","","","","","rating_trial_setup","html-keyboard-response","63","864189","0.0-3.0-0.30","47","1","2025-04-11 14:14:27","bb671e3ae32f654b8954ea4c4635f915","","Mozilla/5.0 (Windows NT 10.0; Win64; x64) AppleWebKit/537.36 (KHTML, like Gecko) Chrome/130.0.0.0 Safari/537.36","WebKit","Chrome","130.0.0.0","Windows","10.0","https://hz8g1ckzuq.cognition.run/","en-US,en;q=0.9,en-GB;q=0.8","u96bx42a730cab8","27","[""Black or African-American""]","No","Female","1511661.2000000011","null","","<p></p>","null","rating","tdc","attraction_1","2","laptops","null","null","null","null","null","null","2","","","","","","","","","",""
"","","","","","rating_trial","survey-html-form","64","874482","0.0-3.0-1.30","47","1","2025-04-11 14:14:27","bb671e3ae32f654b8954ea4c4635f915","","Mozilla/5.0 (Windows NT 10.0; Win64; x64) AppleWebKit/537.36 (KHTML, like Gecko) Chrome/130.0.0.0 Safari/537.36","WebKit","Chrome","130.0.0.0","Windows","10.0","https://hz8g1ckzuq.cognition.run/","en-US,en;q=0.9,en-GB;q=0.8","u96bx42a730cab8","27","[""Black or African-American""]","No","Female","1511661.2000000011","10288","","","{""price_1"":""200"",""price_2"":""200"",""price_3"":""200""}","rating","tdc","attraction_1","2","laptops","null","null","null","null","null","null","2","50","60","45","60","50","60","Processing speed","Memory (RAM)","",""
"","","","","","rating_trial_setup","html-keyboard-response","65","874787","0.0-3.0-0.31","47","1","2025-04-11 14:14:27","bb671e3ae32f654b8954ea4c4635f915","","Mozilla/5.0 (Windows NT 10.0; Win64; x64) AppleWebKit/537.36 (KHTML, like Gecko) Chrome/130.0.0.0 Safari/537.36","WebKit","Chrome","130.0.0.0","Windows","10.0","https://hz8g1ckzuq.cognition.run/","en-US,en;q=0.9,en-GB;q=0.8","u96bx42a730cab8","27","[""Black or African-American""]","No","Female","1511661.2000000011","null","","<p></p>","null","rating","bww","catch","null","televisions","80","75","15","20","25","15","1","","","","","","","","","",""
"","","","","","rating_trial","survey-html-form","66","887708","0.0-3.0-1.31","47","1","2025-04-11 14:14:27","bb671e3ae32f654b8954ea4c4635f915","","Mozilla/5.0 (Windows NT 10.0; Win64; x64) AppleWebKit/537.36 (KHTML, like Gecko) Chrome/130.0.0.0 Safari/537.36","WebKit","Chrome","130.0.0.0","Windows","10.0","https://hz8g1ckzuq.cognition.run/","en-US,en;q=0.9,en-GB;q=0.8","u96bx42a730cab8","27","[""Black or African-American""]","No","Female","1511661.2000000011","12914","","","{""price_1"":""180"",""price_2"":""180"",""price_3"":""180""}","rating","bww","catch","null","televisions","80","75","15","20","25","15","1","null","null","null","null","null","null","Screen size","Average lifespan","",""
"","","","","","rating_trial_setup","html-keyboard-response","67","888013","0.0-3.0-0.32","47","1","2025-04-11 14:14:27","bb671e3ae32f654b8954ea4c4635f915","","Mozilla/5.0 (Windows NT 10.0; Win64; x64) AppleWebKit/537.36 (KHTML, like Gecko) Chrome/130.0.0.0 Safari/537.36","WebKit","Chrome","130.0.0.0","Windows","10.0","https://hz8g1ckzuq.cognition.run/","en-US,en;q=0.9,en-GB;q=0.8","u96bx42a730cab8","27","[""Black or African-American""]","No","Female","1511661.2000000011","null","","<p></p>","null","rating","dtc","attraction_2","1","televisions","null","null","null","null","null","null","1","","","","","","","","","",""
"","","","","","rating_trial","survey-html-form","68","895284","0.0-3.0-1.32","47","1","2025-04-11 14:14:27","bb671e3ae32f654b8954ea4c4635f915","","Mozilla/5.0 (Windows NT 10.0; Win64; x64) AppleWebKit/537.36 (KHTML, like Gecko) Chrome/130.0.0.0 Safari/537.36","WebKit","Chrome","130.0.0.0","Windows","10.0","https://hz8g1ckzuq.cognition.run/","en-US,en;q=0.9,en-GB;q=0.8","u96bx42a730cab8","27","[""Black or African-American""]","No","Female","1511661.2000000011","7265","","","{""price_1"":""180"",""price_2"":""180"",""price_3"":""180""}","rating","dtc","attraction_2","1","televisions","null","null","null","null","null","null","1","60","50","60","50","60","40","Screen size","Average lifespan","",""
"","","","","","rating_trial_setup","html-keyboard-response","69","895589","0.0-3.0-0.33","47","1","2025-04-11 14:14:27","bb671e3ae32f654b8954ea4c4635f915","","Mozilla/5.0 (Windows NT 10.0; Win64; x64) AppleWebKit/537.36 (KHTML, like Gecko) Chrome/130.0.0.0 Safari/537.36","WebKit","Chrome","130.0.0.0","Windows","10.0","https://hz8g1ckzuq.cognition.run/","en-US,en;q=0.9,en-GB;q=0.8","u96bx42a730cab8","27","[""Black or African-American""]","No","Female","1511661.2000000011","null","","<p></p>","null","rating","cdt","attraction_1","1","laptops","null","null","null","null","null","null","2","","","","","","","","","",""
"","","","","","rating_trial","survey-html-form","70","905001","0.0-3.0-1.33","47","1","2025-04-11 14:14:27","bb671e3ae32f654b8954ea4c4635f915","","Mozilla/5.0 (Windows NT 10.0; Win64; x64) AppleWebKit/537.36 (KHTML, like Gecko) Chrome/130.0.0.0 Safari/537.36","WebKit","Chrome","130.0.0.0","Windows","10.0","https://hz8g1ckzuq.cognition.run/","en-US,en;q=0.9,en-GB;q=0.8","u96bx42a730cab8","27","[""Black or African-American""]","No","Female","1511661.2000000011","9406","","","{""price_1"":""155"",""price_2"":""155"",""price_3"":""155""}","rating","cdt","attraction_1","1","laptops","null","null","null","null","null","null","2","60","50","60","50","60","45","Processing speed","Memory (RAM)","",""
"","","","","","rating_trial_setup","html-keyboard-response","71","905308","0.0-3.0-0.34","47","1","2025-04-11 14:14:27","bb671e3ae32f654b8954ea4c4635f915","","Mozilla/5.0 (Windows NT 10.0; Win64; x64) AppleWebKit/537.36 (KHTML, like Gecko) Chrome/130.0.0.0 Safari/537.36","WebKit","Chrome","130.0.0.0","Windows","10.0","https://hz8g1ckzuq.cognition.run/","en-US,en;q=0.9,en-GB;q=0.8","u96bx42a730cab8","27","[""Black or African-American""]","No","Female","1511661.2000000011","null","","<p></p>","null","rating","dct","repulsion_1","1","laptops","null","null","null","null","null","null","1","","","","","","","","","",""
"","","","","","rating_trial","survey-html-form","72","923027","0.0-3.0-1.34","47","1","2025-04-11 14:14:27","bb671e3ae32f654b8954ea4c4635f915","","Mozilla/5.0 (Windows NT 10.0; Win64; x64) AppleWebKit/537.36 (KHTML, like Gecko) Chrome/130.0.0.0 Safari/537.36","WebKit","Chrome","130.0.0.0","Windows","10.0","https://hz8g1ckzuq.cognition.run/","en-US,en;q=0.9,en-GB;q=0.8","u96bx42a730cab8","27","[""Black or African-American""]","No","Female","1511661.2000000011","17714","","","{""price_1"":""155"",""price_2"":""155"",""price_3"":""155""}","rating","dct","repulsion_1","1","laptops","null","null","null","null","null","null","1","100","90","100","30","40","25","Processing speed","Memory (RAM)","",""
"","","","","","rating_trial_setup","html-keyboard-response","73","923333","0.0-3.0-0.35","47","1","2025-04-11 14:14:27","bb671e3ae32f654b8954ea4c4635f915","","Mozilla/5.0 (Windows NT 10.0; Win64; x64) AppleWebKit/537.36 (KHTML, like Gecko) Chrome/130.0.0.0 Safari/537.36","WebKit","Chrome","130.0.0.0","Windows","10.0","https://hz8g1ckzuq.cognition.run/","en-US,en;q=0.9,en-GB;q=0.8","u96bx42a730cab8","27","[""Black or African-American""]","No","Female","1511661.2000000011","null","","<p></p>","null","rating","dtc","attraction_2","2","microwave ovens","null","null","null","null","null","null","1","","","","","","","","","",""
"","","","","","rating_trial","survey-html-form","74","937546","0.0-3.0-1.35","47","1","2025-04-11 14:14:27","bb671e3ae32f654b8954ea4c4635f915","","Mozilla/5.0 (Windows NT 10.0; Win64; x64) AppleWebKit/537.36 (KHTML, like Gecko) Chrome/130.0.0.0 Safari/537.36","WebKit","Chrome","130.0.0.0","Windows","10.0","https://hz8g1ckzuq.cognition.run/","en-US,en;q=0.9,en-GB;q=0.8","u96bx42a730cab8","27","[""Black or African-American""]","No","Female","1511661.2000000011","14207","","","{""price_1"":""170"",""price_2"":""180"",""price_3"":""180""}","rating","dtc","attraction_2","2","microwave ovens","null","null","null","null","null","null","1","50","60","40","60","50","60","Warranty","Cooking power","",""
"","","","","","rating_trial_setup","html-keyboard-response","75","937854","0.0-3.0-0.36","47","1","2025-04-11 14:14:27","bb671e3ae32f654b8954ea4c4635f915","","Mozilla/5.0 (Windows NT 10.0; Win64; x64) AppleWebKit/537.36 (KHTML, like Gecko) Chrome/130.0.0.0 Safari/537.36","WebKit","Chrome","130.0.0.0","Windows","10.0","https://hz8g1ckzuq.cognition.run/","en-US,en;q=0.9,en-GB;q=0.8","u96bx42a730cab8","27","[""Black or African-American""]","No","Female","1511661.2000000011","null","","<p></p>","null","rating","dct","repulsion_1","1","washing machines","null","null","null","null","null","null","2","","","","","","","","","",""
"","","","","","rating_trial","survey-html-form","76","988506","0.0-3.0-1.36","47","1","2025-04-11 14:14:27","bb671e3ae32f654b8954ea4c4635f915","","Mozilla/5.0 (Windows NT 10.0; Win64; x64) AppleWebKit/537.36 (KHTML, like Gecko) Chrome/130.0.0.0 Safari/537.36","WebKit","Chrome","130.0.0.0","Windows","10.0","https://hz8g1ckzuq.cognition.run/","en-US,en;q=0.9,en-GB;q=0.8","u96bx42a730cab8","27","[""Black or African-American""]","No","Female","1511661.2000000011","50646","","","{""price_1"":""140"",""price_2"":""140"",""price_3"":""140""}","rating","dct","repulsion_1","1","washing machines","null","null","null","null","null","null","2","100","90","100","30","40","25","Average lifespan","Energy savings","",""
"","","","","","rating_trial_setup","html-keyboard-response","77","988812","0.0-3.0-0.37","47","1","2025-04-11 14:14:27","bb671e3ae32f654b8954ea4c4635f915","","Mozilla/5.0 (Windows NT 10.0; Win64; x64) AppleWebKit/537.36 (KHTML, like Gecko) Chrome/130.0.0.0 Safari/537.36","WebKit","Chrome","130.0.0.0","Windows","10.0","https://hz8g1ckzuq.cognition.run/","en-US,en;q=0.9,en-GB;q=0.8","u96bx42a730cab8","27","[""Black or African-American""]","No","Female","1511661.2000000011","null","","<p></p>","null","rating","tcd","repulsion_1","1","televisions","null","null","null","null","null","null","2","","","","","","","","","",""
"","","","","","rating_trial","survey-html-form","78","998800","0.0-3.0-1.37","47","1","2025-04-11 14:14:27","bb671e3ae32f654b8954ea4c4635f915","","Mozilla/5.0 (Windows NT 10.0; Win64; x64) AppleWebKit/537.36 (KHTML, like Gecko) Chrome/130.0.0.0 Safari/537.36","WebKit","Chrome","130.0.0.0","Windows","10.0","https://hz8g1ckzuq.cognition.run/","en-US,en;q=0.9,en-GB;q=0.8","u96bx42a730cab8","27","[""Black or African-American""]","No","Female","1511661.2000000011","9981","","","{""price_1"":""100"",""price_2"":""100"",""price_3"":""100""}","rating","tcd","repulsion_1","1","televisions","null","null","null","null","null","null","2","100","90","100","30","40","25","Screen size","Average lifespan","",""
"","","","","","rating_trial_setup","html-keyboard-response","79","999105","0.0-3.0-0.38","47","1","2025-04-11 14:14:27","bb671e3ae32f654b8954ea4c4635f915","","Mozilla/5.0 (Windows NT 10.0; Win64; x64) AppleWebKit/537.36 (KHTML, like Gecko) Chrome/130.0.0.0 Safari/537.36","WebKit","Chrome","130.0.0.0","Windows","10.0","https://hz8g1ckzuq.cognition.run/","en-US,en;q=0.9,en-GB;q=0.8","u96bx42a730cab8","27","[""Black or African-American""]","No","Female","1511661.2000000011","null","","<p></p>","null","rating","cdt","attraction_2","1","laptops","null","null","null","null","null","null","2","","","","","","","","","",""
"","","","","","rating_trial","survey-html-form","80","1008776","0.0-3.0-1.38","47","1","2025-04-11 14:14:27","bb671e3ae32f654b8954ea4c4635f915","","Mozilla/5.0 (Windows NT 10.0; Win64; x64) AppleWebKit/537.36 (KHTML, like Gecko) Chrome/130.0.0.0 Safari/537.36","WebKit","Chrome","130.0.0.0","Windows","10.0","https://hz8g1ckzuq.cognition.run/","en-US,en;q=0.9,en-GB;q=0.8","u96bx42a730cab8","27","[""Black or African-American""]","No","Female","1511661.2000000011","9665","","","{""price_1"":""180"",""price_2"":""180"",""price_3"":""180""}","rating","cdt","attraction_2","1","laptops","null","null","null","null","null","null","2","60","50","60","50","60","40","Processing speed","Memory (RAM)","",""
"","","","","","rating_trial_setup","html-keyboard-response","81","1009083","0.0-3.0-0.39","47","1","2025-04-11 14:14:27","bb671e3ae32f654b8954ea4c4635f915","","Mozilla/5.0 (Windows NT 10.0; Win64; x64) AppleWebKit/537.36 (KHTML, like Gecko) Chrome/130.0.0.0 Safari/537.36","WebKit","Chrome","130.0.0.0","Windows","10.0","https://hz8g1ckzuq.cognition.run/","en-US,en;q=0.9,en-GB;q=0.8","u96bx42a730cab8","27","[""Black or African-American""]","No","Female","1511661.2000000011","null","","<p></p>","null","rating","cdt","repulsion_2","2","laptops","null","null","null","null","null","null","1","","","","","","","","","",""
"","","","","","rating_trial","survey-html-form","82","1029965","0.0-3.0-1.39","47","1","2025-04-11 14:14:27","bb671e3ae32f654b8954ea4c4635f915","","Mozilla/5.0 (Windows NT 10.0; Win64; x64) AppleWebKit/537.36 (KHTML, like Gecko) Chrome/130.0.0.0 Safari/537.36","WebKit","Chrome","130.0.0.0","Windows","10.0","https://hz8g1ckzuq.cognition.run/","en-US,en;q=0.9,en-GB;q=0.8","u96bx42a730cab8","27","[""Black or African-American""]","No","Female","1511661.2000000011","20879","","","{""price_1"":""170"",""price_2"":""170"",""price_3"":""170""}","rating","cdt","repulsion_2","2","laptops","null","null","null","null","null","null","1","30","40","20","100","90","100","Processing speed","Memory (RAM)","",""
"","","","","","","instructions","83","1216212","0.0-4.0","47","1","2025-04-11 14:14:27","bb671e3ae32f654b8954ea4c4635f915","","Mozilla/5.0 (Windows NT 10.0; Win64; x64) AppleWebKit/537.36 (KHTML, like Gecko) Chrome/130.0.0.0 Safari/537.36","WebKit","Chrome","130.0.0.0","Windows","10.0","https://hz8g1ckzuq.cognition.run/","en-US,en;q=0.9,en-GB;q=0.8","u96bx42a730cab8","27","[""Black or African-American""]","No","Female","1511661.2000000011","186242","[{""page_index"":0,""viewing_time"":3333},{""page_index"":1,""viewing_time"":2093},{""page_index"":2,""viewing_time"":3846},{""page_index"":3,""viewing_time"":5984},{""page_index"":4,""viewing_time"":63149},{""page_index"":5,""viewing_time"":25684},{""page_index"":6,""viewing_time"":19555},{""page_index"":7,""viewing_time"":62598}]","","","","","","","","","","","","","","","","","","","","","","","",""
"","","","","","choice_trial_setup","html-keyboard-response","84","1216520","0.0-5.0-0.0","47","1","2025-04-11 14:14:27","bb671e3ae32f654b8954ea4c4635f915","","Mozilla/5.0 (Windows NT 10.0; Win64; x64) AppleWebKit/537.36 (KHTML, like Gecko) Chrome/130.0.0.0 Safari/537.36","WebKit","Chrome","130.0.0.0","Windows","10.0","https://hz8g1ckzuq.cognition.run/","en-US,en;q=0.9,en-GB;q=0.8","u96bx42a730cab8","27","[""Black or African-American""]","No","Female","1511661.2000000011","null","","<p></p>","null","choice","dct","repulsion_1","1","televisions","null","null","null","null","null","null","2","","","","","","","","","",""
"","","","","","choice_trial","survey-html-form","85","1223155","0.0-5.0-1.0","47","1","2025-04-11 14:14:27","bb671e3ae32f654b8954ea4c4635f915","","Mozilla/5.0 (Windows NT 10.0; Win64; x64) AppleWebKit/537.36 (KHTML, like Gecko) Chrome/130.0.0.0 Safari/537.36","WebKit","Chrome","130.0.0.0","Windows","10.0","https://hz8g1ckzuq.cognition.run/","en-US,en;q=0.9,en-GB;q=0.8","u96bx42a730cab8","27","[""Black or African-American""]","No","Female","1511661.2000000011","6627","","","{""product_choice"":""B""}","choice","dct","repulsion_1","1","televisions","null","null","null","null","null","null","2","100","90","100","30","40","25","Screen size","Average lifespan","",""
"","","","","","choice_trial_setup","html-keyboard-response","86","1223461","0.0-5.0-0.1","47","1","2025-04-11 14:14:27","bb671e3ae32f654b8954ea4c4635f915","","Mozilla/5.0 (Windows NT 10.0; Win64; x64) AppleWebKit/537.36 (KHTML, like Gecko) Chrome/130.0.0.0 Safari/537.36","WebKit","Chrome","130.0.0.0","Windows","10.0","https://hz8g1ckzuq.cognition.run/","en-US,en;q=0.9,en-GB;q=0.8","u96bx42a730cab8","27","[""Black or African-American""]","No","Female","1511661.2000000011","null","","<p></p>","null","choice","wbw","catch","null","laptops","70","95","20","5","10","35","1","","","","","","","","","",""
"","","","","","choice_trial","survey-html-form","87","1227835","0.0-5.0-1.1","47","1","2025-04-11 14:14:27","bb671e3ae32f654b8954ea4c4635f915","","Mozilla/5.0 (Windows NT 10.0; Win64; x64) AppleWebKit/537.36 (KHTML, like Gecko) Chrome/130.0.0.0 Safari/537.36","WebKit","Chrome","130.0.0.0","Windows","10.0","https://hz8g1ckzuq.cognition.run/","en-US,en;q=0.9,en-GB;q=0.8","u96bx42a730cab8","27","[""Black or African-American""]","No","Female","1511661.2000000011","4366","","","{""product_choice"":""B""}","choice","wbw","catch","null","laptops","70","95","20","5","10","35","1","null","null","null","null","null","null","Processing speed","Memory (RAM)","",""
"","","","","","choice_trial_setup","html-keyboard-response","88","1228142","0.0-5.0-0.2","47","1","2025-04-11 14:14:27","bb671e3ae32f654b8954ea4c4635f915","","Mozilla/5.0 (Windows NT 10.0; Win64; x64) AppleWebKit/537.36 (KHTML, like Gecko) Chrome/130.0.0.0 Safari/537.36","WebKit","Chrome","130.0.0.0","Windows","10.0","https://hz8g1ckzuq.cognition.run/","en-US,en;q=0.9,en-GB;q=0.8","u96bx42a730cab8","27","[""Black or African-American""]","No","Female","1511661.2000000011","null","","<p></p>","null","choice","wwb","catch","null","laptops","75","70","40","30","40","20","1","","","","","","","","","",""
"","","","","","choice_trial","survey-html-form","89","1231322","0.0-5.0-1.2","47","1","2025-04-11 14:14:27","bb671e3ae32f654b8954ea4c4635f915","","Mozilla/5.0 (Windows NT 10.0; Win64; x64) AppleWebKit/537.36 (KHTML, like Gecko) Chrome/130.0.0.0 Safari/537.36","WebKit","Chrome","130.0.0.0","Windows","10.0","https://hz8g1ckzuq.cognition.run/","en-US,en;q=0.9,en-GB;q=0.8","u96bx42a730cab8","27","[""Black or African-American""]","No","Female","1511661.2000000011","3173","","","{""product_choice"":""C""}","choice","wwb","catch","null","laptops","75","70","40","30","40","20","1","null","null","null","null","null","null","Processing speed","Memory (RAM)","",""
"","","","","","choice_trial_setup","html-keyboard-response","90","1231631","0.0-5.0-0.3","47","1","2025-04-11 14:14:27","bb671e3ae32f654b8954ea4c4635f915","","Mozilla/5.0 (Windows NT 10.0; Win64; x64) AppleWebKit/537.36 (KHTML, like Gecko) Chrome/130.0.0.0 Safari/537.36","WebKit","Chrome","130.0.0.0","Windows","10.0","https://hz8g1ckzuq.cognition.run/","en-US,en;q=0.9,en-GB;q=0.8","u96bx42a730cab8","27","[""Black or African-American""]","No","Female","1511661.2000000011","null","","<p></p>","null","choice","tdc","repulsion_1","1","laptops","null","null","null","null","null","null","2","","","","","","","","","",""
"","","","","","choice_trial","survey-html-form","91","1235123","0.0-5.0-1.3","47","1","2025-04-11 14:14:27","bb671e3ae32f654b8954ea4c4635f915","","Mozilla/5.0 (Windows NT 10.0; Win64; x64) AppleWebKit/537.36 (KHTML, like Gecko) Chrome/130.0.0.0 Safari/537.36","WebKit","Chrome","130.0.0.0","Windows","10.0","https://hz8g1ckzuq.cognition.run/","en-US,en;q=0.9,en-GB;q=0.8","u96bx42a730cab8","27","[""Black or African-American""]","No","Female","1511661.2000000011","3485","","","{""product_choice"":""C""}","choice","tdc","repulsion_1","1","laptops","null","null","null","null","null","null","2","100","90","100","30","40","25","Processing speed","Memory (RAM)","",""
"","","","","","choice_trial_setup","html-keyboard-response","92","1235431","0.0-5.0-0.4","47","1","2025-04-11 14:14:27","bb671e3ae32f654b8954ea4c4635f915","","Mozilla/5.0 (Windows NT 10.0; Win64; x64) AppleWebKit/537.36 (KHTML, like Gecko) Chrome/130.0.0.0 Safari/537.36","WebKit","Chrome","130.0.0.0","Windows","10.0","https://hz8g1ckzuq.cognition.run/","en-US,en;q=0.9,en-GB;q=0.8","u96bx42a730cab8","27","[""Black or African-American""]","No","Female","1511661.2000000011","null","","<p></p>","null","choice","wbw","catch","null","microwave ovens","80","60","10","20","35","30","1","","","","","","","","","",""
"","","","","","choice_trial","survey-html-form","93","1243504","0.0-5.0-1.4","47","1","2025-04-11 14:14:27","bb671e3ae32f654b8954ea4c4635f915","","Mozilla/5.0 (Windows NT 10.0; Win64; x64) AppleWebKit/537.36 (KHTML, like Gecko) Chrome/130.0.0.0 Safari/537.36","WebKit","Chrome","130.0.0.0","Windows","10.0","https://hz8g1ckzuq.cognition.run/","en-US,en;q=0.9,en-GB;q=0.8","u96bx42a730cab8","27","[""Black or African-American""]","No","Female","1511661.2000000011","8066","","","{""product_choice"":""B""}","choice","wbw","catch","null","microwave ovens","80","60","10","20","35","30","1","null","null","null","null","null","null","Warranty","Cooking power","",""
"","","","","","choice_trial_setup","html-keyboard-response","94","1243813","0.0-5.0-0.5","47","1","2025-04-11 14:14:27","bb671e3ae32f654b8954ea4c4635f915","","Mozilla/5.0 (Windows NT 10.0; Win64; x64) AppleWebKit/537.36 (KHTML, like Gecko) Chrome/130.0.0.0 Safari/537.36","WebKit","Chrome","130.0.0.0","Windows","10.0","https://hz8g1ckzuq.cognition.run/","en-US,en;q=0.9,en-GB;q=0.8","u96bx42a730cab8","27","[""Black or African-American""]","No","Female","1511661.2000000011","null","","<p></p>","null","choice","tcd","attraction_2","1","televisions","null","null","null","null","null","null","1","","","","","","","","","",""
"","","","","","choice_trial","survey-html-form","95","1271499","0.0-5.0-1.5","47","1","2025-04-11 14:14:27","bb671e3ae32f654b8954ea4c4635f915","","Mozilla/5.0 (Windows NT 10.0; Win64; x64) AppleWebKit/537.36 (KHTML, like Gecko) Chrome/130.0.0.0 Safari/537.36","WebKit","Chrome","130.0.0.0","Windows","10.0","https://hz8g1ckzuq.cognition.run/","en-US,en;q=0.9,en-GB;q=0.8","u96bx42a730cab8","27","[""Black or African-American""]","No","Female","1511661.2000000011","27680","","","{""product_choice"":""B""}","choice","tcd","attraction_2","1","televisions","null","null","null","null","null","null","1","60","50","60","50","60","40","Screen size","Average lifespan","",""
"","","","","","choice_trial_setup","html-keyboard-response","96","1271805","0.0-5.0-0.6","47","1","2025-04-11 14:14:27","bb671e3ae32f654b8954ea4c4635f915","","Mozilla/5.0 (Windows NT 10.0; Win64; x64) AppleWebKit/537.36 (KHTML, like Gecko) Chrome/130.0.0.0 Safari/537.36","WebKit","Chrome","130.0.0.0","Windows","10.0","https://hz8g1ckzuq.cognition.run/","en-US,en;q=0.9,en-GB;q=0.8","u96bx42a730cab8","27","[""Black or African-American""]","No","Female","1511661.2000000011","null","","<p></p>","null","choice","dct","attraction_1","1","microwave ovens","null","null","null","null","null","null","1","","","","","","","","","",""
"","","","","","choice_trial","survey-html-form","97","1278020","0.0-5.0-1.6","47","1","2025-04-11 14:14:27","bb671e3ae32f654b8954ea4c4635f915","","Mozilla/5.0 (Windows NT 10.0; Win64; x64) AppleWebKit/537.36 (KHTML, like Gecko) Chrome/130.0.0.0 Safari/537.36","WebKit","Chrome","130.0.0.0","Windows","10.0","https://hz8g1ckzuq.cognition.run/","en-US,en;q=0.9,en-GB;q=0.8","u96bx42a730cab8","27","[""Black or African-American""]","No","Female","1511661.2000000011","6208","","","{""product_choice"":""B""}","choice","dct","attraction_1","1","microwave ovens","null","null","null","null","null","null","1","60","50","60","50","60","45","Warranty","Cooking power","",""
"","","","","","choice_trial_setup","html-keyboard-response","98","1278327","0.0-5.0-0.7","47","1","2025-04-11 14:14:27","bb671e3ae32f654b8954ea4c4635f915","","Mozilla/5.0 (Windows NT 10.0; Win64; x64) AppleWebKit/537.36 (KHTML, like Gecko) Chrome/130.0.0.0 Safari/537.36","WebKit","Chrome","130.0.0.0","Windows","10.0","https://hz8g1ckzuq.cognition.run/","en-US,en;q=0.9,en-GB;q=0.8","u96bx42a730cab8","27","[""Black or African-American""]","No","Female","1511661.2000000011","null","","<p></p>","null","choice","cdt","attraction_1","1","laptops","null","null","null","null","null","null","1","","","","","","","","","",""
"","","","","","choice_trial","survey-html-form","99","1280927","0.0-5.0-1.7","47","1","2025-04-11 14:14:27","bb671e3ae32f654b8954ea4c4635f915","","Mozilla/5.0 (Windows NT 10.0; Win64; x64) AppleWebKit/537.36 (KHTML, like Gecko) Chrome/130.0.0.0 Safari/537.36","WebKit","Chrome","130.0.0.0","Windows","10.0","https://hz8g1ckzuq.cognition.run/","en-US,en;q=0.9,en-GB;q=0.8","u96bx42a730cab8","27","[""Black or African-American""]","No","Female","1511661.2000000011","2592","","","{""product_choice"":""C""}","choice","cdt","attraction_1","1","laptops","null","null","null","null","null","null","1","60","50","60","50","60","45","Processing speed","Memory (RAM)","",""
"","","","","","choice_trial_setup","html-keyboard-response","100","1281235","0.0-5.0-0.8","47","1","2025-04-11 14:14:27","bb671e3ae32f654b8954ea4c4635f915","","Mozilla/5.0 (Windows NT 10.0; Win64; x64) AppleWebKit/537.36 (KHTML, like Gecko) Chrome/130.0.0.0 Safari/537.36","WebKit","Chrome","130.0.0.0","Windows","10.0","https://hz8g1ckzuq.cognition.run/","en-US,en;q=0.9,en-GB;q=0.8","u96bx42a730cab8","27","[""Black or African-American""]","No","Female","1511661.2000000011","null","","<p></p>","null","choice","ctd","repulsion_2","1","laptops","null","null","null","null","null","null","2","","","","","","","","","",""
"","","","","","choice_trial","survey-html-form","101","1284757","0.0-5.0-1.8","47","1","2025-04-11 14:14:27","bb671e3ae32f654b8954ea4c4635f915","","Mozilla/5.0 (Windows NT 10.0; Win64; x64) AppleWebKit/537.36 (KHTML, like Gecko) Chrome/130.0.0.0 Safari/537.36","WebKit","Chrome","130.0.0.0","Windows","10.0","https://hz8g1ckzuq.cognition.run/","en-US,en;q=0.9,en-GB;q=0.8","u96bx42a730cab8","27","[""Black or African-American""]","No","Female","1511661.2000000011","3515","","","{""product_choice"":""B""}","choice","ctd","repulsion_2","1","laptops","null","null","null","null","null","null","2","100","90","100","30","40","20","Processing speed","Memory (RAM)","",""
"","","","","","choice_trial_setup","html-keyboard-response","102","1285066","0.0-5.0-0.9","47","1","2025-04-11 14:14:27","bb671e3ae32f654b8954ea4c4635f915","","Mozilla/5.0 (Windows NT 10.0; Win64; x64) AppleWebKit/537.36 (KHTML, like Gecko) Chrome/130.0.0.0 Safari/537.36","WebKit","Chrome","130.0.0.0","Windows","10.0","https://hz8g1ckzuq.cognition.run/","en-US,en;q=0.9,en-GB;q=0.8","u96bx42a730cab8","27","[""Black or African-American""]","No","Female","1511661.2000000011","null","","<p></p>","null","choice","tcd","attraction_2","1","laptops","null","null","null","null","null","null","2","","","","","","","","","",""
"","","","","","choice_trial","survey-html-form","103","1290798","0.0-5.0-1.9","47","1","2025-04-11 14:14:27","bb671e3ae32f654b8954ea4c4635f915","","Mozilla/5.0 (Windows NT 10.0; Win64; x64) AppleWebKit/537.36 (KHTML, like Gecko) Chrome/130.0.0.0 Safari/537.36","WebKit","Chrome","130.0.0.0","Windows","10.0","https://hz8g1ckzuq.cognition.run/","en-US,en;q=0.9,en-GB;q=0.8","u96bx42a730cab8","27","[""Black or African-American""]","No","Female","1511661.2000000011","5725","","","{""product_choice"":""B""}","choice","tcd","attraction_2","1","laptops","null","null","null","null","null","null","2","60","50","60","50","60","40","Processing speed","Memory (RAM)","",""
"","","","","","choice_trial_setup","html-keyboard-response","104","1291105","0.0-5.0-0.10","47","1","2025-04-11 14:14:27","bb671e3ae32f654b8954ea4c4635f915","","Mozilla/5.0 (Windows NT 10.0; Win64; x64) AppleWebKit/537.36 (KHTML, like Gecko) Chrome/130.0.0.0 Safari/537.36","WebKit","Chrome","130.0.0.0","Windows","10.0","https://hz8g1ckzuq.cognition.run/","en-US,en;q=0.9,en-GB;q=0.8","u96bx42a730cab8","27","[""Black or African-American""]","No","Female","1511661.2000000011","null","","<p></p>","null","choice","dtc","attraction_1","1","televisions","null","null","null","null","null","null","1","","","","","","","","","",""
"","","","","","choice_trial","survey-html-form","105","1293513","0.0-5.0-1.10","47","1","2025-04-11 14:14:27","bb671e3ae32f654b8954ea4c4635f915","","Mozilla/5.0 (Windows NT 10.0; Win64; x64) AppleWebKit/537.36 (KHTML, like Gecko) Chrome/130.0.0.0 Safari/537.36","WebKit","Chrome","130.0.0.0","Windows","10.0","https://hz8g1ckzuq.cognition.run/","en-US,en;q=0.9,en-GB;q=0.8","u96bx42a730cab8","27","[""Black or African-American""]","No","Female","1511661.2000000011","2400","","","{""product_choice"":""B""}","choice","dtc","attraction_1","1","televisions","null","null","null","null","null","null","1","60","50","60","50","60","45","Screen size","Average lifespan","",""
"","","","","","choice_trial_setup","html-keyboard-response","106","1293820","0.0-5.0-0.11","47","1","2025-04-11 14:14:27","bb671e3ae32f654b8954ea4c4635f915","","Mozilla/5.0 (Windows NT 10.0; Win64; x64) AppleWebKit/537.36 (KHTML, like Gecko) Chrome/130.0.0.0 Safari/537.36","WebKit","Chrome","130.0.0.0","Windows","10.0","https://hz8g1ckzuq.cognition.run/","en-US,en;q=0.9,en-GB;q=0.8","u96bx42a730cab8","27","[""Black or African-American""]","No","Female","1511661.2000000011","null","","<p></p>","null","choice","dct","repulsion_1","1","washing machines","null","null","null","null","null","null","2","","","","","","","","","",""
"","","","","","choice_trial","survey-html-form","107","1296936","0.0-5.0-1.11","47","1","2025-04-11 14:14:27","bb671e3ae32f654b8954ea4c4635f915","","Mozilla/5.0 (Windows NT 10.0; Win64; x64) AppleWebKit/537.36 (KHTML, like Gecko) Chrome/130.0.0.0 Safari/537.36","WebKit","Chrome","130.0.0.0","Windows","10.0","https://hz8g1ckzuq.cognition.run/","en-US,en;q=0.9,en-GB;q=0.8","u96bx42a730cab8","27","[""Black or African-American""]","No","Female","1511661.2000000011","3109","","","{""product_choice"":""B""}","choice","dct","repulsion_1","1","washing machines","null","null","null","null","null","null","2","100","90","100","30","40","25","Average lifespan","Energy savings","",""
"","","","","","choice_trial_setup","html-keyboard-response","108","1297243","0.0-5.0-0.12","47","1","2025-04-11 14:14:27","bb671e3ae32f654b8954ea4c4635f915","","Mozilla/5.0 (Windows NT 10.0; Win64; x64) AppleWebKit/537.36 (KHTML, like Gecko) Chrome/130.0.0.0 Safari/537.36","WebKit","Chrome","130.0.0.0","Windows","10.0","https://hz8g1ckzuq.cognition.run/","en-US,en;q=0.9,en-GB;q=0.8","u96bx42a730cab8","27","[""Black or African-American""]","No","Female","1511661.2000000011","null","","<p></p>","null","choice","dtc","repulsion_2","2","televisions","null","null","null","null","null","null","1","","","","","","","","","",""
"","","","","","choice_trial","survey-html-form","109","1301032","0.0-5.0-1.12","47","1","2025-04-11 14:14:27","bb671e3ae32f654b8954ea4c4635f915","","Mozilla/5.0 (Windows NT 10.0; Win64; x64) AppleWebKit/537.36 (KHTML, like Gecko) Chrome/130.0.0.0 Safari/537.36","WebKit","Chrome","130.0.0.0","Windows","10.0","https://hz8g1ckzuq.cognition.run/","en-US,en;q=0.9,en-GB;q=0.8","u96bx42a730cab8","27","[""Black or African-American""]","No","Female","1511661.2000000011","3785","","","{""product_choice"":""C""}","choice","dtc","repulsion_2","2","televisions","null","null","null","null","null","null","1","30","40","20","100","90","100","Screen size","Average lifespan","",""
"","","","","","choice_trial_setup","html-keyboard-response","110","1301340","0.0-5.0-0.13","47","1","2025-04-11 14:14:27","bb671e3ae32f654b8954ea4c4635f915","","Mozilla/5.0 (Windows NT 10.0; Win64; x64) AppleWebKit/537.36 (KHTML, like Gecko) Chrome/130.0.0.0 Safari/537.36","WebKit","Chrome","130.0.0.0","Windows","10.0","https://hz8g1ckzuq.cognition.run/","en-US,en;q=0.9,en-GB;q=0.8","u96bx42a730cab8","27","[""Black or African-American""]","No","Female","1511661.2000000011","null","","<p></p>","null","choice","dct","attraction_2","2","televisions","null","null","null","null","null","null","1","","","","","","","","","",""
"","","","","","choice_trial","survey-html-form","111","1305099","0.0-5.0-1.13","47","1","2025-04-11 14:14:27","bb671e3ae32f654b8954ea4c4635f915","","Mozilla/5.0 (Windows NT 10.0; Win64; x64) AppleWebKit/537.36 (KHTML, like Gecko) Chrome/130.0.0.0 Safari/537.36","WebKit","Chrome","130.0.0.0","Windows","10.0","https://hz8g1ckzuq.cognition.run/","en-US,en;q=0.9,en-GB;q=0.8","u96bx42a730cab8","27","[""Black or African-American""]","No","Female","1511661.2000000011","3751","","","{""product_choice"":""C""}","choice","dct","attraction_2","2","televisions","null","null","null","null","null","null","1","50","60","40","60","50","60","Screen size","Average lifespan","",""
"","","","","","choice_trial_setup","html-keyboard-response","112","1305407","0.0-5.0-0.14","47","1","2025-04-11 14:14:27","bb671e3ae32f654b8954ea4c4635f915","","Mozilla/5.0 (Windows NT 10.0; Win64; x64) AppleWebKit/537.36 (KHTML, like Gecko) Chrome/130.0.0.0 Safari/537.36","WebKit","Chrome","130.0.0.0","Windows","10.0","https://hz8g1ckzuq.cognition.run/","en-US,en;q=0.9,en-GB;q=0.8","u96bx42a730cab8","27","[""Black or African-American""]","No","Female","1511661.2000000011","null","","<p></p>","null","choice","tdc","repulsion_1","2","laptops","null","null","null","null","null","null","2","","","","","","","","","",""
"","","","","","choice_trial","survey-html-form","113","1308674","0.0-5.0-1.14","47","1","2025-04-11 14:14:27","bb671e3ae32f654b8954ea4c4635f915","","Mozilla/5.0 (Windows NT 10.0; Win64; x64) AppleWebKit/537.36 (KHTML, like Gecko) Chrome/130.0.0.0 Safari/537.36","WebKit","Chrome","130.0.0.0","Windows","10.0","https://hz8g1ckzuq.cognition.run/","en-US,en;q=0.9,en-GB;q=0.8","u96bx42a730cab8","27","[""Black or African-American""]","No","Female","1511661.2000000011","3259","","","{""product_choice"":""C""}","choice","tdc","repulsion_1","2","laptops","null","null","null","null","null","null","2","30","40","25","100","90","100","Processing speed","Memory (RAM)","",""
"","","","","","choice_trial_setup","html-keyboard-response","114","1308982","0.0-5.0-0.15","47","1","2025-04-11 14:14:27","bb671e3ae32f654b8954ea4c4635f915","","Mozilla/5.0 (Windows NT 10.0; Win64; x64) AppleWebKit/537.36 (KHTML, like Gecko) Chrome/130.0.0.0 Safari/537.36","WebKit","Chrome","130.0.0.0","Windows","10.0","https://hz8g1ckzuq.cognition.run/","en-US,en;q=0.9,en-GB;q=0.8","u96bx42a730cab8","27","[""Black or African-American""]","No","Female","1511661.2000000011","null","","<p></p>","null","choice","ctd","attraction_2","2","microwave ovens","null","null","null","null","null","null","2","","","","","","","","","",""
"","","","","","choice_trial","survey-html-form","115","1348138","0.0-5.0-1.15","47","1","2025-04-11 14:14:27","bb671e3ae32f654b8954ea4c4635f915","","Mozilla/5.0 (Windows NT 10.0; Win64; x64) AppleWebKit/537.36 (KHTML, like Gecko) Chrome/130.0.0.0 Safari/537.36","WebKit","Chrome","130.0.0.0","Windows","10.0","https://hz8g1ckzuq.cognition.run/","en-US,en;q=0.9,en-GB;q=0.8","u96bx42a730cab8","27","[""Black or African-American""]","No","Female","1511661.2000000011","39153","","","{""product_choice"":""A""}","choice","ctd","attraction_2","2","microwave ovens","null","null","null","null","null","null","2","50","60","40","60","50","60","Warranty","Cooking power","",""
"","","","","","choice_trial_setup","html-keyboard-response","116","1348446","0.0-5.0-0.16","47","1","2025-04-11 14:14:27","bb671e3ae32f654b8954ea4c4635f915","","Mozilla/5.0 (Windows NT 10.0; Win64; x64) AppleWebKit/537.36 (KHTML, like Gecko) Chrome/130.0.0.0 Safari/537.36","WebKit","Chrome","130.0.0.0","Windows","10.0","https://hz8g1ckzuq.cognition.run/","en-US,en;q=0.9,en-GB;q=0.8","u96bx42a730cab8","27","[""Black or African-American""]","No","Female","1511661.2000000011","null","","<p></p>","null","choice","wbw","catch","null","washing machines","80","55","15","30","25","45","2","","","","","","","","","",""
"","","","","","choice_trial","survey-html-form","117","1352307","0.0-5.0-1.16","47","1","2025-04-11 14:14:27","bb671e3ae32f654b8954ea4c4635f915","","Mozilla/5.0 (Windows NT 10.0; Win64; x64) AppleWebKit/537.36 (KHTML, like Gecko) Chrome/130.0.0.0 Safari/537.36","WebKit","Chrome","130.0.0.0","Windows","10.0","https://hz8g1ckzuq.cognition.run/","en-US,en;q=0.9,en-GB;q=0.8","u96bx42a730cab8","27","[""Black or African-American""]","No","Female","1511661.2000000011","3853","","","{""product_choice"":""B""}","choice","wbw","catch","null","washing machines","80","55","15","30","25","45","2","null","null","null","null","null","null","Average lifespan","Energy savings","",""
"","","","","","choice_trial_setup","html-keyboard-response","118","1352614","0.0-5.0-0.17","47","1","2025-04-11 14:14:27","bb671e3ae32f654b8954ea4c4635f915","","Mozilla/5.0 (Windows NT 10.0; Win64; x64) AppleWebKit/537.36 (KHTML, like Gecko) Chrome/130.0.0.0 Safari/537.36","WebKit","Chrome","130.0.0.0","Windows","10.0","https://hz8g1ckzuq.cognition.run/","en-US,en;q=0.9,en-GB;q=0.8","u96bx42a730cab8","27","[""Black or African-American""]","No","Female","1511661.2000000011","null","","<p></p>","null","choice","dct","repulsion_1","2","televisions","null","null","null","null","null","null","1","","","","","","","","","",""
"","","","","","choice_trial","survey-html-form","119","1361215","0.0-5.0-1.17","47","1","2025-04-11 14:14:27","bb671e3ae32f654b8954ea4c4635f915","","Mozilla/5.0 (Windows NT 10.0; Win64; x64) AppleWebKit/537.36 (KHTML, like Gecko) Chrome/130.0.0.0 Safari/537.36","WebKit","Chrome","130.0.0.0","Windows","10.0","https://hz8g1ckzuq.cognition.run/","en-US,en;q=0.9,en-GB;q=0.8","u96bx42a730cab8","27","[""Black or African-American""]","No","Female","1511661.2000000011","8593","","","{""product_choice"":""B""}","choice","dct","repulsion_1","2","televisions","null","null","null","null","null","null","1","30","40","25","100","90","100","Screen size","Average lifespan","",""
"","","","","","choice_trial_setup","html-keyboard-response","120","1361521","0.0-5.0-0.18","47","1","2025-04-11 14:14:27","bb671e3ae32f654b8954ea4c4635f915","","Mozilla/5.0 (Windows NT 10.0; Win64; x64) AppleWebKit/537.36 (KHTML, like Gecko) Chrome/130.0.0.0 Safari/537.36","WebKit","Chrome","130.0.0.0","Windows","10.0","https://hz8g1ckzuq.cognition.run/","en-US,en;q=0.9,en-GB;q=0.8","u96bx42a730cab8","27","[""Black or African-American""]","No","Female","1511661.2000000011","null","","<p></p>","null","choice","ctd","attraction_1","2","laptops","null","null","null","null","null","null","1","","","","","","","","","",""
"","","","","","choice_trial","survey-html-form","121","1364242","0.0-5.0-1.18","47","1","2025-04-11 14:14:27","bb671e3ae32f654b8954ea4c4635f915","","Mozilla/5.0 (Windows NT 10.0; Win64; x64) AppleWebKit/537.36 (KHTML, like Gecko) Chrome/130.0.0.0 Safari/537.36","WebKit","Chrome","130.0.0.0","Windows","10.0","https://hz8g1ckzuq.cognition.run/","en-US,en;q=0.9,en-GB;q=0.8","u96bx42a730cab8","27","[""Black or African-American""]","No","Female","1511661.2000000011","2713","","","{""product_choice"":""B""}","choice","ctd","attraction_1","2","laptops","null","null","null","null","null","null","1","50","60","45","60","50","60","Processing speed","Memory (RAM)","",""
"","","","","","choice_trial_setup","html-keyboard-response","122","1364550","0.0-5.0-0.19","47","1","2025-04-11 14:14:27","bb671e3ae32f654b8954ea4c4635f915","","Mozilla/5.0 (Windows NT 10.0; Win64; x64) AppleWebKit/537.36 (KHTML, like Gecko) Chrome/130.0.0.0 Safari/537.36","WebKit","Chrome","130.0.0.0","Windows","10.0","https://hz8g1ckzuq.cognition.run/","en-US,en;q=0.9,en-GB;q=0.8","u96bx42a730cab8","27","[""Black or African-American""]","No","Female","1511661.2000000011","null","","<p></p>","null","choice","tcd","attraction_1","2","microwave ovens","null","null","null","null","null","null","1","","","","","","","","","",""
"","","","","","choice_trial","survey-html-form","123","1366962","0.0-5.0-1.19","47","1","2025-04-11 14:14:27","bb671e3ae32f654b8954ea4c4635f915","","Mozilla/5.0 (Windows NT 10.0; Win64; x64) AppleWebKit/537.36 (KHTML, like Gecko) Chrome/130.0.0.0 Safari/537.36","WebKit","Chrome","130.0.0.0","Windows","10.0","https://hz8g1ckzuq.cognition.run/","en-US,en;q=0.9,en-GB;q=0.8","u96bx42a730cab8","27","[""Black or African-American""]","No","Female","1511661.2000000011","2406","","","{""product_choice"":""B""}","choice","tcd","attraction_1","2","microwave ovens","null","null","null","null","null","null","1","50","60","45","60","50","60","Warranty","Cooking power","",""
"","","","","","choice_trial_setup","html-keyboard-response","124","1367268","0.0-5.0-0.20","47","1","2025-04-11 14:14:27","bb671e3ae32f654b8954ea4c4635f915","","Mozilla/5.0 (Windows NT 10.0; Win64; x64) AppleWebKit/537.36 (KHTML, like Gecko) Chrome/130.0.0.0 Safari/537.36","WebKit","Chrome","130.0.0.0","Windows","10.0","https://hz8g1ckzuq.cognition.run/","en-US,en;q=0.9,en-GB;q=0.8","u96bx42a730cab8","27","[""Black or African-American""]","No","Female","1511661.2000000011","null","","<p></p>","null","choice","wbw","catch","null","washing machines","95","70","20","15","40","5","1","","","","","","","","","",""
"","","","","","choice_trial","survey-html-form","125","1369446","0.0-5.0-1.20","47","1","2025-04-11 14:14:27","bb671e3ae32f654b8954ea4c4635f915","","Mozilla/5.0 (Windows NT 10.0; Win64; x64) AppleWebKit/537.36 (KHTML, like Gecko) Chrome/130.0.0.0 Safari/537.36","WebKit","Chrome","130.0.0.0","Windows","10.0","https://hz8g1ckzuq.cognition.run/","en-US,en;q=0.9,en-GB;q=0.8","u96bx42a730cab8","27","[""Black or African-American""]","No","Female","1511661.2000000011","2170","","","{""product_choice"":""B""}","choice","wbw","catch","null","washing machines","95","70","20","15","40","5","1","null","null","null","null","null","null","Average lifespan","Energy savings","",""
"","","","","","choice_trial_setup","html-keyboard-response","126","1369754","0.0-5.0-0.21","47","1","2025-04-11 14:14:27","bb671e3ae32f654b8954ea4c4635f915","","Mozilla/5.0 (Windows NT 10.0; Win64; x64) AppleWebKit/537.36 (KHTML, like Gecko) Chrome/130.0.0.0 Safari/537.36","WebKit","Chrome","130.0.0.0","Windows","10.0","https://hz8g1ckzuq.cognition.run/","en-US,en;q=0.9,en-GB;q=0.8","u96bx42a730cab8","27","[""Black or African-American""]","No","Female","1511661.2000000011","null","","<p></p>","null","choice","dct","repulsion_1","1","microwave ovens","null","null","null","null","null","null","1","","","","","","","","","",""
"","","","","","choice_trial","survey-html-form","127","1372939","0.0-5.0-1.21","47","1","2025-04-11 14:14:27","bb671e3ae32f654b8954ea4c4635f915","","Mozilla/5.0 (Windows NT 10.0; Win64; x64) AppleWebKit/537.36 (KHTML, like Gecko) Chrome/130.0.0.0 Safari/537.36","WebKit","Chrome","130.0.0.0","Windows","10.0","https://hz8g1ckzuq.cognition.run/","en-US,en;q=0.9,en-GB;q=0.8","u96bx42a730cab8","27","[""Black or African-American""]","No","Female","1511661.2000000011","3180","","","{""product_choice"":""C""}","choice","dct","repulsion_1","1","microwave ovens","null","null","null","null","null","null","1","100","90","100","30","40","25","Warranty","Cooking power","",""
"","","","","","choice_trial_setup","html-keyboard-response","128","1373249","0.0-5.0-0.22","47","1","2025-04-11 14:14:27","bb671e3ae32f654b8954ea4c4635f915","","Mozilla/5.0 (Windows NT 10.0; Win64; x64) AppleWebKit/537.36 (KHTML, like Gecko) Chrome/130.0.0.0 Safari/537.36","WebKit","Chrome","130.0.0.0","Windows","10.0","https://hz8g1ckzuq.cognition.run/","en-US,en;q=0.9,en-GB;q=0.8","u96bx42a730cab8","27","[""Black or African-American""]","No","Female","1511661.2000000011","null","","<p></p>","null","choice","tcd","repulsion_2","1","washing machines","null","null","null","null","null","null","2","","","","","","","","","",""
"","","","","","choice_trial","survey-html-form","129","1378838","0.0-5.0-1.22","47","1","2025-04-11 14:14:27","bb671e3ae32f654b8954ea4c4635f915","","Mozilla/5.0 (Windows NT 10.0; Win64; x64) AppleWebKit/537.36 (KHTML, like Gecko) Chrome/130.0.0.0 Safari/537.36","WebKit","Chrome","130.0.0.0","Windows","10.0","https://hz8g1ckzuq.cognition.run/","en-US,en;q=0.9,en-GB;q=0.8","u96bx42a730cab8","27","[""Black or African-American""]","No","Female","1511661.2000000011","5581","","","{""product_choice"":""A""}","choice","tcd","repulsion_2","1","washing machines","null","null","null","null","null","null","2","100","90","100","30","40","20","Average lifespan","Energy savings","",""
"","","","","","choice_trial_setup","html-keyboard-response","130","1379147","0.0-5.0-0.23","47","1","2025-04-11 14:14:27","bb671e3ae32f654b8954ea4c4635f915","","Mozilla/5.0 (Windows NT 10.0; Win64; x64) AppleWebKit/537.36 (KHTML, like Gecko) Chrome/130.0.0.0 Safari/537.36","WebKit","Chrome","130.0.0.0","Windows","10.0","https://hz8g1ckzuq.cognition.run/","en-US,en;q=0.9,en-GB;q=0.8","u96bx42a730cab8","27","[""Black or African-American""]","No","Female","1511661.2000000011","null","","<p></p>","null","choice","tdc","attraction_2","2","washing machines","null","null","null","null","null","null","1","","","","","","","","","",""
"","","","","","choice_trial","survey-html-form","131","1384591","0.0-5.0-1.23","47","1","2025-04-11 14:14:27","bb671e3ae32f654b8954ea4c4635f915","","Mozilla/5.0 (Windows NT 10.0; Win64; x64) AppleWebKit/537.36 (KHTML, like Gecko) Chrome/130.0.0.0 Safari/537.36","WebKit","Chrome","130.0.0.0","Windows","10.0","https://hz8g1ckzuq.cognition.run/","en-US,en;q=0.9,en-GB;q=0.8","u96bx42a730cab8","27","[""Black or African-American""]","No","Female","1511661.2000000011","5436","","","{""product_choice"":""A""}","choice","tdc","attraction_2","2","washing machines","null","null","null","null","null","null","1","50","60","40","60","50","60","Average lifespan","Energy savings","",""
"","","","","","choice_trial_setup","html-keyboard-response","132","1384899","0.0-5.0-0.24","47","1","2025-04-11 14:14:27","bb671e3ae32f654b8954ea4c4635f915","","Mozilla/5.0 (Windows NT 10.0; Win64; x64) AppleWebKit/537.36 (KHTML, like Gecko) Chrome/130.0.0.0 Safari/537.36","WebKit","Chrome","130.0.0.0","Windows","10.0","https://hz8g1ckzuq.cognition.run/","en-US,en;q=0.9,en-GB;q=0.8","u96bx42a730cab8","27","[""Black or African-American""]","No","Female","1511661.2000000011","null","","<p></p>","null","choice","tcd","repulsion_2","2","microwave ovens","null","null","null","null","null","null","2","","","","","","","","","",""
"","","","","","choice_trial","survey-html-form","133","1404886","0.0-5.0-1.24","47","1","2025-04-11 14:14:27","bb671e3ae32f654b8954ea4c4635f915","","Mozilla/5.0 (Windows NT 10.0; Win64; x64) AppleWebKit/537.36 (KHTML, like Gecko) Chrome/130.0.0.0 Safari/537.36","WebKit","Chrome","130.0.0.0","Windows","10.0","https://hz8g1ckzuq.cognition.run/","en-US,en;q=0.9,en-GB;q=0.8","u96bx42a730cab8","27","[""Black or African-American""]","No","Female","1511661.2000000011","19978","","","{""product_choice"":""B""}","choice","tcd","repulsion_2","2","microwave ovens","null","null","null","null","null","null","2","30","40","20","100","90","100","Warranty","Cooking power","",""
"","","","","","choice_trial_setup","html-keyboard-response","134","1405196","0.0-5.0-0.25","47","1","2025-04-11 14:14:27","bb671e3ae32f654b8954ea4c4635f915","","Mozilla/5.0 (Windows NT 10.0; Win64; x64) AppleWebKit/537.36 (KHTML, like Gecko) Chrome/130.0.0.0 Safari/537.36","WebKit","Chrome","130.0.0.0","Windows","10.0","https://hz8g1ckzuq.cognition.run/","en-US,en;q=0.9,en-GB;q=0.8","u96bx42a730cab8","27","[""Black or African-American""]","No","Female","1511661.2000000011","null","","<p></p>","null","choice","dtc","attraction_2","1","washing machines","null","null","null","null","null","null","2","","","","","","","","","",""
"","","","","","choice_trial","survey-html-form","135","1409123","0.0-5.0-1.25","47","1","2025-04-11 14:14:27","bb671e3ae32f654b8954ea4c4635f915","","Mozilla/5.0 (Windows NT 10.0; Win64; x64) AppleWebKit/537.36 (KHTML, like Gecko) Chrome/130.0.0.0 Safari/537.36","WebKit","Chrome","130.0.0.0","Windows","10.0","https://hz8g1ckzuq.cognition.run/","en-US,en;q=0.9,en-GB;q=0.8","u96bx42a730cab8","27","[""Black or African-American""]","No","Female","1511661.2000000011","3918","","","{""product_choice"":""B""}","choice","dtc","attraction_2","1","washing machines","null","null","null","null","null","null","2","60","50","60","50","60","40","Average lifespan","Energy savings","",""
"","","","","","choice_trial_setup","html-keyboard-response","136","1409430","0.0-5.0-0.26","47","1","2025-04-11 14:14:27","bb671e3ae32f654b8954ea4c4635f915","","Mozilla/5.0 (Windows NT 10.0; Win64; x64) AppleWebKit/537.36 (KHTML, like Gecko) Chrome/130.0.0.0 Safari/537.36","WebKit","Chrome","130.0.0.0","Windows","10.0","https://hz8g1ckzuq.cognition.run/","en-US,en;q=0.9,en-GB;q=0.8","u96bx42a730cab8","27","[""Black or African-American""]","No","Female","1511661.2000000011","null","","<p></p>","null","choice","dct","attraction_1","1","washing machines","null","null","null","null","null","null","1","","","","","","","","","",""
"","","","","","choice_trial","survey-html-form","137","1414662","0.0-5.0-1.26","47","1","2025-04-11 14:14:27","bb671e3ae32f654b8954ea4c4635f915","","Mozilla/5.0 (Windows NT 10.0; Win64; x64) AppleWebKit/537.36 (KHTML, like Gecko) Chrome/130.0.0.0 Safari/537.36","WebKit","Chrome","130.0.0.0","Windows","10.0","https://hz8g1ckzuq.cognition.run/","en-US,en;q=0.9,en-GB;q=0.8","u96bx42a730cab8","27","[""Black or African-American""]","No","Female","1511661.2000000011","5222","","","{""product_choice"":""C""}","choice","dct","attraction_1","1","washing machines","null","null","null","null","null","null","1","60","50","60","50","60","45","Average lifespan","Energy savings","",""
"","","","","","choice_trial_setup","html-keyboard-response","138","1414972","0.0-5.0-0.27","47","1","2025-04-11 14:14:27","bb671e3ae32f654b8954ea4c4635f915","","Mozilla/5.0 (Windows NT 10.0; Win64; x64) AppleWebKit/537.36 (KHTML, like Gecko) Chrome/130.0.0.0 Safari/537.36","WebKit","Chrome","130.0.0.0","Windows","10.0","https://hz8g1ckzuq.cognition.run/","en-US,en;q=0.9,en-GB;q=0.8","u96bx42a730cab8","27","[""Black or African-American""]","No","Female","1511661.2000000011","null","","<p></p>","null","choice","wbw","catch","null","televisions","70","55","20","25","20","10","2","","","","","","","","","",""
"","","","","","choice_trial","survey-html-form","139","1421871","0.0-5.0-1.27","47","1","2025-04-11 14:14:27","bb671e3ae32f654b8954ea4c4635f915","","Mozilla/5.0 (Windows NT 10.0; Win64; x64) AppleWebKit/537.36 (KHTML, like Gecko) Chrome/130.0.0.0 Safari/537.36","WebKit","Chrome","130.0.0.0","Windows","10.0","https://hz8g1ckzuq.cognition.run/","en-US,en;q=0.9,en-GB;q=0.8","u96bx42a730cab8","27","[""Black or African-American""]","No","Female","1511661.2000000011","6890","","","{""product_choice"":""B""}","choice","wbw","catch","null","televisions","70","55","20","25","20","10","2","null","null","null","null","null","null","Screen size","Average lifespan","",""
"","","","","","choice_trial_setup","html-keyboard-response","140","1422181","0.0-5.0-0.28","47","1","2025-04-11 14:14:27","bb671e3ae32f654b8954ea4c4635f915","","Mozilla/5.0 (Windows NT 10.0; Win64; x64) AppleWebKit/537.36 (KHTML, like Gecko) Chrome/130.0.0.0 Safari/537.36","WebKit","Chrome","130.0.0.0","Windows","10.0","https://hz8g1ckzuq.cognition.run/","en-US,en;q=0.9,en-GB;q=0.8","u96bx42a730cab8","27","[""Black or African-American""]","No","Female","1511661.2000000011","null","","<p></p>","null","choice","dtc","attraction_1","2","televisions","null","null","null","null","null","null","1","","","","","","","","","",""
"","","","","","choice_trial","survey-html-form","141","1429640","0.0-5.0-1.28","47","1","2025-04-11 14:14:27","bb671e3ae32f654b8954ea4c4635f915","","Mozilla/5.0 (Windows NT 10.0; Win64; x64) AppleWebKit/537.36 (KHTML, like Gecko) Chrome/130.0.0.0 Safari/537.36","WebKit","Chrome","130.0.0.0","Windows","10.0","https://hz8g1ckzuq.cognition.run/","en-US,en;q=0.9,en-GB;q=0.8","u96bx42a730cab8","27","[""Black or African-American""]","No","Female","1511661.2000000011","7450","","","{""product_choice"":""B""}","choice","dtc","attraction_1","2","televisions","null","null","null","null","null","null","1","50","60","45","60","50","60","Screen size","Average lifespan","",""
"","","","","","choice_trial_setup","html-keyboard-response","142","1429948","0.0-5.0-0.29","47","1","2025-04-11 14:14:27","bb671e3ae32f654b8954ea4c4635f915","","Mozilla/5.0 (Windows NT 10.0; Win64; x64) AppleWebKit/537.36 (KHTML, like Gecko) Chrome/130.0.0.0 Safari/537.36","WebKit","Chrome","130.0.0.0","Windows","10.0","https://hz8g1ckzuq.cognition.run/","en-US,en;q=0.9,en-GB;q=0.8","u96bx42a730cab8","27","[""Black or African-American""]","No","Female","1511661.2000000011","null","","<p></p>","null","choice","wwb","catch","null","televisions","50","55","35","5","50","5","1","","","","","","","","","",""
"","","","","","choice_trial","survey-html-form","143","1433376","0.0-5.0-1.29","47","1","2025-04-11 14:14:27","bb671e3ae32f654b8954ea4c4635f915","","Mozilla/5.0 (Windows NT 10.0; Win64; x64) AppleWebKit/537.36 (KHTML, like Gecko) Chrome/130.0.0.0 Safari/537.36","WebKit","Chrome","130.0.0.0","Windows","10.0","https://hz8g1ckzuq.cognition.run/","en-US,en;q=0.9,en-GB;q=0.8","u96bx42a730cab8","27","[""Black or African-American""]","No","Female","1511661.2000000011","3419","","","{""product_choice"":""C""}","choice","wwb","catch","null","televisions","50","55","35","5","50","5","1","null","null","null","null","null","null","Screen size","Average lifespan","",""
"","","","","","choice_trial_setup","html-keyboard-response","144","1433681","0.0-5.0-0.30","47","1","2025-04-11 14:14:27","bb671e3ae32f654b8954ea4c4635f915","","Mozilla/5.0 (Windows NT 10.0; Win64; x64) AppleWebKit/537.36 (KHTML, like Gecko) Chrome/130.0.0.0 Safari/537.36","WebKit","Chrome","130.0.0.0","Windows","10.0","https://hz8g1ckzuq.cognition.run/","en-US,en;q=0.9,en-GB;q=0.8","u96bx42a730cab8","27","[""Black or African-American""]","No","Female","1511661.2000000011","null","","<p></p>","null","choice","dtc","attraction_2","2","laptops","null","null","null","null","null","null","1","","","","","","","","","",""
"","","","","","choice_trial","survey-html-form","145","1437170","0.0-5.0-1.30","47","1","2025-04-11 14:14:27","bb671e3ae32f654b8954ea4c4635f915","","Mozilla/5.0 (Windows NT 10.0; Win64; x64) AppleWebKit/537.36 (KHTML, like Gecko) Chrome/130.0.0.0 Safari/537.36","WebKit","Chrome","130.0.0.0","Windows","10.0","https://hz8g1ckzuq.cognition.run/","en-US,en;q=0.9,en-GB;q=0.8","u96bx42a730cab8","27","[""Black or African-American""]","No","Female","1511661.2000000011","3480","","","{""product_choice"":""B""}","choice","dtc","attraction_2","2","laptops","null","null","null","null","null","null","1","50","60","40","60","50","60","Processing speed","Memory (RAM)","",""
"","","","","","choice_trial_setup","html-keyboard-response","146","1437480","0.0-5.0-0.31","47","1","2025-04-11 14:14:27","bb671e3ae32f654b8954ea4c4635f915","","Mozilla/5.0 (Windows NT 10.0; Win64; x64) AppleWebKit/537.36 (KHTML, like Gecko) Chrome/130.0.0.0 Safari/537.36","WebKit","Chrome","130.0.0.0","Windows","10.0","https://hz8g1ckzuq.cognition.run/","en-US,en;q=0.9,en-GB;q=0.8","u96bx42a730cab8","27","[""Black or African-American""]","No","Female","1511661.2000000011","null","","<p></p>","null","choice","ctd","repulsion_2","2","washing machines","null","null","null","null","null","null","2","","","","","","","","","",""
"","","","","","choice_trial","survey-html-form","147","1442172","0.0-5.0-1.31","47","1","2025-04-11 14:14:27","bb671e3ae32f654b8954ea4c4635f915","","Mozilla/5.0 (Windows NT 10.0; Win64; x64) AppleWebKit/537.36 (KHTML, like Gecko) Chrome/130.0.0.0 Safari/537.36","WebKit","Chrome","130.0.0.0","Windows","10.0","https://hz8g1ckzuq.cognition.run/","en-US,en;q=0.9,en-GB;q=0.8","u96bx42a730cab8","27","[""Black or African-American""]","No","Female","1511661.2000000011","4684","","","{""product_choice"":""A""}","choice","ctd","repulsion_2","2","washing machines","null","null","null","null","null","null","2","30","40","20","100","90","100","Average lifespan","Energy savings","",""
"","","","","","choice_trial_setup","html-keyboard-response","148","1442482","0.0-5.0-0.32","47","1","2025-04-11 14:14:27","bb671e3ae32f654b8954ea4c4635f915","","Mozilla/5.0 (Windows NT 10.0; Win64; x64) AppleWebKit/537.36 (KHTML, like Gecko) Chrome/130.0.0.0 Safari/537.36","WebKit","Chrome","130.0.0.0","Windows","10.0","https://hz8g1ckzuq.cognition.run/","en-US,en;q=0.9,en-GB;q=0.8","u96bx42a730cab8","27","[""Black or African-American""]","No","Female","1511661.2000000011","null","","<p></p>","null","choice","cdt","repulsion_2","2","laptops","null","null","null","null","null","null","1","","","","","","","","","",""
"","","","","","choice_trial","survey-html-form","149","1445261","0.0-5.0-1.32","47","1","2025-04-11 14:14:27","bb671e3ae32f654b8954ea4c4635f915","","Mozilla/5.0 (Windows NT 10.0; Win64; x64) AppleWebKit/537.36 (KHTML, like Gecko) Chrome/130.0.0.0 Safari/537.36","WebKit","Chrome","130.0.0.0","Windows","10.0","https://hz8g1ckzuq.cognition.run/","en-US,en;q=0.9,en-GB;q=0.8","u96bx42a730cab8","27","[""Black or African-American""]","No","Female","1511661.2000000011","2770","","","{""product_choice"":""A""}","choice","cdt","repulsion_2","2","laptops","null","null","null","null","null","null","1","30","40","20","100","90","100","Processing speed","Memory (RAM)","",""
