"success","timeout","failed_images","failed_audio","failed_video","screen_id","trial_type","trial_index","time_elapsed","internal_node_id","run_id","condition","recorded_at","source_code_version","ip","user_agent","device","browser","browser_version","platform","platform_version","referer","accept_language","ppt_id","age","race","ethnicity","gender","exp_duration","rt","view_history","stimulus","response","phase","order","effect","t_high","category","d1_best","d2_best","d1_worst1","d2_worst1","d1_worst2","d2_worst2","first_dim","d1_t","d1_c","d1_d","d2_t","d2_c","d2_d","d1_name","d2_name","strategy_response","question_order"
"true","false","[]","[]","[]","img preload","preload","0","3406","0.0-0.0","50","1","2025-04-11 14:16:38","bb671e3ae32f654b8954ea4c4635f915","","Mozilla/5.0 (Windows NT 10.0; Win64; x64) AppleWebKit/537.36 (KHTML, like Gecko) Chrome/134.0.0.0 Safari/537.36","WebKit","Chrome","134.0.0.0","Windows","10.0","https://hz8g1ckzuq.cognition.run/","en-US,en;q=0.9","hy9p5db2w1e9kxf","for washing machine irstbwas warranty then power cosumtion","[""White""]","No","Female","1956892.5","","","","","","","","","","","","","","","","","","","","","","","","","",""
"true","","","","","","fullscreen","1","15180","0.0-1.0","50","1","2025-04-11 14:16:38","bb671e3ae32f654b8954ea4c4635f915","","Mozilla/5.0 (Windows NT 10.0; Win64; x64) AppleWebKit/537.36 (KHTML, like Gecko) Chrome/134.0.0.0 Safari/537.36","WebKit","Chrome","134.0.0.0","Windows","10.0","https://hz8g1ckzuq.cognition.run/","en-US,en;q=0.9","hy9p5db2w1e9kxf","for washing machine irstbwas warranty then power cosumtion","[""White""]","No","Female","1956892.5","10762","","","","","","","","","","","","","","","","","","","","","","","","",""
"","","","","","","instructions","2","312978","0.0-2.0","50","1","2025-04-11 14:16:38","bb671e3ae32f654b8954ea4c4635f915","","Mozilla/5.0 (Windows NT 10.0; Win64; x64) AppleWebKit/537.36 (KHTML, like Gecko) Chrome/134.0.0.0 Safari/537.36","WebKit","Chrome","134.0.0.0","Windows","10.0","https://hz8g1ckzuq.cognition.run/","en-US,en;q=0.9","hy9p5db2w1e9kxf","for washing machine irstbwas warranty then power cosumtion","[""White""]","No","Female","1956892.5","297794","[{""page_index"":0,""viewing_time"":27567},{""page_index"":1,""viewing_time"":10866},{""page_index"":2,""viewing_time"":5332},{""page_index"":3,""viewing_time"":6146},{""page_index"":4,""viewing_time"":19325},{""page_index"":5,""viewing_time"":157110},{""page_index"":6,""viewing_time"":12891},{""page_index"":7,""viewing_time"":42702},{""page_index"":8,""viewing_time"":8391},{""page_index"":9,""viewing_time"":7462}]","","","","","","","","","","","","","","","","","","","","","","","",""
"","","","","","rating_trial_setup","html-keyboard-response","3","313294","0.0-3.0-0.0","50","1","2025-04-11 14:16:38","bb671e3ae32f654b8954ea4c4635f915","","Mozilla/5.0 (Windows NT 10.0; Win64; x64) AppleWebKit/537.36 (KHTML, like Gecko) Chrome/134.0.0.0 Safari/537.36","WebKit","Chrome","134.0.0.0","Windows","10.0","https://hz8g1ckzuq.cognition.run/","en-US,en;q=0.9","hy9p5db2w1e9kxf","for washing machine irstbwas warranty then power cosumtion","[""White""]","No","Female","1956892.5","null","","<p></p>","null","rating","dct","attraction_1","1","washing machines","null","null","null","null","null","null","1","","","","","","","","","",""
"","","","","","rating_trial","survey-html-form","4","376980","0.0-3.0-1.0","50","1","2025-04-11 14:16:38","bb671e3ae32f654b8954ea4c4635f915","","Mozilla/5.0 (Windows NT 10.0; Win64; x64) AppleWebKit/537.36 (KHTML, like Gecko) Chrome/134.0.0.0 Safari/537.36","WebKit","Chrome","134.0.0.0","Windows","10.0","https://hz8g1ckzuq.cognition.run/","en-US,en;q=0.9","hy9p5db2w1e9kxf","for washing machine irstbwas warranty then power cosumtion","[""White""]","No","Female","1956892.5","63677","","","{""price_1"":""120"",""price_2"":""101"",""price_3"":""100""}","rating","dct","attraction_1","1","washing machines","null","null","null","null","null","null","1","60","50","60","50","60","45","Average lifespan","Energy savings","",""
"","","","","","rating_trial_setup","html-keyboard-response","5","377283","0.0-3.0-0.1","50","1","2025-04-11 14:16:38","bb671e3ae32f654b8954ea4c4635f915","","Mozilla/5.0 (Windows NT 10.0; Win64; x64) AppleWebKit/537.36 (KHTML, like Gecko) Chrome/134.0.0.0 Safari/537.36","WebKit","Chrome","134.0.0.0","Windows","10.0","https://hz8g1ckzuq.cognition.run/","en-US,en;q=0.9","hy9p5db2w1e9kxf","for washing machine irstbwas warranty then power cosumtion","[""White""]","No","Female","1956892.5","null","","<p></p>","null","rating","bww","catch","null","washing machines","75","85","45","45","40","45","1","","","","","","","","","",""
"","","","","","rating_trial","survey-html-form","6","392605","0.0-3.0-1.1","50","1","2025-04-11 14:16:38","bb671e3ae32f654b8954ea4c4635f915","","Mozilla/5.0 (Windows NT 10.0; Win64; x64) AppleWebKit/537.36 (KHTML, like Gecko) Chrome/134.0.0.0 Safari/537.36","WebKit","Chrome","134.0.0.0","Windows","10.0","https://hz8g1ckzuq.cognition.run/","en-US,en;q=0.9","hy9p5db2w1e9kxf","for washing machine irstbwas warranty then power cosumtion","[""White""]","No","Female","1956892.5","15317","","","{""price_1"":""100"",""price_2"":""70"",""price_3"":""77""}","rating","bww","catch","null","washing machines","75","85","45","45","40","45","1","null","null","null","null","null","null","Average lifespan","Energy savings","",""
"","","","","","rating_trial_setup","html-keyboard-response","7","392910","0.0-3.0-0.2","50","1","2025-04-11 14:16:38","bb671e3ae32f654b8954ea4c4635f915","","Mozilla/5.0 (Windows NT 10.0; Win64; x64) AppleWebKit/537.36 (KHTML, like Gecko) Chrome/134.0.0.0 Safari/537.36","WebKit","Chrome","134.0.0.0","Windows","10.0","https://hz8g1ckzuq.cognition.run/","en-US,en;q=0.9","hy9p5db2w1e9kxf","for washing machine irstbwas warranty then power cosumtion","[""White""]","No","Female","1956892.5","null","","<p></p>","null","rating","ctd","repulsion_1","1","microwave ovens","null","null","null","null","null","null","1","","","","","","","","","",""
"","","","","","rating_trial","survey-html-form","8","410330","0.0-3.0-1.2","50","1","2025-04-11 14:16:38","bb671e3ae32f654b8954ea4c4635f915","","Mozilla/5.0 (Windows NT 10.0; Win64; x64) AppleWebKit/537.36 (KHTML, like Gecko) Chrome/134.0.0.0 Safari/537.36","WebKit","Chrome","134.0.0.0","Windows","10.0","https://hz8g1ckzuq.cognition.run/","en-US,en;q=0.9","hy9p5db2w1e9kxf","for washing machine irstbwas warranty then power cosumtion","[""White""]","No","Female","1956892.5","17415","","","{""price_1"":""60"",""price_2"":""50"",""price_3"":""55""}","rating","ctd","repulsion_1","1","microwave ovens","null","null","null","null","null","null","1","100","90","100","30","40","25","Warranty","Cooking power","",""
"","","","","","rating_trial_setup","html-keyboard-response","9","410635","0.0-3.0-0.3","50","1","2025-04-11 14:16:38","bb671e3ae32f654b8954ea4c4635f915","","Mozilla/5.0 (Windows NT 10.0; Win64; x64) AppleWebKit/537.36 (KHTML, like Gecko) Chrome/134.0.0.0 Safari/537.36","WebKit","Chrome","134.0.0.0","Windows","10.0","https://hz8g1ckzuq.cognition.run/","en-US,en;q=0.9","hy9p5db2w1e9kxf","for washing machine irstbwas warranty then power cosumtion","[""White""]","No","Female","1956892.5","null","","<p></p>","null","rating","wwb","catch","null","microwave ovens","95","80","35","50","10","20","1","","","","","","","","","",""
"","","","","","rating_trial","survey-html-form","10","433216","0.0-3.0-1.3","50","1","2025-04-11 14:16:38","bb671e3ae32f654b8954ea4c4635f915","","Mozilla/5.0 (Windows NT 10.0; Win64; x64) AppleWebKit/537.36 (KHTML, like Gecko) Chrome/134.0.0.0 Safari/537.36","WebKit","Chrome","134.0.0.0","Windows","10.0","https://hz8g1ckzuq.cognition.run/","en-US,en;q=0.9","hy9p5db2w1e9kxf","for washing machine irstbwas warranty then power cosumtion","[""White""]","No","Female","1956892.5","22576","","","{""price_1"":""70"",""price_2"":""55"",""price_3"":""100""}","rating","wwb","catch","null","microwave ovens","95","80","35","50","10","20","1","null","null","null","null","null","null","Warranty","Cooking power","",""
"","","","","","rating_trial_setup","html-keyboard-response","11","433520","0.0-3.0-0.4","50","1","2025-04-11 14:16:38","bb671e3ae32f654b8954ea4c4635f915","","Mozilla/5.0 (Windows NT 10.0; Win64; x64) AppleWebKit/537.36 (KHTML, like Gecko) Chrome/134.0.0.0 Safari/537.36","WebKit","Chrome","134.0.0.0","Windows","10.0","https://hz8g1ckzuq.cognition.run/","en-US,en;q=0.9","hy9p5db2w1e9kxf","for washing machine irstbwas warranty then power cosumtion","[""White""]","No","Female","1956892.5","null","","<p></p>","null","rating","ctd","repulsion_1","2","televisions","null","null","null","null","null","null","1","","","","","","","","","",""
"","","","","","rating_trial","survey-html-form","12","500040","0.0-3.0-1.4","50","1","2025-04-11 14:16:38","bb671e3ae32f654b8954ea4c4635f915","","Mozilla/5.0 (Windows NT 10.0; Win64; x64) AppleWebKit/537.36 (KHTML, like Gecko) Chrome/134.0.0.0 Safari/537.36","WebKit","Chrome","134.0.0.0","Windows","10.0","https://hz8g1ckzuq.cognition.run/","en-US,en;q=0.9","hy9p5db2w1e9kxf","for washing machine irstbwas warranty then power cosumtion","[""White""]","No","Female","1956892.5","66515","","","{""price_1"":""150"",""price_2"":""140"",""price_3"":""145""}","rating","ctd","repulsion_1","2","televisions","null","null","null","null","null","null","1","30","40","25","100","90","100","Screen size","Average lifespan","",""
"","","","","","rating_trial_setup","html-keyboard-response","13","500355","0.0-3.0-0.5","50","1","2025-04-11 14:16:38","bb671e3ae32f654b8954ea4c4635f915","","Mozilla/5.0 (Windows NT 10.0; Win64; x64) AppleWebKit/537.36 (KHTML, like Gecko) Chrome/134.0.0.0 Safari/537.36","WebKit","Chrome","134.0.0.0","Windows","10.0","https://hz8g1ckzuq.cognition.run/","en-US,en;q=0.9","hy9p5db2w1e9kxf","for washing machine irstbwas warranty then power cosumtion","[""White""]","No","Female","1956892.5","null","","<p></p>","null","rating","dct","repulsion_1","1","washing machines","null","null","null","null","null","null","1","","","","","","","","","",""
"","","","","","rating_trial","survey-html-form","14","524569","0.0-3.0-1.5","50","1","2025-04-11 14:16:38","bb671e3ae32f654b8954ea4c4635f915","","Mozilla/5.0 (Windows NT 10.0; Win64; x64) AppleWebKit/537.36 (KHTML, like Gecko) Chrome/134.0.0.0 Safari/537.36","WebKit","Chrome","134.0.0.0","Windows","10.0","https://hz8g1ckzuq.cognition.run/","en-US,en;q=0.9","hy9p5db2w1e9kxf","for washing machine irstbwas warranty then power cosumtion","[""White""]","No","Female","1956892.5","24208","","","{""price_1"":""650"",""price_2"":""600"",""price_3"":""700""}","rating","dct","repulsion_1","1","washing machines","null","null","null","null","null","null","1","100","90","100","30","40","25","Average lifespan","Energy savings","",""
"","","","","","rating_trial_setup","html-keyboard-response","15","524872","0.0-3.0-0.6","50","1","2025-04-11 14:16:38","bb671e3ae32f654b8954ea4c4635f915","","Mozilla/5.0 (Windows NT 10.0; Win64; x64) AppleWebKit/537.36 (KHTML, like Gecko) Chrome/134.0.0.0 Safari/537.36","WebKit","Chrome","134.0.0.0","Windows","10.0","https://hz8g1ckzuq.cognition.run/","en-US,en;q=0.9","hy9p5db2w1e9kxf","for washing machine irstbwas warranty then power cosumtion","[""White""]","No","Female","1956892.5","null","","<p></p>","null","rating","ctd","attraction_2","2","washing machines","null","null","null","null","null","null","2","","","","","","","","","",""
"","","","","","rating_trial","survey-html-form","16","542426","0.0-3.0-1.6","50","1","2025-04-11 14:16:38","bb671e3ae32f654b8954ea4c4635f915","","Mozilla/5.0 (Windows NT 10.0; Win64; x64) AppleWebKit/537.36 (KHTML, like Gecko) Chrome/134.0.0.0 Safari/537.36","WebKit","Chrome","134.0.0.0","Windows","10.0","https://hz8g1ckzuq.cognition.run/","en-US,en;q=0.9","hy9p5db2w1e9kxf","for washing machine irstbwas warranty then power cosumtion","[""White""]","No","Female","1956892.5","17549","","","{""price_1"":""550"",""price_2"":""450"",""price_3"":""500""}","rating","ctd","attraction_2","2","washing machines","null","null","null","null","null","null","2","50","60","40","60","50","60","Average lifespan","Energy savings","",""
"","","","","","rating_trial_setup","html-keyboard-response","17","542731","0.0-3.0-0.7","50","1","2025-04-11 14:16:38","bb671e3ae32f654b8954ea4c4635f915","","Mozilla/5.0 (Windows NT 10.0; Win64; x64) AppleWebKit/537.36 (KHTML, like Gecko) Chrome/134.0.0.0 Safari/537.36","WebKit","Chrome","134.0.0.0","Windows","10.0","https://hz8g1ckzuq.cognition.run/","en-US,en;q=0.9","hy9p5db2w1e9kxf","for washing machine irstbwas warranty then power cosumtion","[""White""]","No","Female","1956892.5","null","","<p></p>","null","rating","wbw","catch","null","televisions","75","55","15","40","45","15","1","","","","","","","","","",""
"","","","","","rating_trial","survey-html-form","18","564578","0.0-3.0-1.7","50","1","2025-04-11 14:16:38","bb671e3ae32f654b8954ea4c4635f915","","Mozilla/5.0 (Windows NT 10.0; Win64; x64) AppleWebKit/537.36 (KHTML, like Gecko) Chrome/134.0.0.0 Safari/537.36","WebKit","Chrome","134.0.0.0","Windows","10.0","https://hz8g1ckzuq.cognition.run/","en-US,en;q=0.9","hy9p5db2w1e9kxf","for washing machine irstbwas warranty then power cosumtion","[""White""]","No","Female","1956892.5","21842","","","{""price_1"":""125"",""price_2"":""165"",""price_3"":""130""}","rating","wbw","catch","null","televisions","75","55","15","40","45","15","1","null","null","null","null","null","null","Screen size","Average lifespan","",""
"","","","","","rating_trial_setup","html-keyboard-response","19","564884","0.0-3.0-0.8","50","1","2025-04-11 14:16:38","bb671e3ae32f654b8954ea4c4635f915","","Mozilla/5.0 (Windows NT 10.0; Win64; x64) AppleWebKit/537.36 (KHTML, like Gecko) Chrome/134.0.0.0 Safari/537.36","WebKit","Chrome","134.0.0.0","Windows","10.0","https://hz8g1ckzuq.cognition.run/","en-US,en;q=0.9","hy9p5db2w1e9kxf","for washing machine irstbwas warranty then power cosumtion","[""White""]","No","Female","1956892.5","null","","<p></p>","null","rating","dct","repulsion_1","2","microwave ovens","null","null","null","null","null","null","1","","","","","","","","","",""
"","","","","","rating_trial","survey-html-form","20","581026","0.0-3.0-1.8","50","1","2025-04-11 14:16:38","bb671e3ae32f654b8954ea4c4635f915","","Mozilla/5.0 (Windows NT 10.0; Win64; x64) AppleWebKit/537.36 (KHTML, like Gecko) Chrome/134.0.0.0 Safari/537.36","WebKit","Chrome","134.0.0.0","Windows","10.0","https://hz8g1ckzuq.cognition.run/","en-US,en;q=0.9","hy9p5db2w1e9kxf","for washing machine irstbwas warranty then power cosumtion","[""White""]","No","Female","1956892.5","16137","","","{""price_1"":""70"",""price_2"":""65"",""price_3"":""75""}","rating","dct","repulsion_1","2","microwave ovens","null","null","null","null","null","null","1","30","40","25","100","90","100","Warranty","Cooking power","",""
"","","","","","rating_trial_setup","html-keyboard-response","21","581329","0.0-3.0-0.9","50","1","2025-04-11 14:16:38","bb671e3ae32f654b8954ea4c4635f915","","Mozilla/5.0 (Windows NT 10.0; Win64; x64) AppleWebKit/537.36 (KHTML, like Gecko) Chrome/134.0.0.0 Safari/537.36","WebKit","Chrome","134.0.0.0","Windows","10.0","https://hz8g1ckzuq.cognition.run/","en-US,en;q=0.9","hy9p5db2w1e9kxf","for washing machine irstbwas warranty then power cosumtion","[""White""]","No","Female","1956892.5","null","","<p></p>","null","rating","wwb","catch","null","laptops","55","65","25","50","5","35","2","","","","","","","","","",""
"","","","","","rating_trial","survey-html-form","22","606441","0.0-3.0-1.9","50","1","2025-04-11 14:16:38","bb671e3ae32f654b8954ea4c4635f915","","Mozilla/5.0 (Windows NT 10.0; Win64; x64) AppleWebKit/537.36 (KHTML, like Gecko) Chrome/134.0.0.0 Safari/537.36","WebKit","Chrome","134.0.0.0","Windows","10.0","https://hz8g1ckzuq.cognition.run/","en-US,en;q=0.9","hy9p5db2w1e9kxf","for washing machine irstbwas warranty then power cosumtion","[""White""]","No","Female","1956892.5","25105","","","{""price_1"":""340"",""price_2"":""320"",""price_3"":""350""}","rating","wwb","catch","null","laptops","55","65","25","50","5","35","2","null","null","null","null","null","null","Processing speed","Memory (RAM)","",""
"","","","","","rating_trial_setup","html-keyboard-response","23","606747","0.0-3.0-0.10","50","1","2025-04-11 14:16:38","bb671e3ae32f654b8954ea4c4635f915","","Mozilla/5.0 (Windows NT 10.0; Win64; x64) AppleWebKit/537.36 (KHTML, like Gecko) Chrome/134.0.0.0 Safari/537.36","WebKit","Chrome","134.0.0.0","Windows","10.0","https://hz8g1ckzuq.cognition.run/","en-US,en;q=0.9","hy9p5db2w1e9kxf","for washing machine irstbwas warranty then power cosumtion","[""White""]","No","Female","1956892.5","null","","<p></p>","null","rating","dtc","attraction_2","1","washing machines","null","null","null","null","null","null","2","","","","","","","","","",""
"","","","","","rating_trial","survey-html-form","24","627645","0.0-3.0-1.10","50","1","2025-04-11 14:16:38","bb671e3ae32f654b8954ea4c4635f915","","Mozilla/5.0 (Windows NT 10.0; Win64; x64) AppleWebKit/537.36 (KHTML, like Gecko) Chrome/134.0.0.0 Safari/537.36","WebKit","Chrome","134.0.0.0","Windows","10.0","https://hz8g1ckzuq.cognition.run/","en-US,en;q=0.9","hy9p5db2w1e9kxf","for washing machine irstbwas warranty then power cosumtion","[""White""]","No","Female","1956892.5","20893","","","{""price_1"":""650"",""price_2"":""750"",""price_3"":""740""}","rating","dtc","attraction_2","1","washing machines","null","null","null","null","null","null","2","60","50","60","50","60","40","Average lifespan","Energy savings","",""
"","","","","","rating_trial_setup","html-keyboard-response","25","627951","0.0-3.0-0.11","50","1","2025-04-11 14:16:38","bb671e3ae32f654b8954ea4c4635f915","","Mozilla/5.0 (Windows NT 10.0; Win64; x64) AppleWebKit/537.36 (KHTML, like Gecko) Chrome/134.0.0.0 Safari/537.36","WebKit","Chrome","134.0.0.0","Windows","10.0","https://hz8g1ckzuq.cognition.run/","en-US,en;q=0.9","hy9p5db2w1e9kxf","for washing machine irstbwas warranty then power cosumtion","[""White""]","No","Female","1956892.5","null","","<p></p>","null","rating","dtc","repulsion_1","1","televisions","null","null","null","null","null","null","1","","","","","","","","","",""
"","","","","","rating_trial","survey-html-form","26","649834","0.0-3.0-1.11","50","1","2025-04-11 14:16:38","bb671e3ae32f654b8954ea4c4635f915","","Mozilla/5.0 (Windows NT 10.0; Win64; x64) AppleWebKit/537.36 (KHTML, like Gecko) Chrome/134.0.0.0 Safari/537.36","WebKit","Chrome","134.0.0.0","Windows","10.0","https://hz8g1ckzuq.cognition.run/","en-US,en;q=0.9","hy9p5db2w1e9kxf","for washing machine irstbwas warranty then power cosumtion","[""White""]","No","Female","1956892.5","21877","","","{""price_1"":""140"",""price_2"":""155"",""price_3"":""165""}","rating","dtc","repulsion_1","1","televisions","null","null","null","null","null","null","1","100","90","100","30","40","25","Screen size","Average lifespan","",""
"","","","","","rating_trial_setup","html-keyboard-response","27","650140","0.0-3.0-0.12","50","1","2025-04-11 14:16:38","bb671e3ae32f654b8954ea4c4635f915","","Mozilla/5.0 (Windows NT 10.0; Win64; x64) AppleWebKit/537.36 (KHTML, like Gecko) Chrome/134.0.0.0 Safari/537.36","WebKit","Chrome","134.0.0.0","Windows","10.0","https://hz8g1ckzuq.cognition.run/","en-US,en;q=0.9","hy9p5db2w1e9kxf","for washing machine irstbwas warranty then power cosumtion","[""White""]","No","Female","1956892.5","null","","<p></p>","null","rating","cdt","attraction_1","2","microwave ovens","null","null","null","null","null","null","2","","","","","","","","","",""
"","","","","","rating_trial","survey-html-form","28","665629","0.0-3.0-1.12","50","1","2025-04-11 14:16:38","bb671e3ae32f654b8954ea4c4635f915","","Mozilla/5.0 (Windows NT 10.0; Win64; x64) AppleWebKit/537.36 (KHTML, like Gecko) Chrome/134.0.0.0 Safari/537.36","WebKit","Chrome","134.0.0.0","Windows","10.0","https://hz8g1ckzuq.cognition.run/","en-US,en;q=0.9","hy9p5db2w1e9kxf","for washing machine irstbwas warranty then power cosumtion","[""White""]","No","Female","1956892.5","15484","","","{""price_1"":""70"",""price_2"":""60"",""price_3"":""68""}","rating","cdt","attraction_1","2","microwave ovens","null","null","null","null","null","null","2","50","60","45","60","50","60","Warranty","Cooking power","",""
"","","","","","rating_trial_setup","html-keyboard-response","29","665938","0.0-3.0-0.13","50","1","2025-04-11 14:16:38","bb671e3ae32f654b8954ea4c4635f915","","Mozilla/5.0 (Windows NT 10.0; Win64; x64) AppleWebKit/537.36 (KHTML, like Gecko) Chrome/134.0.0.0 Safari/537.36","WebKit","Chrome","134.0.0.0","Windows","10.0","https://hz8g1ckzuq.cognition.run/","en-US,en;q=0.9","hy9p5db2w1e9kxf","for washing machine irstbwas warranty then power cosumtion","[""White""]","No","Female","1956892.5","null","","<p></p>","null","rating","dct","attraction_2","1","laptops","null","null","null","null","null","null","1","","","","","","","","","",""
"","","","","","rating_trial","survey-html-form","30","685919","0.0-3.0-1.13","50","1","2025-04-11 14:16:38","bb671e3ae32f654b8954ea4c4635f915","","Mozilla/5.0 (Windows NT 10.0; Win64; x64) AppleWebKit/537.36 (KHTML, like Gecko) Chrome/134.0.0.0 Safari/537.36","WebKit","Chrome","134.0.0.0","Windows","10.0","https://hz8g1ckzuq.cognition.run/","en-US,en;q=0.9","hy9p5db2w1e9kxf","for washing machine irstbwas warranty then power cosumtion","[""White""]","No","Female","1956892.5","19974","","","{""price_1"":""160"",""price_2"":""170"",""price_3"":""175""}","rating","dct","attraction_2","1","laptops","null","null","null","null","null","null","1","60","50","60","50","60","40","Processing speed","Memory (RAM)","",""
"","","","","","rating_trial_setup","html-keyboard-response","31","686226","0.0-3.0-0.14","50","1","2025-04-11 14:16:38","bb671e3ae32f654b8954ea4c4635f915","","Mozilla/5.0 (Windows NT 10.0; Win64; x64) AppleWebKit/537.36 (KHTML, like Gecko) Chrome/134.0.0.0 Safari/537.36","WebKit","Chrome","134.0.0.0","Windows","10.0","https://hz8g1ckzuq.cognition.run/","en-US,en;q=0.9","hy9p5db2w1e9kxf","for washing machine irstbwas warranty then power cosumtion","[""White""]","No","Female","1956892.5","null","","<p></p>","null","rating","ctd","repulsion_2","2","microwave ovens","null","null","null","null","null","null","1","","","","","","","","","",""
"","","","","","rating_trial","survey-html-form","32","700286","0.0-3.0-1.14","50","1","2025-04-11 14:16:38","bb671e3ae32f654b8954ea4c4635f915","","Mozilla/5.0 (Windows NT 10.0; Win64; x64) AppleWebKit/537.36 (KHTML, like Gecko) Chrome/134.0.0.0 Safari/537.36","WebKit","Chrome","134.0.0.0","Windows","10.0","https://hz8g1ckzuq.cognition.run/","en-US,en;q=0.9","hy9p5db2w1e9kxf","for washing machine irstbwas warranty then power cosumtion","[""White""]","No","Female","1956892.5","14054","","","{""price_1"":""65"",""price_2"":""70"",""price_3"":""73""}","rating","ctd","repulsion_2","2","microwave ovens","null","null","null","null","null","null","1","30","40","20","100","90","100","Warranty","Cooking power","",""
"","","","","","rating_trial_setup","html-keyboard-response","33","700593","0.0-3.0-0.15","50","1","2025-04-11 14:16:38","bb671e3ae32f654b8954ea4c4635f915","","Mozilla/5.0 (Windows NT 10.0; Win64; x64) AppleWebKit/537.36 (KHTML, like Gecko) Chrome/134.0.0.0 Safari/537.36","WebKit","Chrome","134.0.0.0","Windows","10.0","https://hz8g1ckzuq.cognition.run/","en-US,en;q=0.9","hy9p5db2w1e9kxf","for washing machine irstbwas warranty then power cosumtion","[""White""]","No","Female","1956892.5","null","","<p></p>","null","rating","cdt","repulsion_1","2","laptops","null","null","null","null","null","null","1","","","","","","","","","",""
"","","","","","rating_trial","survey-html-form","34","738982","0.0-3.0-1.15","50","1","2025-04-11 14:16:38","bb671e3ae32f654b8954ea4c4635f915","","Mozilla/5.0 (Windows NT 10.0; Win64; x64) AppleWebKit/537.36 (KHTML, like Gecko) Chrome/134.0.0.0 Safari/537.36","WebKit","Chrome","134.0.0.0","Windows","10.0","https://hz8g1ckzuq.cognition.run/","en-US,en;q=0.9","hy9p5db2w1e9kxf","for washing machine irstbwas warranty then power cosumtion","[""White""]","No","Female","1956892.5","38383","","","{""price_1"":""750"",""price_2"":""140"",""price_3"":""155""}","rating","cdt","repulsion_1","2","laptops","null","null","null","null","null","null","1","30","40","25","100","90","100","Processing speed","Memory (RAM)","",""
"","","","","","rating_trial_setup","html-keyboard-response","35","739286","0.0-3.0-0.16","50","1","2025-04-11 14:16:38","bb671e3ae32f654b8954ea4c4635f915","","Mozilla/5.0 (Windows NT 10.0; Win64; x64) AppleWebKit/537.36 (KHTML, like Gecko) Chrome/134.0.0.0 Safari/537.36","WebKit","Chrome","134.0.0.0","Windows","10.0","https://hz8g1ckzuq.cognition.run/","en-US,en;q=0.9","hy9p5db2w1e9kxf","for washing machine irstbwas warranty then power cosumtion","[""White""]","No","Female","1956892.5","null","","<p></p>","null","rating","tcd","repulsion_2","1","televisions","null","null","null","null","null","null","1","","","","","","","","","",""
"","","","","","rating_trial","survey-html-form","36","759560","0.0-3.0-1.16","50","1","2025-04-11 14:16:38","bb671e3ae32f654b8954ea4c4635f915","","Mozilla/5.0 (Windows NT 10.0; Win64; x64) AppleWebKit/537.36 (KHTML, like Gecko) Chrome/134.0.0.0 Safari/537.36","WebKit","Chrome","134.0.0.0","Windows","10.0","https://hz8g1ckzuq.cognition.run/","en-US,en;q=0.9","hy9p5db2w1e9kxf","for washing machine irstbwas warranty then power cosumtion","[""White""]","No","Female","1956892.5","20267","","","{""price_1"":""100"",""price_2"":""110"",""price_3"":""105""}","rating","tcd","repulsion_2","1","televisions","null","null","null","null","null","null","1","100","90","100","30","40","20","Screen size","Average lifespan","",""
"","","","","","rating_trial_setup","html-keyboard-response","37","759866","0.0-3.0-0.17","50","1","2025-04-11 14:16:38","bb671e3ae32f654b8954ea4c4635f915","","Mozilla/5.0 (Windows NT 10.0; Win64; x64) AppleWebKit/537.36 (KHTML, like Gecko) Chrome/134.0.0.0 Safari/537.36","WebKit","Chrome","134.0.0.0","Windows","10.0","https://hz8g1ckzuq.cognition.run/","en-US,en;q=0.9","hy9p5db2w1e9kxf","for washing machine irstbwas warranty then power cosumtion","[""White""]","No","Female","1956892.5","null","","<p></p>","null","rating","dtc","attraction_2","1","microwave ovens","null","null","null","null","null","null","1","","","","","","","","","",""
"","","","","","rating_trial","survey-html-form","38","792880","0.0-3.0-1.17","50","1","2025-04-11 14:16:38","bb671e3ae32f654b8954ea4c4635f915","","Mozilla/5.0 (Windows NT 10.0; Win64; x64) AppleWebKit/537.36 (KHTML, like Gecko) Chrome/134.0.0.0 Safari/537.36","WebKit","Chrome","134.0.0.0","Windows","10.0","https://hz8g1ckzuq.cognition.run/","en-US,en;q=0.9","hy9p5db2w1e9kxf","for washing machine irstbwas warranty then power cosumtion","[""White""]","No","Female","1956892.5","33009","","","{""price_1"":""65"",""price_2"":""70"",""price_3"":""70""}","rating","dtc","attraction_2","1","microwave ovens","null","null","null","null","null","null","1","60","50","60","50","60","40","Warranty","Cooking power","",""
"","","","","","rating_trial_setup","html-keyboard-response","39","793186","0.0-3.0-0.18","50","1","2025-04-11 14:16:38","bb671e3ae32f654b8954ea4c4635f915","","Mozilla/5.0 (Windows NT 10.0; Win64; x64) AppleWebKit/537.36 (KHTML, like Gecko) Chrome/134.0.0.0 Safari/537.36","WebKit","Chrome","134.0.0.0","Windows","10.0","https://hz8g1ckzuq.cognition.run/","en-US,en;q=0.9","hy9p5db2w1e9kxf","for washing machine irstbwas warranty then power cosumtion","[""White""]","No","Female","1956892.5","null","","<p></p>","null","rating","dtc","repulsion_2","2","laptops","null","null","null","null","null","null","2","","","","","","","","","",""
"","","","","","rating_trial","survey-html-form","40","817033","0.0-3.0-1.18","50","1","2025-04-11 14:16:38","bb671e3ae32f654b8954ea4c4635f915","","Mozilla/5.0 (Windows NT 10.0; Win64; x64) AppleWebKit/537.36 (KHTML, like Gecko) Chrome/134.0.0.0 Safari/537.36","WebKit","Chrome","134.0.0.0","Windows","10.0","https://hz8g1ckzuq.cognition.run/","en-US,en;q=0.9","hy9p5db2w1e9kxf","for washing machine irstbwas warranty then power cosumtion","[""White""]","No","Female","1956892.5","23840","","","{""price_1"":""100"",""price_2"":""140"",""price_3"":""160""}","rating","dtc","repulsion_2","2","laptops","null","null","null","null","null","null","2","30","40","20","100","90","100","Processing speed","Memory (RAM)","",""
"","","","","","rating_trial_setup","html-keyboard-response","41","817338","0.0-3.0-0.19","50","1","2025-04-11 14:16:38","bb671e3ae32f654b8954ea4c4635f915","","Mozilla/5.0 (Windows NT 10.0; Win64; x64) AppleWebKit/537.36 (KHTML, like Gecko) Chrome/134.0.0.0 Safari/537.36","WebKit","Chrome","134.0.0.0","Windows","10.0","https://hz8g1ckzuq.cognition.run/","en-US,en;q=0.9","hy9p5db2w1e9kxf","for washing machine irstbwas warranty then power cosumtion","[""White""]","No","Female","1956892.5","null","","<p></p>","null","rating","dct","repulsion_2","1","washing machines","null","null","null","null","null","null","2","","","","","","","","","",""
"","","","","","rating_trial","survey-html-form","42","842930","0.0-3.0-1.19","50","1","2025-04-11 14:16:38","bb671e3ae32f654b8954ea4c4635f915","","Mozilla/5.0 (Windows NT 10.0; Win64; x64) AppleWebKit/537.36 (KHTML, like Gecko) Chrome/134.0.0.0 Safari/537.36","WebKit","Chrome","134.0.0.0","Windows","10.0","https://hz8g1ckzuq.cognition.run/","en-US,en;q=0.9","hy9p5db2w1e9kxf","for washing machine irstbwas warranty then power cosumtion","[""White""]","No","Female","1956892.5","25585","","","{""price_1"":""750"",""price_2"":""850"",""price_3"":""800""}","rating","dct","repulsion_2","1","washing machines","null","null","null","null","null","null","2","100","90","100","30","40","20","Average lifespan","Energy savings","",""
"","","","","","rating_trial_setup","html-keyboard-response","43","843238","0.0-3.0-0.20","50","1","2025-04-11 14:16:38","bb671e3ae32f654b8954ea4c4635f915","","Mozilla/5.0 (Windows NT 10.0; Win64; x64) AppleWebKit/537.36 (KHTML, like Gecko) Chrome/134.0.0.0 Safari/537.36","WebKit","Chrome","134.0.0.0","Windows","10.0","https://hz8g1ckzuq.cognition.run/","en-US,en;q=0.9","hy9p5db2w1e9kxf","for washing machine irstbwas warranty then power cosumtion","[""White""]","No","Female","1956892.5","null","","<p></p>","null","rating","tcd","attraction_1","1","televisions","null","null","null","null","null","null","1","","","","","","","","","",""
"","","","","","rating_trial","survey-html-form","44","878744","0.0-3.0-1.20","50","1","2025-04-11 14:16:38","bb671e3ae32f654b8954ea4c4635f915","","Mozilla/5.0 (Windows NT 10.0; Win64; x64) AppleWebKit/537.36 (KHTML, like Gecko) Chrome/134.0.0.0 Safari/537.36","WebKit","Chrome","134.0.0.0","Windows","10.0","https://hz8g1ckzuq.cognition.run/","en-US,en;q=0.9","hy9p5db2w1e9kxf","for washing machine irstbwas warranty then power cosumtion","[""White""]","No","Female","1956892.5","35500","","","{""price_1"":""160"",""price_2"":""158"",""price_3"":""150""}","rating","tcd","attraction_1","1","televisions","null","null","null","null","null","null","1","60","50","60","50","60","45","Screen size","Average lifespan","",""
"","","","","","rating_trial_setup","html-keyboard-response","45","879050","0.0-3.0-0.21","50","1","2025-04-11 14:16:38","bb671e3ae32f654b8954ea4c4635f915","","Mozilla/5.0 (Windows NT 10.0; Win64; x64) AppleWebKit/537.36 (KHTML, like Gecko) Chrome/134.0.0.0 Safari/537.36","WebKit","Chrome","134.0.0.0","Windows","10.0","https://hz8g1ckzuq.cognition.run/","en-US,en;q=0.9","hy9p5db2w1e9kxf","for washing machine irstbwas warranty then power cosumtion","[""White""]","No","Female","1956892.5","null","","<p></p>","null","rating","tdc","repulsion_2","1","microwave ovens","null","null","null","null","null","null","2","","","","","","","","","",""
"","","","","","rating_trial","survey-html-form","46","904952","0.0-3.0-1.21","50","1","2025-04-11 14:16:38","bb671e3ae32f654b8954ea4c4635f915","","Mozilla/5.0 (Windows NT 10.0; Win64; x64) AppleWebKit/537.36 (KHTML, like Gecko) Chrome/134.0.0.0 Safari/537.36","WebKit","Chrome","134.0.0.0","Windows","10.0","https://hz8g1ckzuq.cognition.run/","en-US,en;q=0.9","hy9p5db2w1e9kxf","for washing machine irstbwas warranty then power cosumtion","[""White""]","No","Female","1956892.5","25894","","","{""price_1"":""70"",""price_2"":""60"",""price_3"":""66""}","rating","tdc","repulsion_2","1","microwave ovens","null","null","null","null","null","null","2","100","90","100","30","40","20","Warranty","Cooking power","",""
"","","","","","rating_trial_setup","html-keyboard-response","47","905258","0.0-3.0-0.22","50","1","2025-04-11 14:16:38","bb671e3ae32f654b8954ea4c4635f915","","Mozilla/5.0 (Windows NT 10.0; Win64; x64) AppleWebKit/537.36 (KHTML, like Gecko) Chrome/134.0.0.0 Safari/537.36","WebKit","Chrome","134.0.0.0","Windows","10.0","https://hz8g1ckzuq.cognition.run/","en-US,en;q=0.9","hy9p5db2w1e9kxf","for washing machine irstbwas warranty then power cosumtion","[""White""]","No","Female","1956892.5","null","","<p></p>","null","rating","dct","attraction_1","2","laptops","null","null","null","null","null","null","1","","","","","","","","","",""
"","","","","","rating_trial","survey-html-form","48","928927","0.0-3.0-1.22","50","1","2025-04-11 14:16:38","bb671e3ae32f654b8954ea4c4635f915","","Mozilla/5.0 (Windows NT 10.0; Win64; x64) AppleWebKit/537.36 (KHTML, like Gecko) Chrome/134.0.0.0 Safari/537.36","WebKit","Chrome","134.0.0.0","Windows","10.0","https://hz8g1ckzuq.cognition.run/","en-US,en;q=0.9","hy9p5db2w1e9kxf","for washing machine irstbwas warranty then power cosumtion","[""White""]","No","Female","1956892.5","23661","","","{""price_1"":""315"",""price_2"":""330"",""price_3"":""320""}","rating","dct","attraction_1","2","laptops","null","null","null","null","null","null","1","50","60","45","60","50","60","Processing speed","Memory (RAM)","",""
"","","","","","rating_trial_setup","html-keyboard-response","49","929232","0.0-3.0-0.23","50","1","2025-04-11 14:16:38","bb671e3ae32f654b8954ea4c4635f915","","Mozilla/5.0 (Windows NT 10.0; Win64; x64) AppleWebKit/537.36 (KHTML, like Gecko) Chrome/134.0.0.0 Safari/537.36","WebKit","Chrome","134.0.0.0","Windows","10.0","https://hz8g1ckzuq.cognition.run/","en-US,en;q=0.9","hy9p5db2w1e9kxf","for washing machine irstbwas warranty then power cosumtion","[""White""]","No","Female","1956892.5","null","","<p></p>","null","rating","dct","repulsion_2","2","televisions","null","null","null","null","null","null","1","","","","","","","","","",""
"","","","","","rating_trial","survey-html-form","50","956913","0.0-3.0-1.23","50","1","2025-04-11 14:16:38","bb671e3ae32f654b8954ea4c4635f915","","Mozilla/5.0 (Windows NT 10.0; Win64; x64) AppleWebKit/537.36 (KHTML, like Gecko) Chrome/134.0.0.0 Safari/537.36","WebKit","Chrome","134.0.0.0","Windows","10.0","https://hz8g1ckzuq.cognition.run/","en-US,en;q=0.9","hy9p5db2w1e9kxf","for washing machine irstbwas warranty then power cosumtion","[""White""]","No","Female","1956892.5","27674","","","{""price_1"":""120"",""price_2"":""135"",""price_3"":""118""}","rating","dct","repulsion_2","2","televisions","null","null","null","null","null","null","1","30","40","20","100","90","100","Screen size","Average lifespan","",""
"","","","","","rating_trial_setup","html-keyboard-response","51","957226","0.0-3.0-0.24","50","1","2025-04-11 14:16:38","bb671e3ae32f654b8954ea4c4635f915","","Mozilla/5.0 (Windows NT 10.0; Win64; x64) AppleWebKit/537.36 (KHTML, like Gecko) Chrome/134.0.0.0 Safari/537.36","WebKit","Chrome","134.0.0.0","Windows","10.0","https://hz8g1ckzuq.cognition.run/","en-US,en;q=0.9","hy9p5db2w1e9kxf","for washing machine irstbwas warranty then power cosumtion","[""White""]","No","Female","1956892.5","null","","<p></p>","null","rating","cdt","repulsion_2","2","washing machines","null","null","null","null","null","null","1","","","","","","","","","",""
"","","","","","rating_trial","survey-html-form","52","994618","0.0-3.0-1.24","50","1","2025-04-11 14:16:38","bb671e3ae32f654b8954ea4c4635f915","","Mozilla/5.0 (Windows NT 10.0; Win64; x64) AppleWebKit/537.36 (KHTML, like Gecko) Chrome/134.0.0.0 Safari/537.36","WebKit","Chrome","134.0.0.0","Windows","10.0","https://hz8g1ckzuq.cognition.run/","en-US,en;q=0.9","hy9p5db2w1e9kxf","for washing machine irstbwas warranty then power cosumtion","[""White""]","No","Female","1956892.5","37385","","","{""price_1"":""560"",""price_2"":""570"",""price_3"":""580""}","rating","cdt","repulsion_2","2","washing machines","null","null","null","null","null","null","1","30","40","20","100","90","100","Average lifespan","Energy savings","",""
"","","","","","rating_trial_setup","html-keyboard-response","53","994927","0.0-3.0-0.25","50","1","2025-04-11 14:16:38","bb671e3ae32f654b8954ea4c4635f915","","Mozilla/5.0 (Windows NT 10.0; Win64; x64) AppleWebKit/537.36 (KHTML, like Gecko) Chrome/134.0.0.0 Safari/537.36","WebKit","Chrome","134.0.0.0","Windows","10.0","https://hz8g1ckzuq.cognition.run/","en-US,en;q=0.9","hy9p5db2w1e9kxf","for washing machine irstbwas warranty then power cosumtion","[""White""]","No","Female","1956892.5","null","","<p></p>","null","rating","ctd","repulsion_1","2","washing machines","null","null","null","null","null","null","2","","","","","","","","","",""
"","","","","","rating_trial","survey-html-form","54","1020589","0.0-3.0-1.25","50","1","2025-04-11 14:16:38","bb671e3ae32f654b8954ea4c4635f915","","Mozilla/5.0 (Windows NT 10.0; Win64; x64) AppleWebKit/537.36 (KHTML, like Gecko) Chrome/134.0.0.0 Safari/537.36","WebKit","Chrome","134.0.0.0","Windows","10.0","https://hz8g1ckzuq.cognition.run/","en-US,en;q=0.9","hy9p5db2w1e9kxf","for washing machine irstbwas warranty then power cosumtion","[""White""]","No","Female","1956892.5","25654","","","{""price_1"":""635"",""price_2"":""650"",""price_3"":""700""}","rating","ctd","repulsion_1","2","washing machines","null","null","null","null","null","null","2","30","40","25","100","90","100","Average lifespan","Energy savings","",""
"","","","","","rating_trial_setup","html-keyboard-response","55","1020913","0.0-3.0-0.26","50","1","2025-04-11 14:16:38","bb671e3ae32f654b8954ea4c4635f915","","Mozilla/5.0 (Windows NT 10.0; Win64; x64) AppleWebKit/537.36 (KHTML, like Gecko) Chrome/134.0.0.0 Safari/537.36","WebKit","Chrome","134.0.0.0","Windows","10.0","https://hz8g1ckzuq.cognition.run/","en-US,en;q=0.9","hy9p5db2w1e9kxf","for washing machine irstbwas warranty then power cosumtion","[""White""]","No","Female","1956892.5","null","","<p></p>","null","rating","ctd","attraction_2","2","televisions","null","null","null","null","null","null","2","","","","","","","","","",""
"","","","","","rating_trial","survey-html-form","56","1043736","0.0-3.0-1.26","50","1","2025-04-11 14:16:38","bb671e3ae32f654b8954ea4c4635f915","","Mozilla/5.0 (Windows NT 10.0; Win64; x64) AppleWebKit/537.36 (KHTML, like Gecko) Chrome/134.0.0.0 Safari/537.36","WebKit","Chrome","134.0.0.0","Windows","10.0","https://hz8g1ckzuq.cognition.run/","en-US,en;q=0.9","hy9p5db2w1e9kxf","for washing machine irstbwas warranty then power cosumtion","[""White""]","No","Female","1956892.5","22816","","","{""price_1"":""160"",""price_2"":""140"",""price_3"":""130""}","rating","ctd","attraction_2","2","televisions","null","null","null","null","null","null","2","50","60","40","60","50","60","Screen size","Average lifespan","",""
"","","","","","rating_trial_setup","html-keyboard-response","57","1044045","0.0-3.0-0.27","50","1","2025-04-11 14:16:38","bb671e3ae32f654b8954ea4c4635f915","","Mozilla/5.0 (Windows NT 10.0; Win64; x64) AppleWebKit/537.36 (KHTML, like Gecko) Chrome/134.0.0.0 Safari/537.36","WebKit","Chrome","134.0.0.0","Windows","10.0","https://hz8g1ckzuq.cognition.run/","en-US,en;q=0.9","hy9p5db2w1e9kxf","for washing machine irstbwas warranty then power cosumtion","[""White""]","No","Female","1956892.5","null","","<p></p>","null","rating","tcd","attraction_1","1","microwave ovens","null","null","null","null","null","null","1","","","","","","","","","",""
"","","","","","rating_trial","survey-html-form","58","1058482","0.0-3.0-1.27","50","1","2025-04-11 14:16:38","bb671e3ae32f654b8954ea4c4635f915","","Mozilla/5.0 (Windows NT 10.0; Win64; x64) AppleWebKit/537.36 (KHTML, like Gecko) Chrome/134.0.0.0 Safari/537.36","WebKit","Chrome","134.0.0.0","Windows","10.0","https://hz8g1ckzuq.cognition.run/","en-US,en;q=0.9","hy9p5db2w1e9kxf","for washing machine irstbwas warranty then power cosumtion","[""White""]","No","Female","1956892.5","14431","","","{""price_1"":""70"",""price_2"":""65"",""price_3"":""68""}","rating","tcd","attraction_1","1","microwave ovens","null","null","null","null","null","null","1","60","50","60","50","60","45","Warranty","Cooking power","",""
"","","","","","rating_trial_setup","html-keyboard-response","59","1058790","0.0-3.0-0.28","50","1","2025-04-11 14:16:38","bb671e3ae32f654b8954ea4c4635f915","","Mozilla/5.0 (Windows NT 10.0; Win64; x64) AppleWebKit/537.36 (KHTML, like Gecko) Chrome/134.0.0.0 Safari/537.36","WebKit","Chrome","134.0.0.0","Windows","10.0","https://hz8g1ckzuq.cognition.run/","en-US,en;q=0.9","hy9p5db2w1e9kxf","for washing machine irstbwas warranty then power cosumtion","[""White""]","No","Female","1956892.5","null","","<p></p>","null","rating","dct","attraction_2","2","microwave ovens","null","null","null","null","null","null","1","","","","","","","","","",""
"","","","","","rating_trial","survey-html-form","60","1074058","0.0-3.0-1.28","50","1","2025-04-11 14:16:38","bb671e3ae32f654b8954ea4c4635f915","","Mozilla/5.0 (Windows NT 10.0; Win64; x64) AppleWebKit/537.36 (KHTML, like Gecko) Chrome/134.0.0.0 Safari/537.36","WebKit","Chrome","134.0.0.0","Windows","10.0","https://hz8g1ckzuq.cognition.run/","en-US,en;q=0.9","hy9p5db2w1e9kxf","for washing machine irstbwas warranty then power cosumtion","[""White""]","No","Female","1956892.5","15261","","","{""price_1"":""80"",""price_2"":""75"",""price_3"":""76""}","rating","dct","attraction_2","2","microwave ovens","null","null","null","null","null","null","1","50","60","40","60","50","60","Warranty","Cooking power","",""
"","","","","","rating_trial_setup","html-keyboard-response","61","1074363","0.0-3.0-0.29","50","1","2025-04-11 14:16:38","bb671e3ae32f654b8954ea4c4635f915","","Mozilla/5.0 (Windows NT 10.0; Win64; x64) AppleWebKit/537.36 (KHTML, like Gecko) Chrome/134.0.0.0 Safari/537.36","WebKit","Chrome","134.0.0.0","Windows","10.0","https://hz8g1ckzuq.cognition.run/","en-US,en;q=0.9","hy9p5db2w1e9kxf","for washing machine irstbwas warranty then power cosumtion","[""White""]","No","Female","1956892.5","null","","<p></p>","null","rating","wwb","catch","null","washing machines","90","55","15","15","25","5","1","","","","","","","","","",""
"","","","","","rating_trial","survey-html-form","62","1091398","0.0-3.0-1.29","50","1","2025-04-11 14:16:38","bb671e3ae32f654b8954ea4c4635f915","","Mozilla/5.0 (Windows NT 10.0; Win64; x64) AppleWebKit/537.36 (KHTML, like Gecko) Chrome/134.0.0.0 Safari/537.36","WebKit","Chrome","134.0.0.0","Windows","10.0","https://hz8g1ckzuq.cognition.run/","en-US,en;q=0.9","hy9p5db2w1e9kxf","for washing machine irstbwas warranty then power cosumtion","[""White""]","No","Female","1956892.5","17027","","","{""price_1"":""700"",""price_2"":""600"",""price_3"":""850""}","rating","wwb","catch","null","washing machines","90","55","15","15","25","5","1","null","null","null","null","null","null","Average lifespan","Energy savings","",""
"","","","","","rating_trial_setup","html-keyboard-response","63","1091708","0.0-3.0-0.30","50","1","2025-04-11 14:16:38","bb671e3ae32f654b8954ea4c4635f915","","Mozilla/5.0 (Windows NT 10.0; Win64; x64) AppleWebKit/537.36 (KHTML, like Gecko) Chrome/134.0.0.0 Safari/537.36","WebKit","Chrome","134.0.0.0","Windows","10.0","https://hz8g1ckzuq.cognition.run/","en-US,en;q=0.9","hy9p5db2w1e9kxf","for washing machine irstbwas warranty then power cosumtion","[""White""]","No","Female","1956892.5","null","","<p></p>","null","rating","bww","catch","null","laptops","60","85","35","5","25","5","1","","","","","","","","","",""
"","","","","","rating_trial","survey-html-form","64","1115020","0.0-3.0-1.30","50","1","2025-04-11 14:16:38","bb671e3ae32f654b8954ea4c4635f915","","Mozilla/5.0 (Windows NT 10.0; Win64; x64) AppleWebKit/537.36 (KHTML, like Gecko) Chrome/134.0.0.0 Safari/537.36","WebKit","Chrome","134.0.0.0","Windows","10.0","https://hz8g1ckzuq.cognition.run/","en-US,en;q=0.9","hy9p5db2w1e9kxf","for washing machine irstbwas warranty then power cosumtion","[""White""]","No","Female","1956892.5","23309","","","{""price_1"":""170"",""price_2"":""150"",""price_3"":""120""}","rating","bww","catch","null","laptops","60","85","35","5","25","5","1","null","null","null","null","null","null","Processing speed","Memory (RAM)","",""
"","","","","","rating_trial_setup","html-keyboard-response","65","1115332","0.0-3.0-0.31","50","1","2025-04-11 14:16:38","bb671e3ae32f654b8954ea4c4635f915","","Mozilla/5.0 (Windows NT 10.0; Win64; x64) AppleWebKit/537.36 (KHTML, like Gecko) Chrome/134.0.0.0 Safari/537.36","WebKit","Chrome","134.0.0.0","Windows","10.0","https://hz8g1ckzuq.cognition.run/","en-US,en;q=0.9","hy9p5db2w1e9kxf","for washing machine irstbwas warranty then power cosumtion","[""White""]","No","Female","1956892.5","null","","<p></p>","null","rating","cdt","attraction_2","1","televisions","null","null","null","null","null","null","2","","","","","","","","","",""
"","","","","","rating_trial","survey-html-form","66","1140677","0.0-3.0-1.31","50","1","2025-04-11 14:16:38","bb671e3ae32f654b8954ea4c4635f915","","Mozilla/5.0 (Windows NT 10.0; Win64; x64) AppleWebKit/537.36 (KHTML, like Gecko) Chrome/134.0.0.0 Safari/537.36","WebKit","Chrome","134.0.0.0","Windows","10.0","https://hz8g1ckzuq.cognition.run/","en-US,en;q=0.9","hy9p5db2w1e9kxf","for washing machine irstbwas warranty then power cosumtion","[""White""]","No","Female","1956892.5","25335","","","{""price_1"":""160"",""price_2"":""185"",""price_3"":""175""}","rating","cdt","attraction_2","1","televisions","null","null","null","null","null","null","2","60","50","60","50","60","40","Screen size","Average lifespan","",""
"","","","","","rating_trial_setup","html-keyboard-response","67","1140986","0.0-3.0-0.32","50","1","2025-04-11 14:16:38","bb671e3ae32f654b8954ea4c4635f915","","Mozilla/5.0 (Windows NT 10.0; Win64; x64) AppleWebKit/537.36 (KHTML, like Gecko) Chrome/134.0.0.0 Safari/537.36","WebKit","Chrome","134.0.0.0","Windows","10.0","https://hz8g1ckzuq.cognition.run/","en-US,en;q=0.9","hy9p5db2w1e9kxf","for washing machine irstbwas warranty then power cosumtion","[""White""]","No","Female","1956892.5","null","","<p></p>","null","rating","ctd","repulsion_2","1","laptops","null","null","null","null","null","null","1","","","","","","","","","",""
"","","","","","rating_trial","survey-html-form","68","1177064","0.0-3.0-1.32","50","1","2025-04-11 14:16:38","bb671e3ae32f654b8954ea4c4635f915","","Mozilla/5.0 (Windows NT 10.0; Win64; x64) AppleWebKit/537.36 (KHTML, like Gecko) Chrome/134.0.0.0 Safari/537.36","WebKit","Chrome","134.0.0.0","Windows","10.0","https://hz8g1ckzuq.cognition.run/","en-US,en;q=0.9","hy9p5db2w1e9kxf","for washing machine irstbwas warranty then power cosumtion","[""White""]","No","Female","1956892.5","36068","","","{""price_1"":""400"",""price_2"":""380"",""price_3"":""360""}","rating","ctd","repulsion_2","1","laptops","null","null","null","null","null","null","1","100","90","100","30","40","20","Processing speed","Memory (RAM)","",""
"","","","","","rating_trial_setup","html-keyboard-response","69","1177375","0.0-3.0-0.33","50","1","2025-04-11 14:16:38","bb671e3ae32f654b8954ea4c4635f915","","Mozilla/5.0 (Windows NT 10.0; Win64; x64) AppleWebKit/537.36 (KHTML, like Gecko) Chrome/134.0.0.0 Safari/537.36","WebKit","Chrome","134.0.0.0","Windows","10.0","https://hz8g1ckzuq.cognition.run/","en-US,en;q=0.9","hy9p5db2w1e9kxf","for washing machine irstbwas warranty then power cosumtion","[""White""]","No","Female","1956892.5","null","","<p></p>","null","rating","dtc","attraction_1","2","washing machines","null","null","null","null","null","null","1","","","","","","","","","",""
"","","","","","rating_trial","survey-html-form","70","1209377","0.0-3.0-1.33","50","1","2025-04-11 14:16:38","bb671e3ae32f654b8954ea4c4635f915","","Mozilla/5.0 (Windows NT 10.0; Win64; x64) AppleWebKit/537.36 (KHTML, like Gecko) Chrome/134.0.0.0 Safari/537.36","WebKit","Chrome","134.0.0.0","Windows","10.0","https://hz8g1ckzuq.cognition.run/","en-US,en;q=0.9","hy9p5db2w1e9kxf","for washing machine irstbwas warranty then power cosumtion","[""White""]","No","Female","1956892.5","31995","","","{""price_1"":""690"",""price_2"":""700"",""price_3"":""760""}","rating","dtc","attraction_1","2","washing machines","null","null","null","null","null","null","1","50","60","45","60","50","60","Average lifespan","Energy savings","",""
"","","","","","rating_trial_setup","html-keyboard-response","71","1209688","0.0-3.0-0.34","50","1","2025-04-11 14:16:38","bb671e3ae32f654b8954ea4c4635f915","","Mozilla/5.0 (Windows NT 10.0; Win64; x64) AppleWebKit/537.36 (KHTML, like Gecko) Chrome/134.0.0.0 Safari/537.36","WebKit","Chrome","134.0.0.0","Windows","10.0","https://hz8g1ckzuq.cognition.run/","en-US,en;q=0.9","hy9p5db2w1e9kxf","for washing machine irstbwas warranty then power cosumtion","[""White""]","No","Female","1956892.5","null","","<p></p>","null","rating","wwb","catch","null","microwave ovens","65","85","20","30","40","45","2","","","","","","","","","",""
"","","","","","rating_trial","survey-html-form","72","1225336","0.0-3.0-1.34","50","1","2025-04-11 14:16:38","bb671e3ae32f654b8954ea4c4635f915","","Mozilla/5.0 (Windows NT 10.0; Win64; x64) AppleWebKit/537.36 (KHTML, like Gecko) Chrome/134.0.0.0 Safari/537.36","WebKit","Chrome","134.0.0.0","Windows","10.0","https://hz8g1ckzuq.cognition.run/","en-US,en;q=0.9","hy9p5db2w1e9kxf","for washing machine irstbwas warranty then power cosumtion","[""White""]","No","Female","1956892.5","15642","","","{""price_1"":""70"",""price_2"":""85"",""price_3"":""90""}","rating","wwb","catch","null","microwave ovens","65","85","20","30","40","45","2","null","null","null","null","null","null","Warranty","Cooking power","",""
"","","","","","rating_trial_setup","html-keyboard-response","73","1225641","0.0-3.0-0.35","50","1","2025-04-11 14:16:38","bb671e3ae32f654b8954ea4c4635f915","","Mozilla/5.0 (Windows NT 10.0; Win64; x64) AppleWebKit/537.36 (KHTML, like Gecko) Chrome/134.0.0.0 Safari/537.36","WebKit","Chrome","134.0.0.0","Windows","10.0","https://hz8g1ckzuq.cognition.run/","en-US,en;q=0.9","hy9p5db2w1e9kxf","for washing machine irstbwas warranty then power cosumtion","[""White""]","No","Female","1956892.5","null","","<p></p>","null","rating","ctd","attraction_1","2","televisions","null","null","null","null","null","null","2","","","","","","","","","",""
"","","","","","rating_trial","survey-html-form","74","1248041","0.0-3.0-1.35","50","1","2025-04-11 14:16:38","bb671e3ae32f654b8954ea4c4635f915","","Mozilla/5.0 (Windows NT 10.0; Win64; x64) AppleWebKit/537.36 (KHTML, like Gecko) Chrome/134.0.0.0 Safari/537.36","WebKit","Chrome","134.0.0.0","Windows","10.0","https://hz8g1ckzuq.cognition.run/","en-US,en;q=0.9","hy9p5db2w1e9kxf","for washing machine irstbwas warranty then power cosumtion","[""White""]","No","Female","1956892.5","22391","","","{""price_1"":""165"",""price_2"":""150"",""price_3"":""145""}","rating","ctd","attraction_1","2","televisions","null","null","null","null","null","null","2","50","60","45","60","50","60","Screen size","Average lifespan","",""
"","","","","","rating_trial_setup","html-keyboard-response","75","1248347","0.0-3.0-0.36","50","1","2025-04-11 14:16:38","bb671e3ae32f654b8954ea4c4635f915","","Mozilla/5.0 (Windows NT 10.0; Win64; x64) AppleWebKit/537.36 (KHTML, like Gecko) Chrome/134.0.0.0 Safari/537.36","WebKit","Chrome","134.0.0.0","Windows","10.0","https://hz8g1ckzuq.cognition.run/","en-US,en;q=0.9","hy9p5db2w1e9kxf","for washing machine irstbwas warranty then power cosumtion","[""White""]","No","Female","1956892.5","null","","<p></p>","null","rating","ctd","attraction_2","2","laptops","null","null","null","null","null","null","2","","","","","","","","","",""
"","","","","","rating_trial","survey-html-form","76","1266079","0.0-3.0-1.36","50","1","2025-04-11 14:16:38","bb671e3ae32f654b8954ea4c4635f915","","Mozilla/5.0 (Windows NT 10.0; Win64; x64) AppleWebKit/537.36 (KHTML, like Gecko) Chrome/134.0.0.0 Safari/537.36","WebKit","Chrome","134.0.0.0","Windows","10.0","https://hz8g1ckzuq.cognition.run/","en-US,en;q=0.9","hy9p5db2w1e9kxf","for washing machine irstbwas warranty then power cosumtion","[""White""]","No","Female","1956892.5","17724","","","{""price_1"":""350"",""price_2"":""330"",""price_3"":""300""}","rating","ctd","attraction_2","2","laptops","null","null","null","null","null","null","2","50","60","40","60","50","60","Processing speed","Memory (RAM)","",""
"","","","","","rating_trial_setup","html-keyboard-response","77","1266388","0.0-3.0-0.37","50","1","2025-04-11 14:16:38","bb671e3ae32f654b8954ea4c4635f915","","Mozilla/5.0 (Windows NT 10.0; Win64; x64) AppleWebKit/537.36 (KHTML, like Gecko) Chrome/134.0.0.0 Safari/537.36","WebKit","Chrome","134.0.0.0","Windows","10.0","https://hz8g1ckzuq.cognition.run/","en-US,en;q=0.9","hy9p5db2w1e9kxf","for washing machine irstbwas warranty then power cosumtion","[""White""]","No","Female","1956892.5","null","","<p></p>","null","rating","wbw","catch","null","televisions","95","80","35","5","20","40","2","","","","","","","","","",""
"","","","","","rating_trial","survey-html-form","78","1287891","0.0-3.0-1.37","50","1","2025-04-11 14:16:38","bb671e3ae32f654b8954ea4c4635f915","","Mozilla/5.0 (Windows NT 10.0; Win64; x64) AppleWebKit/537.36 (KHTML, like Gecko) Chrome/134.0.0.0 Safari/537.36","WebKit","Chrome","134.0.0.0","Windows","10.0","https://hz8g1ckzuq.cognition.run/","en-US,en;q=0.9","hy9p5db2w1e9kxf","for washing machine irstbwas warranty then power cosumtion","[""White""]","No","Female","1956892.5","21495","","","{""price_1"":""150"",""price_2"":""180"",""price_3"":""125""}","rating","wbw","catch","null","televisions","95","80","35","5","20","40","2","null","null","null","null","null","null","Screen size","Average lifespan","",""
"","","","","","rating_trial_setup","html-keyboard-response","79","1288201","0.0-3.0-0.38","50","1","2025-04-11 14:16:38","bb671e3ae32f654b8954ea4c4635f915","","Mozilla/5.0 (Windows NT 10.0; Win64; x64) AppleWebKit/537.36 (KHTML, like Gecko) Chrome/134.0.0.0 Safari/537.36","WebKit","Chrome","134.0.0.0","Windows","10.0","https://hz8g1ckzuq.cognition.run/","en-US,en;q=0.9","hy9p5db2w1e9kxf","for washing machine irstbwas warranty then power cosumtion","[""White""]","No","Female","1956892.5","null","","<p></p>","null","rating","dct","repulsion_1","1","laptops","null","null","null","null","null","null","2","","","","","","","","","",""
"","","","","","rating_trial","survey-html-form","80","1305602","0.0-3.0-1.38","50","1","2025-04-11 14:16:38","bb671e3ae32f654b8954ea4c4635f915","","Mozilla/5.0 (Windows NT 10.0; Win64; x64) AppleWebKit/537.36 (KHTML, like Gecko) Chrome/134.0.0.0 Safari/537.36","WebKit","Chrome","134.0.0.0","Windows","10.0","https://hz8g1ckzuq.cognition.run/","en-US,en;q=0.9","hy9p5db2w1e9kxf","for washing machine irstbwas warranty then power cosumtion","[""White""]","No","Female","1956892.5","17390","","","{""price_1"":""370"",""price_2"":""300"",""price_3"":""340""}","rating","dct","repulsion_1","1","laptops","null","null","null","null","null","null","2","100","90","100","30","40","25","Processing speed","Memory (RAM)","",""
"","","","","","rating_trial_setup","html-keyboard-response","81","1305912","0.0-3.0-0.39","50","1","2025-04-11 14:16:38","bb671e3ae32f654b8954ea4c4635f915","","Mozilla/5.0 (Windows NT 10.0; Win64; x64) AppleWebKit/537.36 (KHTML, like Gecko) Chrome/134.0.0.0 Safari/537.36","WebKit","Chrome","134.0.0.0","Windows","10.0","https://hz8g1ckzuq.cognition.run/","en-US,en;q=0.9","hy9p5db2w1e9kxf","for washing machine irstbwas warranty then power cosumtion","[""White""]","No","Female","1956892.5","null","","<p></p>","null","rating","cdt","attraction_1","1","laptops","null","null","null","null","null","null","1","","","","","","","","","",""
"","","","","","rating_trial","survey-html-form","82","1337066","0.0-3.0-1.39","50","1","2025-04-11 14:16:38","bb671e3ae32f654b8954ea4c4635f915","","Mozilla/5.0 (Windows NT 10.0; Win64; x64) AppleWebKit/537.36 (KHTML, like Gecko) Chrome/134.0.0.0 Safari/537.36","WebKit","Chrome","134.0.0.0","Windows","10.0","https://hz8g1ckzuq.cognition.run/","en-US,en;q=0.9","hy9p5db2w1e9kxf","for washing machine irstbwas warranty then power cosumtion","[""White""]","No","Female","1956892.5","31146","","","{""price_1"":""360"",""price_2"":""350"",""price_3"":""380""}","rating","cdt","attraction_1","1","laptops","null","null","null","null","null","null","1","60","50","60","50","60","45","Processing speed","Memory (RAM)","",""
"","","","","","","instructions","83","1390079","0.0-4.0","50","1","2025-04-11 14:16:38","bb671e3ae32f654b8954ea4c4635f915","","Mozilla/5.0 (Windows NT 10.0; Win64; x64) AppleWebKit/537.36 (KHTML, like Gecko) Chrome/134.0.0.0 Safari/537.36","WebKit","Chrome","134.0.0.0","Windows","10.0","https://hz8g1ckzuq.cognition.run/","en-US,en;q=0.9","hy9p5db2w1e9kxf","for washing machine irstbwas warranty then power cosumtion","[""White""]","No","Female","1956892.5","53005","[{""page_index"":0,""viewing_time"":4361},{""page_index"":1,""viewing_time"":2353},{""page_index"":2,""viewing_time"":5809},{""page_index"":3,""viewing_time"":5160},{""page_index"":4,""viewing_time"":14197},{""page_index"":5,""viewing_time"":4252},{""page_index"":6,""viewing_time"":13388},{""page_index"":7,""viewing_time"":3485}]","","","","","","","","","","","","","","","","","","","","","","","",""
"","","","","","choice_trial_setup","html-keyboard-response","84","1390392","0.0-5.0-0.0","50","1","2025-04-11 14:16:38","bb671e3ae32f654b8954ea4c4635f915","","Mozilla/5.0 (Windows NT 10.0; Win64; x64) AppleWebKit/537.36 (KHTML, like Gecko) Chrome/134.0.0.0 Safari/537.36","WebKit","Chrome","134.0.0.0","Windows","10.0","https://hz8g1ckzuq.cognition.run/","en-US,en;q=0.9","hy9p5db2w1e9kxf","for washing machine irstbwas warranty then power cosumtion","[""White""]","No","Female","1956892.5","null","","<p></p>","null","choice","cdt","repulsion_1","1","microwave ovens","null","null","null","null","null","null","2","","","","","","","","","",""
"","","","","","choice_trial","survey-html-form","85","1403473","0.0-5.0-1.0","50","1","2025-04-11 14:16:38","bb671e3ae32f654b8954ea4c4635f915","","Mozilla/5.0 (Windows NT 10.0; Win64; x64) AppleWebKit/537.36 (KHTML, like Gecko) Chrome/134.0.0.0 Safari/537.36","WebKit","Chrome","134.0.0.0","Windows","10.0","https://hz8g1ckzuq.cognition.run/","en-US,en;q=0.9","hy9p5db2w1e9kxf","for washing machine irstbwas warranty then power cosumtion","[""White""]","No","Female","1956892.5","13072","","","{""product_choice"":""A""}","choice","cdt","repulsion_1","1","microwave ovens","null","null","null","null","null","null","2","100","90","100","30","40","25","Warranty","Cooking power","",""
"","","","","","choice_trial_setup","html-keyboard-response","86","1403783","0.0-5.0-0.1","50","1","2025-04-11 14:16:38","bb671e3ae32f654b8954ea4c4635f915","","Mozilla/5.0 (Windows NT 10.0; Win64; x64) AppleWebKit/537.36 (KHTML, like Gecko) Chrome/134.0.0.0 Safari/537.36","WebKit","Chrome","134.0.0.0","Windows","10.0","https://hz8g1ckzuq.cognition.run/","en-US,en;q=0.9","hy9p5db2w1e9kxf","for washing machine irstbwas warranty then power cosumtion","[""White""]","No","Female","1956892.5","null","","<p></p>","null","choice","wwb","catch","null","washing machines","90","55","40","30","10","10","2","","","","","","","","","",""
"","","","","","choice_trial","survey-html-form","87","1414003","0.0-5.0-1.1","50","1","2025-04-11 14:16:38","bb671e3ae32f654b8954ea4c4635f915","","Mozilla/5.0 (Windows NT 10.0; Win64; x64) AppleWebKit/537.36 (KHTML, like Gecko) Chrome/134.0.0.0 Safari/537.36","WebKit","Chrome","134.0.0.0","Windows","10.0","https://hz8g1ckzuq.cognition.run/","en-US,en;q=0.9","hy9p5db2w1e9kxf","for washing machine irstbwas warranty then power cosumtion","[""White""]","No","Female","1956892.5","10212","","","{""product_choice"":""C""}","choice","wwb","catch","null","washing machines","90","55","40","30","10","10","2","null","null","null","null","null","null","Average lifespan","Energy savings","",""
"","","","","","choice_trial_setup","html-keyboard-response","88","1414317","0.0-5.0-0.2","50","1","2025-04-11 14:16:38","bb671e3ae32f654b8954ea4c4635f915","","Mozilla/5.0 (Windows NT 10.0; Win64; x64) AppleWebKit/537.36 (KHTML, like Gecko) Chrome/134.0.0.0 Safari/537.36","WebKit","Chrome","134.0.0.0","Windows","10.0","https://hz8g1ckzuq.cognition.run/","en-US,en;q=0.9","hy9p5db2w1e9kxf","for washing machine irstbwas warranty then power cosumtion","[""White""]","No","Female","1956892.5","null","","<p></p>","null","choice","cdt","attraction_1","2","laptops","null","null","null","null","null","null","2","","","","","","","","","",""
"","","","","","choice_trial","survey-html-form","89","1420393","0.0-5.0-1.2","50","1","2025-04-11 14:16:38","bb671e3ae32f654b8954ea4c4635f915","","Mozilla/5.0 (Windows NT 10.0; Win64; x64) AppleWebKit/537.36 (KHTML, like Gecko) Chrome/134.0.0.0 Safari/537.36","WebKit","Chrome","134.0.0.0","Windows","10.0","https://hz8g1ckzuq.cognition.run/","en-US,en;q=0.9","hy9p5db2w1e9kxf","for washing machine irstbwas warranty then power cosumtion","[""White""]","No","Female","1956892.5","6067","","","{""product_choice"":""A""}","choice","cdt","attraction_1","2","laptops","null","null","null","null","null","null","2","50","60","45","60","50","60","Processing speed","Memory (RAM)","",""
"","","","","","choice_trial_setup","html-keyboard-response","90","1420705","0.0-5.0-0.3","50","1","2025-04-11 14:16:38","bb671e3ae32f654b8954ea4c4635f915","","Mozilla/5.0 (Windows NT 10.0; Win64; x64) AppleWebKit/537.36 (KHTML, like Gecko) Chrome/134.0.0.0 Safari/537.36","WebKit","Chrome","134.0.0.0","Windows","10.0","https://hz8g1ckzuq.cognition.run/","en-US,en;q=0.9","hy9p5db2w1e9kxf","for washing machine irstbwas warranty then power cosumtion","[""White""]","No","Female","1956892.5","null","","<p></p>","null","choice","tdc","repulsion_1","2","televisions","null","null","null","null","null","null","1","","","","","","","","","",""
"","","","","","choice_trial","survey-html-form","91","1428785","0.0-5.0-1.3","50","1","2025-04-11 14:16:38","bb671e3ae32f654b8954ea4c4635f915","","Mozilla/5.0 (Windows NT 10.0; Win64; x64) AppleWebKit/537.36 (KHTML, like Gecko) Chrome/134.0.0.0 Safari/537.36","WebKit","Chrome","134.0.0.0","Windows","10.0","https://hz8g1ckzuq.cognition.run/","en-US,en;q=0.9","hy9p5db2w1e9kxf","for washing machine irstbwas warranty then power cosumtion","[""White""]","No","Female","1956892.5","8072","","","{""product_choice"":""C""}","choice","tdc","repulsion_1","2","televisions","null","null","null","null","null","null","1","30","40","25","100","90","100","Screen size","Average lifespan","",""
"","","","","","choice_trial_setup","html-keyboard-response","92","1429097","0.0-5.0-0.4","50","1","2025-04-11 14:16:38","bb671e3ae32f654b8954ea4c4635f915","","Mozilla/5.0 (Windows NT 10.0; Win64; x64) AppleWebKit/537.36 (KHTML, like Gecko) Chrome/134.0.0.0 Safari/537.36","WebKit","Chrome","134.0.0.0","Windows","10.0","https://hz8g1ckzuq.cognition.run/","en-US,en;q=0.9","hy9p5db2w1e9kxf","for washing machine irstbwas warranty then power cosumtion","[""White""]","No","Female","1956892.5","null","","<p></p>","null","choice","cdt","repulsion_1","1","washing machines","null","null","null","null","null","null","1","","","","","","","","","",""
"","","","","","choice_trial","survey-html-form","93","1442625","0.0-5.0-1.4","50","1","2025-04-11 14:16:38","bb671e3ae32f654b8954ea4c4635f915","","Mozilla/5.0 (Windows NT 10.0; Win64; x64) AppleWebKit/537.36 (KHTML, like Gecko) Chrome/134.0.0.0 Safari/537.36","WebKit","Chrome","134.0.0.0","Windows","10.0","https://hz8g1ckzuq.cognition.run/","en-US,en;q=0.9","hy9p5db2w1e9kxf","for washing machine irstbwas warranty then power cosumtion","[""White""]","No","Female","1956892.5","13521","","","{""product_choice"":""C""}","choice","cdt","repulsion_1","1","washing machines","null","null","null","null","null","null","1","100","90","100","30","40","25","Average lifespan","Energy savings","",""
"","","","","","choice_trial_setup","html-keyboard-response","94","1442937","0.0-5.0-0.5","50","1","2025-04-11 14:16:38","bb671e3ae32f654b8954ea4c4635f915","","Mozilla/5.0 (Windows NT 10.0; Win64; x64) AppleWebKit/537.36 (KHTML, like Gecko) Chrome/134.0.0.0 Safari/537.36","WebKit","Chrome","134.0.0.0","Windows","10.0","https://hz8g1ckzuq.cognition.run/","en-US,en;q=0.9","hy9p5db2w1e9kxf","for washing machine irstbwas warranty then power cosumtion","[""White""]","No","Female","1956892.5","null","","<p></p>","null","choice","wwb","catch","null","washing machines","65","60","45","45","35","45","1","","","","","","","","","",""
"","","","","","choice_trial","survey-html-form","95","1450420","0.0-5.0-1.5","50","1","2025-04-11 14:16:38","bb671e3ae32f654b8954ea4c4635f915","","Mozilla/5.0 (Windows NT 10.0; Win64; x64) AppleWebKit/537.36 (KHTML, like Gecko) Chrome/134.0.0.0 Safari/537.36","WebKit","Chrome","134.0.0.0","Windows","10.0","https://hz8g1ckzuq.cognition.run/","en-US,en;q=0.9","hy9p5db2w1e9kxf","for washing machine irstbwas warranty then power cosumtion","[""White""]","No","Female","1956892.5","7477","","","{""product_choice"":""C""}","choice","wwb","catch","null","washing machines","65","60","45","45","35","45","1","null","null","null","null","null","null","Average lifespan","Energy savings","",""
"","","","","","choice_trial_setup","html-keyboard-response","96","1450732","0.0-5.0-0.6","50","1","2025-04-11 14:16:38","bb671e3ae32f654b8954ea4c4635f915","","Mozilla/5.0 (Windows NT 10.0; Win64; x64) AppleWebKit/537.36 (KHTML, like Gecko) Chrome/134.0.0.0 Safari/537.36","WebKit","Chrome","134.0.0.0","Windows","10.0","https://hz8g1ckzuq.cognition.run/","en-US,en;q=0.9","hy9p5db2w1e9kxf","for washing machine irstbwas warranty then power cosumtion","[""White""]","No","Female","1956892.5","null","","<p></p>","null","choice","bww","catch","null","televisions","55","75","25","30","25","25","2","","","","","","","","","",""
"","","","","","choice_trial","survey-html-form","97","1458825","0.0-5.0-1.6","50","1","2025-04-11 14:16:38","bb671e3ae32f654b8954ea4c4635f915","","Mozilla/5.0 (Windows NT 10.0; Win64; x64) AppleWebKit/537.36 (KHTML, like Gecko) Chrome/134.0.0.0 Safari/537.36","WebKit","Chrome","134.0.0.0","Windows","10.0","https://hz8g1ckzuq.cognition.run/","en-US,en;q=0.9","hy9p5db2w1e9kxf","for washing machine irstbwas warranty then power cosumtion","[""White""]","No","Female","1956892.5","8086","","","{""product_choice"":""A""}","choice","bww","catch","null","televisions","55","75","25","30","25","25","2","null","null","null","null","null","null","Screen size","Average lifespan","",""
"","","","","","choice_trial_setup","html-keyboard-response","98","1459137","0.0-5.0-0.7","50","1","2025-04-11 14:16:38","bb671e3ae32f654b8954ea4c4635f915","","Mozilla/5.0 (Windows NT 10.0; Win64; x64) AppleWebKit/537.36 (KHTML, like Gecko) Chrome/134.0.0.0 Safari/537.36","WebKit","Chrome","134.0.0.0","Windows","10.0","https://hz8g1ckzuq.cognition.run/","en-US,en;q=0.9","hy9p5db2w1e9kxf","for washing machine irstbwas warranty then power cosumtion","[""White""]","No","Female","1956892.5","null","","<p></p>","null","choice","tcd","repulsion_1","2","washing machines","null","null","null","null","null","null","1","","","","","","","","","",""
"","","","","","choice_trial","survey-html-form","99","1464856","0.0-5.0-1.7","50","1","2025-04-11 14:16:38","bb671e3ae32f654b8954ea4c4635f915","","Mozilla/5.0 (Windows NT 10.0; Win64; x64) AppleWebKit/537.36 (KHTML, like Gecko) Chrome/134.0.0.0 Safari/537.36","WebKit","Chrome","134.0.0.0","Windows","10.0","https://hz8g1ckzuq.cognition.run/","en-US,en;q=0.9","hy9p5db2w1e9kxf","for washing machine irstbwas warranty then power cosumtion","[""White""]","No","Female","1956892.5","5711","","","{""product_choice"":""B""}","choice","tcd","repulsion_1","2","washing machines","null","null","null","null","null","null","1","30","40","25","100","90","100","Average lifespan","Energy savings","",""
"","","","","","choice_trial_setup","html-keyboard-response","100","1465163","0.0-5.0-0.8","50","1","2025-04-11 14:16:38","bb671e3ae32f654b8954ea4c4635f915","","Mozilla/5.0 (Windows NT 10.0; Win64; x64) AppleWebKit/537.36 (KHTML, like Gecko) Chrome/134.0.0.0 Safari/537.36","WebKit","Chrome","134.0.0.0","Windows","10.0","https://hz8g1ckzuq.cognition.run/","en-US,en;q=0.9","hy9p5db2w1e9kxf","for washing machine irstbwas warranty then power cosumtion","[""White""]","No","Female","1956892.5","null","","<p></p>","null","choice","dtc","attraction_1","1","microwave ovens","null","null","null","null","null","null","2","","","","","","","","","",""
"","","","","","choice_trial","survey-html-form","101","1471465","0.0-5.0-1.8","50","1","2025-04-11 14:16:38","bb671e3ae32f654b8954ea4c4635f915","","Mozilla/5.0 (Windows NT 10.0; Win64; x64) AppleWebKit/537.36 (KHTML, like Gecko) Chrome/134.0.0.0 Safari/537.36","WebKit","Chrome","134.0.0.0","Windows","10.0","https://hz8g1ckzuq.cognition.run/","en-US,en;q=0.9","hy9p5db2w1e9kxf","for washing machine irstbwas warranty then power cosumtion","[""White""]","No","Female","1956892.5","6294","","","{""product_choice"":""A""}","choice","dtc","attraction_1","1","microwave ovens","null","null","null","null","null","null","2","60","50","60","50","60","45","Warranty","Cooking power","",""
"","","","","","choice_trial_setup","html-keyboard-response","102","1471772","0.0-5.0-0.9","50","1","2025-04-11 14:16:38","bb671e3ae32f654b8954ea4c4635f915","","Mozilla/5.0 (Windows NT 10.0; Win64; x64) AppleWebKit/537.36 (KHTML, like Gecko) Chrome/134.0.0.0 Safari/537.36","WebKit","Chrome","134.0.0.0","Windows","10.0","https://hz8g1ckzuq.cognition.run/","en-US,en;q=0.9","hy9p5db2w1e9kxf","for washing machine irstbwas warranty then power cosumtion","[""White""]","No","Female","1956892.5","null","","<p></p>","null","choice","bww","catch","null","microwave ovens","80","65","15","50","35","40","1","","","","","","","","","",""
"","","","","","choice_trial","survey-html-form","103","1480914","0.0-5.0-1.9","50","1","2025-04-11 14:16:38","bb671e3ae32f654b8954ea4c4635f915","","Mozilla/5.0 (Windows NT 10.0; Win64; x64) AppleWebKit/537.36 (KHTML, like Gecko) Chrome/134.0.0.0 Safari/537.36","WebKit","Chrome","134.0.0.0","Windows","10.0","https://hz8g1ckzuq.cognition.run/","en-US,en;q=0.9","hy9p5db2w1e9kxf","for washing machine irstbwas warranty then power cosumtion","[""White""]","No","Female","1956892.5","9134","","","{""product_choice"":""A""}","choice","bww","catch","null","microwave ovens","80","65","15","50","35","40","1","null","null","null","null","null","null","Warranty","Cooking power","",""
"","","","","","choice_trial_setup","html-keyboard-response","104","1481223","0.0-5.0-0.10","50","1","2025-04-11 14:16:38","bb671e3ae32f654b8954ea4c4635f915","","Mozilla/5.0 (Windows NT 10.0; Win64; x64) AppleWebKit/537.36 (KHTML, like Gecko) Chrome/134.0.0.0 Safari/537.36","WebKit","Chrome","134.0.0.0","Windows","10.0","https://hz8g1ckzuq.cognition.run/","en-US,en;q=0.9","hy9p5db2w1e9kxf","for washing machine irstbwas warranty then power cosumtion","[""White""]","No","Female","1956892.5","null","","<p></p>","null","choice","dct","attraction_1","2","washing machines","null","null","null","null","null","null","1","","","","","","","","","",""
"","","","","","choice_trial","survey-html-form","105","1489319","0.0-5.0-1.10","50","1","2025-04-11 14:16:38","bb671e3ae32f654b8954ea4c4635f915","","Mozilla/5.0 (Windows NT 10.0; Win64; x64) AppleWebKit/537.36 (KHTML, like Gecko) Chrome/134.0.0.0 Safari/537.36","WebKit","Chrome","134.0.0.0","Windows","10.0","https://hz8g1ckzuq.cognition.run/","en-US,en;q=0.9","hy9p5db2w1e9kxf","for washing machine irstbwas warranty then power cosumtion","[""White""]","No","Female","1956892.5","8084","","","{""product_choice"":""B""}","choice","dct","attraction_1","2","washing machines","null","null","null","null","null","null","1","50","60","45","60","50","60","Average lifespan","Energy savings","",""
"","","","","","choice_trial_setup","html-keyboard-response","106","1489631","0.0-5.0-0.11","50","1","2025-04-11 14:16:38","bb671e3ae32f654b8954ea4c4635f915","","Mozilla/5.0 (Windows NT 10.0; Win64; x64) AppleWebKit/537.36 (KHTML, like Gecko) Chrome/134.0.0.0 Safari/537.36","WebKit","Chrome","134.0.0.0","Windows","10.0","https://hz8g1ckzuq.cognition.run/","en-US,en;q=0.9","hy9p5db2w1e9kxf","for washing machine irstbwas warranty then power cosumtion","[""White""]","No","Female","1956892.5","null","","<p></p>","null","choice","dtc","repulsion_2","1","laptops","null","null","null","null","null","null","1","","","","","","","","","",""
"","","","","","choice_trial","survey-html-form","107","1503533","0.0-5.0-1.11","50","1","2025-04-11 14:16:38","bb671e3ae32f654b8954ea4c4635f915","","Mozilla/5.0 (Windows NT 10.0; Win64; x64) AppleWebKit/537.36 (KHTML, like Gecko) Chrome/134.0.0.0 Safari/537.36","WebKit","Chrome","134.0.0.0","Windows","10.0","https://hz8g1ckzuq.cognition.run/","en-US,en;q=0.9","hy9p5db2w1e9kxf","for washing machine irstbwas warranty then power cosumtion","[""White""]","No","Female","1956892.5","13896","","","{""product_choice"":""B""}","choice","dtc","repulsion_2","1","laptops","null","null","null","null","null","null","1","100","90","100","30","40","20","Processing speed","Memory (RAM)","",""
"","","","","","choice_trial_setup","html-keyboard-response","108","1503840","0.0-5.0-0.12","50","1","2025-04-11 14:16:38","bb671e3ae32f654b8954ea4c4635f915","","Mozilla/5.0 (Windows NT 10.0; Win64; x64) AppleWebKit/537.36 (KHTML, like Gecko) Chrome/134.0.0.0 Safari/537.36","WebKit","Chrome","134.0.0.0","Windows","10.0","https://hz8g1ckzuq.cognition.run/","en-US,en;q=0.9","hy9p5db2w1e9kxf","for washing machine irstbwas warranty then power cosumtion","[""White""]","No","Female","1956892.5","null","","<p></p>","null","choice","tcd","attraction_2","1","microwave ovens","null","null","null","null","null","null","2","","","","","","","","","",""
"","","","","","choice_trial","survey-html-form","109","1514293","0.0-5.0-1.12","50","1","2025-04-11 14:16:38","bb671e3ae32f654b8954ea4c4635f915","","Mozilla/5.0 (Windows NT 10.0; Win64; x64) AppleWebKit/537.36 (KHTML, like Gecko) Chrome/134.0.0.0 Safari/537.36","WebKit","Chrome","134.0.0.0","Windows","10.0","https://hz8g1ckzuq.cognition.run/","en-US,en;q=0.9","hy9p5db2w1e9kxf","for washing machine irstbwas warranty then power cosumtion","[""White""]","No","Female","1956892.5","10443","","","{""product_choice"":""A""}","choice","tcd","attraction_2","1","microwave ovens","null","null","null","null","null","null","2","60","50","60","50","60","40","Warranty","Cooking power","",""
"","","","","","choice_trial_setup","html-keyboard-response","110","1514601","0.0-5.0-0.13","50","1","2025-04-11 14:16:38","bb671e3ae32f654b8954ea4c4635f915","","Mozilla/5.0 (Windows NT 10.0; Win64; x64) AppleWebKit/537.36 (KHTML, like Gecko) Chrome/134.0.0.0 Safari/537.36","WebKit","Chrome","134.0.0.0","Windows","10.0","https://hz8g1ckzuq.cognition.run/","en-US,en;q=0.9","hy9p5db2w1e9kxf","for washing machine irstbwas warranty then power cosumtion","[""White""]","No","Female","1956892.5","null","","<p></p>","null","choice","dct","attraction_1","1","washing machines","null","null","null","null","null","null","2","","","","","","","","","",""
"","","","","","choice_trial","survey-html-form","111","1543036","0.0-5.0-1.13","50","1","2025-04-11 14:16:38","bb671e3ae32f654b8954ea4c4635f915","","Mozilla/5.0 (Windows NT 10.0; Win64; x64) AppleWebKit/537.36 (KHTML, like Gecko) Chrome/134.0.0.0 Safari/537.36","WebKit","Chrome","134.0.0.0","Windows","10.0","https://hz8g1ckzuq.cognition.run/","en-US,en;q=0.9","hy9p5db2w1e9kxf","for washing machine irstbwas warranty then power cosumtion","[""White""]","No","Female","1956892.5","28424","","","{""product_choice"":""C""}","choice","dct","attraction_1","1","washing machines","null","null","null","null","null","null","2","60","50","60","50","60","45","Average lifespan","Energy savings","",""
"","","","","","choice_trial_setup","html-keyboard-response","112","1543343","0.0-5.0-0.14","50","1","2025-04-11 14:16:38","bb671e3ae32f654b8954ea4c4635f915","","Mozilla/5.0 (Windows NT 10.0; Win64; x64) AppleWebKit/537.36 (KHTML, like Gecko) Chrome/134.0.0.0 Safari/537.36","WebKit","Chrome","134.0.0.0","Windows","10.0","https://hz8g1ckzuq.cognition.run/","en-US,en;q=0.9","hy9p5db2w1e9kxf","for washing machine irstbwas warranty then power cosumtion","[""White""]","No","Female","1956892.5","null","","<p></p>","null","choice","tcd","repulsion_2","2","washing machines","null","null","null","null","null","null","1","","","","","","","","","",""
"","","","","","choice_trial","survey-html-form","113","1550238","0.0-5.0-1.14","50","1","2025-04-11 14:16:38","bb671e3ae32f654b8954ea4c4635f915","","Mozilla/5.0 (Windows NT 10.0; Win64; x64) AppleWebKit/537.36 (KHTML, like Gecko) Chrome/134.0.0.0 Safari/537.36","WebKit","Chrome","134.0.0.0","Windows","10.0","https://hz8g1ckzuq.cognition.run/","en-US,en;q=0.9","hy9p5db2w1e9kxf","for washing machine irstbwas warranty then power cosumtion","[""White""]","No","Female","1956892.5","6888","","","{""product_choice"":""A""}","choice","tcd","repulsion_2","2","washing machines","null","null","null","null","null","null","1","30","40","20","100","90","100","Average lifespan","Energy savings","",""
"","","","","","choice_trial_setup","html-keyboard-response","114","1550551","0.0-5.0-0.15","50","1","2025-04-11 14:16:38","bb671e3ae32f654b8954ea4c4635f915","","Mozilla/5.0 (Windows NT 10.0; Win64; x64) AppleWebKit/537.36 (KHTML, like Gecko) Chrome/134.0.0.0 Safari/537.36","WebKit","Chrome","134.0.0.0","Windows","10.0","https://hz8g1ckzuq.cognition.run/","en-US,en;q=0.9","hy9p5db2w1e9kxf","for washing machine irstbwas warranty then power cosumtion","[""White""]","No","Female","1956892.5","null","","<p></p>","null","choice","bww","catch","null","microwave ovens","55","95","15","45","40","35","1","","","","","","","","","",""
"","","","","","choice_trial","survey-html-form","115","1556037","0.0-5.0-1.15","50","1","2025-04-11 14:16:38","bb671e3ae32f654b8954ea4c4635f915","","Mozilla/5.0 (Windows NT 10.0; Win64; x64) AppleWebKit/537.36 (KHTML, like Gecko) Chrome/134.0.0.0 Safari/537.36","WebKit","Chrome","134.0.0.0","Windows","10.0","https://hz8g1ckzuq.cognition.run/","en-US,en;q=0.9","hy9p5db2w1e9kxf","for washing machine irstbwas warranty then power cosumtion","[""White""]","No","Female","1956892.5","5471","","","{""product_choice"":""A""}","choice","bww","catch","null","microwave ovens","55","95","15","45","40","35","1","null","null","null","null","null","null","Warranty","Cooking power","",""
"","","","","","choice_trial_setup","html-keyboard-response","116","1556343","0.0-5.0-0.16","50","1","2025-04-11 14:16:38","bb671e3ae32f654b8954ea4c4635f915","","Mozilla/5.0 (Windows NT 10.0; Win64; x64) AppleWebKit/537.36 (KHTML, like Gecko) Chrome/134.0.0.0 Safari/537.36","WebKit","Chrome","134.0.0.0","Windows","10.0","https://hz8g1ckzuq.cognition.run/","en-US,en;q=0.9","hy9p5db2w1e9kxf","for washing machine irstbwas warranty then power cosumtion","[""White""]","No","Female","1956892.5","null","","<p></p>","null","choice","tcd","repulsion_2","1","microwave ovens","null","null","null","null","null","null","1","","","","","","","","","",""
"","","","","","choice_trial","survey-html-form","117","1566288","0.0-5.0-1.16","50","1","2025-04-11 14:16:38","bb671e3ae32f654b8954ea4c4635f915","","Mozilla/5.0 (Windows NT 10.0; Win64; x64) AppleWebKit/537.36 (KHTML, like Gecko) Chrome/134.0.0.0 Safari/537.36","WebKit","Chrome","134.0.0.0","Windows","10.0","https://hz8g1ckzuq.cognition.run/","en-US,en;q=0.9","hy9p5db2w1e9kxf","for washing machine irstbwas warranty then power cosumtion","[""White""]","No","Female","1956892.5","9936","","","{""product_choice"":""B""}","choice","tcd","repulsion_2","1","microwave ovens","null","null","null","null","null","null","1","100","90","100","30","40","20","Warranty","Cooking power","",""
"","","","","","choice_trial_setup","html-keyboard-response","118","1566596","0.0-5.0-0.17","50","1","2025-04-11 14:16:38","bb671e3ae32f654b8954ea4c4635f915","","Mozilla/5.0 (Windows NT 10.0; Win64; x64) AppleWebKit/537.36 (KHTML, like Gecko) Chrome/134.0.0.0 Safari/537.36","WebKit","Chrome","134.0.0.0","Windows","10.0","https://hz8g1ckzuq.cognition.run/","en-US,en;q=0.9","hy9p5db2w1e9kxf","for washing machine irstbwas warranty then power cosumtion","[""White""]","No","Female","1956892.5","null","","<p></p>","null","choice","dct","attraction_1","2","microwave ovens","null","null","null","null","null","null","2","","","","","","","","","",""
"","","","","","choice_trial","survey-html-form","119","1573501","0.0-5.0-1.17","50","1","2025-04-11 14:16:38","bb671e3ae32f654b8954ea4c4635f915","","Mozilla/5.0 (Windows NT 10.0; Win64; x64) AppleWebKit/537.36 (KHTML, like Gecko) Chrome/134.0.0.0 Safari/537.36","WebKit","Chrome","134.0.0.0","Windows","10.0","https://hz8g1ckzuq.cognition.run/","en-US,en;q=0.9","hy9p5db2w1e9kxf","for washing machine irstbwas warranty then power cosumtion","[""White""]","No","Female","1956892.5","6898","","","{""product_choice"":""B""}","choice","dct","attraction_1","2","microwave ovens","null","null","null","null","null","null","2","50","60","45","60","50","60","Warranty","Cooking power","",""
"","","","","","choice_trial_setup","html-keyboard-response","120","1573806","0.0-5.0-0.18","50","1","2025-04-11 14:16:38","bb671e3ae32f654b8954ea4c4635f915","","Mozilla/5.0 (Windows NT 10.0; Win64; x64) AppleWebKit/537.36 (KHTML, like Gecko) Chrome/134.0.0.0 Safari/537.36","WebKit","Chrome","134.0.0.0","Windows","10.0","https://hz8g1ckzuq.cognition.run/","en-US,en;q=0.9","hy9p5db2w1e9kxf","for washing machine irstbwas warranty then power cosumtion","[""White""]","No","Female","1956892.5","null","","<p></p>","null","choice","tdc","attraction_2","1","washing machines","null","null","null","null","null","null","1","","","","","","","","","",""
"","","","","","choice_trial","survey-html-form","121","1592592","0.0-5.0-1.18","50","1","2025-04-11 14:16:38","bb671e3ae32f654b8954ea4c4635f915","","Mozilla/5.0 (Windows NT 10.0; Win64; x64) AppleWebKit/537.36 (KHTML, like Gecko) Chrome/134.0.0.0 Safari/537.36","WebKit","Chrome","134.0.0.0","Windows","10.0","https://hz8g1ckzuq.cognition.run/","en-US,en;q=0.9","hy9p5db2w1e9kxf","for washing machine irstbwas warranty then power cosumtion","[""White""]","No","Female","1956892.5","18773","","","{""product_choice"":""C""}","choice","tdc","attraction_2","1","washing machines","null","null","null","null","null","null","1","60","50","60","50","60","40","Average lifespan","Energy savings","",""
"","","","","","choice_trial_setup","html-keyboard-response","122","1592906","0.0-5.0-0.19","50","1","2025-04-11 14:16:38","bb671e3ae32f654b8954ea4c4635f915","","Mozilla/5.0 (Windows NT 10.0; Win64; x64) AppleWebKit/537.36 (KHTML, like Gecko) Chrome/134.0.0.0 Safari/537.36","WebKit","Chrome","134.0.0.0","Windows","10.0","https://hz8g1ckzuq.cognition.run/","en-US,en;q=0.9","hy9p5db2w1e9kxf","for washing machine irstbwas warranty then power cosumtion","[""White""]","No","Female","1956892.5","null","","<p></p>","null","choice","ctd","attraction_1","2","televisions","null","null","null","null","null","null","1","","","","","","","","","",""
"","","","","","choice_trial","survey-html-form","123","1597947","0.0-5.0-1.19","50","1","2025-04-11 14:16:38","bb671e3ae32f654b8954ea4c4635f915","","Mozilla/5.0 (Windows NT 10.0; Win64; x64) AppleWebKit/537.36 (KHTML, like Gecko) Chrome/134.0.0.0 Safari/537.36","WebKit","Chrome","134.0.0.0","Windows","10.0","https://hz8g1ckzuq.cognition.run/","en-US,en;q=0.9","hy9p5db2w1e9kxf","for washing machine irstbwas warranty then power cosumtion","[""White""]","No","Female","1956892.5","5029","","","{""product_choice"":""B""}","choice","ctd","attraction_1","2","televisions","null","null","null","null","null","null","1","50","60","45","60","50","60","Screen size","Average lifespan","",""
"","","","","","choice_trial_setup","html-keyboard-response","124","1598256","0.0-5.0-0.20","50","1","2025-04-11 14:16:38","bb671e3ae32f654b8954ea4c4635f915","","Mozilla/5.0 (Windows NT 10.0; Win64; x64) AppleWebKit/537.36 (KHTML, like Gecko) Chrome/134.0.0.0 Safari/537.36","WebKit","Chrome","134.0.0.0","Windows","10.0","https://hz8g1ckzuq.cognition.run/","en-US,en;q=0.9","hy9p5db2w1e9kxf","for washing machine irstbwas warranty then power cosumtion","[""White""]","No","Female","1956892.5","null","","<p></p>","null","choice","ctd","attraction_1","1","laptops","null","null","null","null","null","null","1","","","","","","","","","",""
"","","","","","choice_trial","survey-html-form","125","1618167","0.0-5.0-1.20","50","1","2025-04-11 14:16:38","bb671e3ae32f654b8954ea4c4635f915","","Mozilla/5.0 (Windows NT 10.0; Win64; x64) AppleWebKit/537.36 (KHTML, like Gecko) Chrome/134.0.0.0 Safari/537.36","WebKit","Chrome","134.0.0.0","Windows","10.0","https://hz8g1ckzuq.cognition.run/","en-US,en;q=0.9","hy9p5db2w1e9kxf","for washing machine irstbwas warranty then power cosumtion","[""White""]","No","Female","1956892.5","19903","","","{""product_choice"":""A""}","choice","ctd","attraction_1","1","laptops","null","null","null","null","null","null","1","60","50","60","50","60","45","Processing speed","Memory (RAM)","",""
"","","","","","choice_trial_setup","html-keyboard-response","126","1618475","0.0-5.0-0.21","50","1","2025-04-11 14:16:38","bb671e3ae32f654b8954ea4c4635f915","","Mozilla/5.0 (Windows NT 10.0; Win64; x64) AppleWebKit/537.36 (KHTML, like Gecko) Chrome/134.0.0.0 Safari/537.36","WebKit","Chrome","134.0.0.0","Windows","10.0","https://hz8g1ckzuq.cognition.run/","en-US,en;q=0.9","hy9p5db2w1e9kxf","for washing machine irstbwas warranty then power cosumtion","[""White""]","No","Female","1956892.5","null","","<p></p>","null","choice","bww","catch","null","televisions","75","50","35","35","30","50","1","","","","","","","","","",""
"","","","","","choice_trial","survey-html-form","127","1625177","0.0-5.0-1.21","50","1","2025-04-11 14:16:38","bb671e3ae32f654b8954ea4c4635f915","","Mozilla/5.0 (Windows NT 10.0; Win64; x64) AppleWebKit/537.36 (KHTML, like Gecko) Chrome/134.0.0.0 Safari/537.36","WebKit","Chrome","134.0.0.0","Windows","10.0","https://hz8g1ckzuq.cognition.run/","en-US,en;q=0.9","hy9p5db2w1e9kxf","for washing machine irstbwas warranty then power cosumtion","[""White""]","No","Female","1956892.5","6692","","","{""product_choice"":""A""}","choice","bww","catch","null","televisions","75","50","35","35","30","50","1","null","null","null","null","null","null","Screen size","Average lifespan","",""
"","","","","","choice_trial_setup","html-keyboard-response","128","1625484","0.0-5.0-0.22","50","1","2025-04-11 14:16:38","bb671e3ae32f654b8954ea4c4635f915","","Mozilla/5.0 (Windows NT 10.0; Win64; x64) AppleWebKit/537.36 (KHTML, like Gecko) Chrome/134.0.0.0 Safari/537.36","WebKit","Chrome","134.0.0.0","Windows","10.0","https://hz8g1ckzuq.cognition.run/","en-US,en;q=0.9","hy9p5db2w1e9kxf","for washing machine irstbwas warranty then power cosumtion","[""White""]","No","Female","1956892.5","null","","<p></p>","null","choice","tdc","repulsion_1","2","laptops","null","null","null","null","null","null","2","","","","","","","","","",""
"","","","","","choice_trial","survey-html-form","129","1631183","0.0-5.0-1.22","50","1","2025-04-11 14:16:38","bb671e3ae32f654b8954ea4c4635f915","","Mozilla/5.0 (Windows NT 10.0; Win64; x64) AppleWebKit/537.36 (KHTML, like Gecko) Chrome/134.0.0.0 Safari/537.36","WebKit","Chrome","134.0.0.0","Windows","10.0","https://hz8g1ckzuq.cognition.run/","en-US,en;q=0.9","hy9p5db2w1e9kxf","for washing machine irstbwas warranty then power cosumtion","[""White""]","No","Female","1956892.5","5691","","","{""product_choice"":""C""}","choice","tdc","repulsion_1","2","laptops","null","null","null","null","null","null","2","30","40","25","100","90","100","Processing speed","Memory (RAM)","",""
"","","","","","choice_trial_setup","html-keyboard-response","130","1631498","0.0-5.0-0.23","50","1","2025-04-11 14:16:38","bb671e3ae32f654b8954ea4c4635f915","","Mozilla/5.0 (Windows NT 10.0; Win64; x64) AppleWebKit/537.36 (KHTML, like Gecko) Chrome/134.0.0.0 Safari/537.36","WebKit","Chrome","134.0.0.0","Windows","10.0","https://hz8g1ckzuq.cognition.run/","en-US,en;q=0.9","hy9p5db2w1e9kxf","for washing machine irstbwas warranty then power cosumtion","[""White""]","No","Female","1956892.5","null","","<p></p>","null","choice","wbw","catch","null","laptops","70","55","30","20","40","15","2","","","","","","","","","",""
"","","","","","choice_trial","survey-html-form","131","1637676","0.0-5.0-1.23","50","1","2025-04-11 14:16:38","bb671e3ae32f654b8954ea4c4635f915","","Mozilla/5.0 (Windows NT 10.0; Win64; x64) AppleWebKit/537.36 (KHTML, like Gecko) Chrome/134.0.0.0 Safari/537.36","WebKit","Chrome","134.0.0.0","Windows","10.0","https://hz8g1ckzuq.cognition.run/","en-US,en;q=0.9","hy9p5db2w1e9kxf","for washing machine irstbwas warranty then power cosumtion","[""White""]","No","Female","1956892.5","6170","","","{""product_choice"":""B""}","choice","wbw","catch","null","laptops","70","55","30","20","40","15","2","null","null","null","null","null","null","Processing speed","Memory (RAM)","",""
"","","","","","choice_trial_setup","html-keyboard-response","132","1637991","0.0-5.0-0.24","50","1","2025-04-11 14:16:38","bb671e3ae32f654b8954ea4c4635f915","","Mozilla/5.0 (Windows NT 10.0; Win64; x64) AppleWebKit/537.36 (KHTML, like Gecko) Chrome/134.0.0.0 Safari/537.36","WebKit","Chrome","134.0.0.0","Windows","10.0","https://hz8g1ckzuq.cognition.run/","en-US,en;q=0.9","hy9p5db2w1e9kxf","for washing machine irstbwas warranty then power cosumtion","[""White""]","No","Female","1956892.5","null","","<p></p>","null","choice","cdt","repulsion_2","1","televisions","null","null","null","null","null","null","2","","","","","","","","","",""
"","","","","","choice_trial","survey-html-form","133","1653726","0.0-5.0-1.24","50","1","2025-04-11 14:16:38","bb671e3ae32f654b8954ea4c4635f915","","Mozilla/5.0 (Windows NT 10.0; Win64; x64) AppleWebKit/537.36 (KHTML, like Gecko) Chrome/134.0.0.0 Safari/537.36","WebKit","Chrome","134.0.0.0","Windows","10.0","https://hz8g1ckzuq.cognition.run/","en-US,en;q=0.9","hy9p5db2w1e9kxf","for washing machine irstbwas warranty then power cosumtion","[""White""]","No","Female","1956892.5","15720","","","{""product_choice"":""C""}","choice","cdt","repulsion_2","1","televisions","null","null","null","null","null","null","2","100","90","100","30","40","20","Screen size","Average lifespan","",""
"","","","","","choice_trial_setup","html-keyboard-response","134","1654035","0.0-5.0-0.25","50","1","2025-04-11 14:16:38","bb671e3ae32f654b8954ea4c4635f915","","Mozilla/5.0 (Windows NT 10.0; Win64; x64) AppleWebKit/537.36 (KHTML, like Gecko) Chrome/134.0.0.0 Safari/537.36","WebKit","Chrome","134.0.0.0","Windows","10.0","https://hz8g1ckzuq.cognition.run/","en-US,en;q=0.9","hy9p5db2w1e9kxf","for washing machine irstbwas warranty then power cosumtion","[""White""]","No","Female","1956892.5","null","","<p></p>","null","choice","dct","attraction_2","1","laptops","null","null","null","null","null","null","2","","","","","","","","","",""
"","","","","","choice_trial","survey-html-form","135","1662809","0.0-5.0-1.25","50","1","2025-04-11 14:16:38","bb671e3ae32f654b8954ea4c4635f915","","Mozilla/5.0 (Windows NT 10.0; Win64; x64) AppleWebKit/537.36 (KHTML, like Gecko) Chrome/134.0.0.0 Safari/537.36","WebKit","Chrome","134.0.0.0","Windows","10.0","https://hz8g1ckzuq.cognition.run/","en-US,en;q=0.9","hy9p5db2w1e9kxf","for washing machine irstbwas warranty then power cosumtion","[""White""]","No","Female","1956892.5","8760","","","{""product_choice"":""C""}","choice","dct","attraction_2","1","laptops","null","null","null","null","null","null","2","60","50","60","50","60","40","Processing speed","Memory (RAM)","",""
"","","","","","choice_trial_setup","html-keyboard-response","136","1663127","0.0-5.0-0.26","50","1","2025-04-11 14:16:38","bb671e3ae32f654b8954ea4c4635f915","","Mozilla/5.0 (Windows NT 10.0; Win64; x64) AppleWebKit/537.36 (KHTML, like Gecko) Chrome/134.0.0.0 Safari/537.36","WebKit","Chrome","134.0.0.0","Windows","10.0","https://hz8g1ckzuq.cognition.run/","en-US,en;q=0.9","hy9p5db2w1e9kxf","for washing machine irstbwas warranty then power cosumtion","[""White""]","No","Female","1956892.5","null","","<p></p>","null","choice","ctd","attraction_1","1","televisions","null","null","null","null","null","null","2","","","","","","","","","",""
"","","","","","choice_trial","survey-html-form","137","1669754","0.0-5.0-1.26","50","1","2025-04-11 14:16:38","bb671e3ae32f654b8954ea4c4635f915","","Mozilla/5.0 (Windows NT 10.0; Win64; x64) AppleWebKit/537.36 (KHTML, like Gecko) Chrome/134.0.0.0 Safari/537.36","WebKit","Chrome","134.0.0.0","Windows","10.0","https://hz8g1ckzuq.cognition.run/","en-US,en;q=0.9","hy9p5db2w1e9kxf","for washing machine irstbwas warranty then power cosumtion","[""White""]","No","Female","1956892.5","6612","","","{""product_choice"":""B""}","choice","ctd","attraction_1","1","televisions","null","null","null","null","null","null","2","60","50","60","50","60","45","Screen size","Average lifespan","",""
"","","","","","choice_trial_setup","html-keyboard-response","138","1670070","0.0-5.0-0.27","50","1","2025-04-11 14:16:38","bb671e3ae32f654b8954ea4c4635f915","","Mozilla/5.0 (Windows NT 10.0; Win64; x64) AppleWebKit/537.36 (KHTML, like Gecko) Chrome/134.0.0.0 Safari/537.36","WebKit","Chrome","134.0.0.0","Windows","10.0","https://hz8g1ckzuq.cognition.run/","en-US,en;q=0.9","hy9p5db2w1e9kxf","for washing machine irstbwas warranty then power cosumtion","[""White""]","No","Female","1956892.5","null","","<p></p>","null","choice","wbw","catch","null","laptops","85","50","50","30","45","25","2","","","","","","","","","",""
"","","","","","choice_trial","survey-html-form","139","1673919","0.0-5.0-1.27","50","1","2025-04-11 14:16:38","bb671e3ae32f654b8954ea4c4635f915","","Mozilla/5.0 (Windows NT 10.0; Win64; x64) AppleWebKit/537.36 (KHTML, like Gecko) Chrome/134.0.0.0 Safari/537.36","WebKit","Chrome","134.0.0.0","Windows","10.0","https://hz8g1ckzuq.cognition.run/","en-US,en;q=0.9","hy9p5db2w1e9kxf","for washing machine irstbwas warranty then power cosumtion","[""White""]","No","Female","1956892.5","3837","","","{""product_choice"":""A""}","choice","wbw","catch","null","laptops","85","50","50","30","45","25","2","null","null","null","null","null","null","Processing speed","Memory (RAM)","",""
"","","","","","choice_trial_setup","html-keyboard-response","140","1674235","0.0-5.0-0.28","50","1","2025-04-11 14:16:38","bb671e3ae32f654b8954ea4c4635f915","","Mozilla/5.0 (Windows NT 10.0; Win64; x64) AppleWebKit/537.36 (KHTML, like Gecko) Chrome/134.0.0.0 Safari/537.36","WebKit","Chrome","134.0.0.0","Windows","10.0","https://hz8g1ckzuq.cognition.run/","en-US,en;q=0.9","hy9p5db2w1e9kxf","for washing machine irstbwas warranty then power cosumtion","[""White""]","No","Female","1956892.5","null","","<p></p>","null","choice","tdc","attraction_2","2","televisions","null","null","null","null","null","null","1","","","","","","","","","",""
"","","","","","choice_trial","survey-html-form","141","1681089","0.0-5.0-1.28","50","1","2025-04-11 14:16:38","bb671e3ae32f654b8954ea4c4635f915","","Mozilla/5.0 (Windows NT 10.0; Win64; x64) AppleWebKit/537.36 (KHTML, like Gecko) Chrome/134.0.0.0 Safari/537.36","WebKit","Chrome","134.0.0.0","Windows","10.0","https://hz8g1ckzuq.cognition.run/","en-US,en;q=0.9","hy9p5db2w1e9kxf","for washing machine irstbwas warranty then power cosumtion","[""White""]","No","Female","1956892.5","6839","","","{""product_choice"":""C""}","choice","tdc","attraction_2","2","televisions","null","null","null","null","null","null","1","50","60","40","60","50","60","Screen size","Average lifespan","",""
"","","","","","choice_trial_setup","html-keyboard-response","142","1681397","0.0-5.0-0.29","50","1","2025-04-11 14:16:38","bb671e3ae32f654b8954ea4c4635f915","","Mozilla/5.0 (Windows NT 10.0; Win64; x64) AppleWebKit/537.36 (KHTML, like Gecko) Chrome/134.0.0.0 Safari/537.36","WebKit","Chrome","134.0.0.0","Windows","10.0","https://hz8g1ckzuq.cognition.run/","en-US,en;q=0.9","hy9p5db2w1e9kxf","for washing machine irstbwas warranty then power cosumtion","[""White""]","No","Female","1956892.5","null","","<p></p>","null","choice","dtc","repulsion_2","2","laptops","null","null","null","null","null","null","1","","","","","","","","","",""
"","","","","","choice_trial","survey-html-form","143","1700533","0.0-5.0-1.29","50","1","2025-04-11 14:16:38","bb671e3ae32f654b8954ea4c4635f915","","Mozilla/5.0 (Windows NT 10.0; Win64; x64) AppleWebKit/537.36 (KHTML, like Gecko) Chrome/134.0.0.0 Safari/537.36","WebKit","Chrome","134.0.0.0","Windows","10.0","https://hz8g1ckzuq.cognition.run/","en-US,en;q=0.9","hy9p5db2w1e9kxf","for washing machine irstbwas warranty then power cosumtion","[""White""]","No","Female","1956892.5","19126","","","{""product_choice"":""C""}","choice","dtc","repulsion_2","2","laptops","null","null","null","null","null","null","1","30","40","20","100","90","100","Processing speed","Memory (RAM)","",""
"","","","","","choice_trial_setup","html-keyboard-response","144","1700849","0.0-5.0-0.30","50","1","2025-04-11 14:16:38","bb671e3ae32f654b8954ea4c4635f915","","Mozilla/5.0 (Windows NT 10.0; Win64; x64) AppleWebKit/537.36 (KHTML, like Gecko) Chrome/134.0.0.0 Safari/537.36","WebKit","Chrome","134.0.0.0","Windows","10.0","https://hz8g1ckzuq.cognition.run/","en-US,en;q=0.9","hy9p5db2w1e9kxf","for washing machine irstbwas warranty then power cosumtion","[""White""]","No","Female","1956892.5","null","","<p></p>","null","choice","dct","attraction_2","2","laptops","null","null","null","null","null","null","2","","","","","","","","","",""
"","","","","","choice_trial","survey-html-form","145","1708393","0.0-5.0-1.30","50","1","2025-04-11 14:16:38","bb671e3ae32f654b8954ea4c4635f915","","Mozilla/5.0 (Windows NT 10.0; Win64; x64) AppleWebKit/537.36 (KHTML, like Gecko) Chrome/134.0.0.0 Safari/537.36","WebKit","Chrome","134.0.0.0","Windows","10.0","https://hz8g1ckzuq.cognition.run/","en-US,en;q=0.9","hy9p5db2w1e9kxf","for washing machine irstbwas warranty then power cosumtion","[""White""]","No","Female","1956892.5","7535","","","{""product_choice"":""B""}","choice","dct","attraction_2","2","laptops","null","null","null","null","null","null","2","50","60","40","60","50","60","Processing speed","Memory (RAM)","",""
"","","","","","choice_trial_setup","html-keyboard-response","146","1708709","0.0-5.0-0.31","50","1","2025-04-11 14:16:38","bb671e3ae32f654b8954ea4c4635f915","","Mozilla/5.0 (Windows NT 10.0; Win64; x64) AppleWebKit/537.36 (KHTML, like Gecko) Chrome/134.0.0.0 Safari/537.36","WebKit","Chrome","134.0.0.0","Windows","10.0","https://hz8g1ckzuq.cognition.run/","en-US,en;q=0.9","hy9p5db2w1e9kxf","for washing machine irstbwas warranty then power cosumtion","[""White""]","No","Female","1956892.5","null","","<p></p>","null","choice","cdt","repulsion_1","1","laptops","null","null","null","null","null","null","2","","","","","","","","","",""
