"success","timeout","failed_images","failed_audio","failed_video","screen_id","trial_type","trial_index","time_elapsed","internal_node_id","run_id","condition","recorded_at","source_code_version","ip","user_agent","device","browser","browser_version","platform","platform_version","referer","accept_language","ppt_id","age","race","ethnicity","gender","exp_duration","rt","view_history","stimulus","response","phase","order","effect","t_high","category","d1_best","d2_best","d1_worst1","d2_worst1","d1_worst2","d2_worst2","first_dim","d1_t","d1_c","d1_d","d2_t","d2_c","d2_d","d1_name","d2_name","strategy_response","question_order"
"true","false","[]","[]","[]","img preload","preload","0","4507","0.0-0.0","53","1","2025-04-11 14:19:37","bb671e3ae32f654b8954ea4c4635f915","","Mozilla/5.0 (Windows NT 10.0; WOW64) AppleWebKit/537.36 (KHTML, like Gecko) Chrome/127.0.0.0 Safari/537.36","WebKit","Chrome","127.0.0.0","Windows","10.0","https://hz8g1ckzuq.cognition.run/","en,en-US","3fve1ydw4mezqu8","62","[""Black or African-American""]","No","Male","3304820.899999976","","","","","","","","","","","","","","","","","","","","","","","","","",""
"true","","","","","","fullscreen","1","15337","0.0-1.0","53","1","2025-04-11 14:19:37","bb671e3ae32f654b8954ea4c4635f915","","Mozilla/5.0 (Windows NT 10.0; WOW64) AppleWebKit/537.36 (KHTML, like Gecko) Chrome/127.0.0.0 Safari/537.36","WebKit","Chrome","127.0.0.0","Windows","10.0","https://hz8g1ckzuq.cognition.run/","en,en-US","3fve1ydw4mezqu8","62","[""Black or African-American""]","No","Male","3304820.899999976","9808","","","","","","","","","","","","","","","","","","","","","","","","",""
"","","","","","","instructions","2","427614","0.0-2.0","53","1","2025-04-11 14:19:37","bb671e3ae32f654b8954ea4c4635f915","","Mozilla/5.0 (Windows NT 10.0; WOW64) AppleWebKit/537.36 (KHTML, like Gecko) Chrome/127.0.0.0 Safari/537.36","WebKit","Chrome","127.0.0.0","Windows","10.0","https://hz8g1ckzuq.cognition.run/","en,en-US","3fve1ydw4mezqu8","62","[""Black or African-American""]","No","Male","3304820.899999976","412274","[{""page_index"":0,""viewing_time"":1762},{""page_index"":1,""viewing_time"":2098},{""page_index"":2,""viewing_time"":8380},{""page_index"":3,""viewing_time"":46425},{""page_index"":4,""viewing_time"":18935},{""page_index"":5,""viewing_time"":13062},{""page_index"":6,""viewing_time"":269233},{""page_index"":7,""viewing_time"":32136},{""page_index"":8,""viewing_time"":12245},{""page_index"":9,""viewing_time"":7997}]","","","","","","","","","","","","","","","","","","","","","","","",""
"","","","","","rating_trial_setup","html-keyboard-response","3","427941","0.0-3.0-0.0","53","1","2025-04-11 14:19:37","bb671e3ae32f654b8954ea4c4635f915","","Mozilla/5.0 (Windows NT 10.0; WOW64) AppleWebKit/537.36 (KHTML, like Gecko) Chrome/127.0.0.0 Safari/537.36","WebKit","Chrome","127.0.0.0","Windows","10.0","https://hz8g1ckzuq.cognition.run/","en,en-US","3fve1ydw4mezqu8","62","[""Black or African-American""]","No","Male","3304820.899999976","null","","<p></p>","null","rating","wbw","catch","null","laptops","55","80","25","50","30","20","1","","","","","","","","","",""
"","","","","","rating_trial","survey-html-form","4","504684","0.0-3.0-1.0","53","1","2025-04-11 14:19:37","bb671e3ae32f654b8954ea4c4635f915","","Mozilla/5.0 (Windows NT 10.0; WOW64) AppleWebKit/537.36 (KHTML, like Gecko) Chrome/127.0.0.0 Safari/537.36","WebKit","Chrome","127.0.0.0","Windows","10.0","https://hz8g1ckzuq.cognition.run/","en,en-US","3fve1ydw4mezqu8","62","[""Black or African-American""]","No","Male","3304820.899999976","76736","","","{""price_1"":""500"",""price_2"":""740"",""price_3"":""400""}","rating","wbw","catch","null","laptops","55","80","25","50","30","20","1","null","null","null","null","null","null","Processing speed","Memory (RAM)","",""
"","","","","","rating_trial_setup","html-keyboard-response","5","504990","0.0-3.0-0.1","53","1","2025-04-11 14:19:37","bb671e3ae32f654b8954ea4c4635f915","","Mozilla/5.0 (Windows NT 10.0; WOW64) AppleWebKit/537.36 (KHTML, like Gecko) Chrome/127.0.0.0 Safari/537.36","WebKit","Chrome","127.0.0.0","Windows","10.0","https://hz8g1ckzuq.cognition.run/","en,en-US","3fve1ydw4mezqu8","62","[""Black or African-American""]","No","Male","3304820.899999976","null","","<p></p>","null","rating","cdt","repulsion_1","1","microwave ovens","null","null","null","null","null","null","2","","","","","","","","","",""
"","","","","","rating_trial","survey-html-form","6","546650","0.0-3.0-1.1","53","1","2025-04-11 14:19:37","bb671e3ae32f654b8954ea4c4635f915","","Mozilla/5.0 (Windows NT 10.0; WOW64) AppleWebKit/537.36 (KHTML, like Gecko) Chrome/127.0.0.0 Safari/537.36","WebKit","Chrome","127.0.0.0","Windows","10.0","https://hz8g1ckzuq.cognition.run/","en,en-US","3fve1ydw4mezqu8","62","[""Black or African-American""]","No","Male","3304820.899999976","41655","","","{""price_1"":""680"",""price_2"":""620"",""price_3"":""640""}","rating","cdt","repulsion_1","1","microwave ovens","null","null","null","null","null","null","2","100","90","100","30","40","25","Warranty","Cooking power","",""
"","","","","","rating_trial_setup","html-keyboard-response","7","546968","0.0-3.0-0.2","53","1","2025-04-11 14:19:37","bb671e3ae32f654b8954ea4c4635f915","","Mozilla/5.0 (Windows NT 10.0; WOW64) AppleWebKit/537.36 (KHTML, like Gecko) Chrome/127.0.0.0 Safari/537.36","WebKit","Chrome","127.0.0.0","Windows","10.0","https://hz8g1ckzuq.cognition.run/","en,en-US","3fve1ydw4mezqu8","62","[""Black or African-American""]","No","Male","3304820.899999976","null","","<p></p>","null","rating","dct","attraction_2","2","microwave ovens","null","null","null","null","null","null","2","","","","","","","","","",""
"","","","","","rating_trial","survey-html-form","8","609517","0.0-3.0-1.2","53","1","2025-04-11 14:19:37","bb671e3ae32f654b8954ea4c4635f915","","Mozilla/5.0 (Windows NT 10.0; WOW64) AppleWebKit/537.36 (KHTML, like Gecko) Chrome/127.0.0.0 Safari/537.36","WebKit","Chrome","127.0.0.0","Windows","10.0","https://hz8g1ckzuq.cognition.run/","en,en-US","3fve1ydw4mezqu8","62","[""Black or African-American""]","No","Male","3304820.899999976","62542","","","{""price_1"":""600"",""price_2"":""640"",""price_3"":""650""}","rating","dct","attraction_2","2","microwave ovens","null","null","null","null","null","null","2","50","60","40","60","50","60","Warranty","Cooking power","",""
"","","","","","rating_trial_setup","html-keyboard-response","9","609828","0.0-3.0-0.3","53","1","2025-04-11 14:19:37","bb671e3ae32f654b8954ea4c4635f915","","Mozilla/5.0 (Windows NT 10.0; WOW64) AppleWebKit/537.36 (KHTML, like Gecko) Chrome/127.0.0.0 Safari/537.36","WebKit","Chrome","127.0.0.0","Windows","10.0","https://hz8g1ckzuq.cognition.run/","en,en-US","3fve1ydw4mezqu8","62","[""Black or African-American""]","No","Male","3304820.899999976","null","","<p></p>","null","rating","cdt","repulsion_2","1","televisions","null","null","null","null","null","null","1","","","","","","","","","",""
"","","","","","rating_trial","survey-html-form","10","637561","0.0-3.0-1.3","53","1","2025-04-11 14:19:37","bb671e3ae32f654b8954ea4c4635f915","","Mozilla/5.0 (Windows NT 10.0; WOW64) AppleWebKit/537.36 (KHTML, like Gecko) Chrome/127.0.0.0 Safari/537.36","WebKit","Chrome","127.0.0.0","Windows","10.0","https://hz8g1ckzuq.cognition.run/","en,en-US","3fve1ydw4mezqu8","62","[""Black or African-American""]","No","Male","3304820.899999976","27730","","","{""price_1"":""680"",""price_2"":""660"",""price_3"":""670""}","rating","cdt","repulsion_2","1","televisions","null","null","null","null","null","null","1","100","90","100","30","40","20","Screen size","Average lifespan","",""
"","","","","","rating_trial_setup","html-keyboard-response","11","637872","0.0-3.0-0.4","53","1","2025-04-11 14:19:37","bb671e3ae32f654b8954ea4c4635f915","","Mozilla/5.0 (Windows NT 10.0; WOW64) AppleWebKit/537.36 (KHTML, like Gecko) Chrome/127.0.0.0 Safari/537.36","WebKit","Chrome","127.0.0.0","Windows","10.0","https://hz8g1ckzuq.cognition.run/","en,en-US","3fve1ydw4mezqu8","62","[""Black or African-American""]","No","Male","3304820.899999976","null","","<p></p>","null","rating","dct","attraction_2","1","televisions","null","null","null","null","null","null","2","","","","","","","","","",""
"","","","","","rating_trial","survey-html-form","12","700826","0.0-3.0-1.4","53","1","2025-04-11 14:19:37","bb671e3ae32f654b8954ea4c4635f915","","Mozilla/5.0 (Windows NT 10.0; WOW64) AppleWebKit/537.36 (KHTML, like Gecko) Chrome/127.0.0.0 Safari/537.36","WebKit","Chrome","127.0.0.0","Windows","10.0","https://hz8g1ckzuq.cognition.run/","en,en-US","3fve1ydw4mezqu8","62","[""Black or African-American""]","No","Male","3304820.899999976","62948","","","{""price_1"":""600"",""price_2"":""620"",""price_3"":""630""}","rating","dct","attraction_2","1","televisions","null","null","null","null","null","null","2","60","50","60","50","60","40","Screen size","Average lifespan","",""
"","","","","","rating_trial_setup","html-keyboard-response","13","701140","0.0-3.0-0.5","53","1","2025-04-11 14:19:37","bb671e3ae32f654b8954ea4c4635f915","","Mozilla/5.0 (Windows NT 10.0; WOW64) AppleWebKit/537.36 (KHTML, like Gecko) Chrome/127.0.0.0 Safari/537.36","WebKit","Chrome","127.0.0.0","Windows","10.0","https://hz8g1ckzuq.cognition.run/","en,en-US","3fve1ydw4mezqu8","62","[""Black or African-American""]","No","Male","3304820.899999976","null","","<p></p>","null","rating","dtc","attraction_2","2","laptops","null","null","null","null","null","null","1","","","","","","","","","",""
"","","","","","rating_trial","survey-html-form","14","733041","0.0-3.0-1.5","53","1","2025-04-11 14:19:37","bb671e3ae32f654b8954ea4c4635f915","","Mozilla/5.0 (Windows NT 10.0; WOW64) AppleWebKit/537.36 (KHTML, like Gecko) Chrome/127.0.0.0 Safari/537.36","WebKit","Chrome","127.0.0.0","Windows","10.0","https://hz8g1ckzuq.cognition.run/","en,en-US","3fve1ydw4mezqu8","62","[""Black or African-American""]","No","Male","3304820.899999976","31897","","","{""price_1"":""640"",""price_2"":""660"",""price_3"":""670""}","rating","dtc","attraction_2","2","laptops","null","null","null","null","null","null","1","50","60","40","60","50","60","Processing speed","Memory (RAM)","",""
"","","","","","rating_trial_setup","html-keyboard-response","15","733359","0.0-3.0-0.6","53","1","2025-04-11 14:19:37","bb671e3ae32f654b8954ea4c4635f915","","Mozilla/5.0 (Windows NT 10.0; WOW64) AppleWebKit/537.36 (KHTML, like Gecko) Chrome/127.0.0.0 Safari/537.36","WebKit","Chrome","127.0.0.0","Windows","10.0","https://hz8g1ckzuq.cognition.run/","en,en-US","3fve1ydw4mezqu8","62","[""Black or African-American""]","No","Male","3304820.899999976","null","","<p></p>","null","rating","cdt","repulsion_1","2","laptops","null","null","null","null","null","null","1","","","","","","","","","",""
"","","","","","rating_trial","survey-html-form","16","760370","0.0-3.0-1.6","53","1","2025-04-11 14:19:37","bb671e3ae32f654b8954ea4c4635f915","","Mozilla/5.0 (Windows NT 10.0; WOW64) AppleWebKit/537.36 (KHTML, like Gecko) Chrome/127.0.0.0 Safari/537.36","WebKit","Chrome","127.0.0.0","Windows","10.0","https://hz8g1ckzuq.cognition.run/","en,en-US","3fve1ydw4mezqu8","62","[""Black or African-American""]","No","Male","3304820.899999976","27007","","","{""price_1"":""740"",""price_2"":""660"",""price_3"":""680""}","rating","cdt","repulsion_1","2","laptops","null","null","null","null","null","null","1","30","40","25","100","90","100","Processing speed","Memory (RAM)","",""
"","","","","","rating_trial_setup","html-keyboard-response","17","760689","0.0-3.0-0.7","53","1","2025-04-11 14:19:37","bb671e3ae32f654b8954ea4c4635f915","","Mozilla/5.0 (Windows NT 10.0; WOW64) AppleWebKit/537.36 (KHTML, like Gecko) Chrome/127.0.0.0 Safari/537.36","WebKit","Chrome","127.0.0.0","Windows","10.0","https://hz8g1ckzuq.cognition.run/","en,en-US","3fve1ydw4mezqu8","62","[""Black or African-American""]","No","Male","3304820.899999976","null","","<p></p>","null","rating","dtc","repulsion_1","1","washing machines","null","null","null","null","null","null","2","","","","","","","","","",""
"","","","","","rating_trial","survey-html-form","18","824959","0.0-3.0-1.7","53","1","2025-04-11 14:19:37","bb671e3ae32f654b8954ea4c4635f915","","Mozilla/5.0 (Windows NT 10.0; WOW64) AppleWebKit/537.36 (KHTML, like Gecko) Chrome/127.0.0.0 Safari/537.36","WebKit","Chrome","127.0.0.0","Windows","10.0","https://hz8g1ckzuq.cognition.run/","en,en-US","3fve1ydw4mezqu8","62","[""Black or African-American""]","No","Male","3304820.899999976","64263","","","{""price_1"":""650"",""price_2"":""660"",""price_3"":""680""}","rating","dtc","repulsion_1","1","washing machines","null","null","null","null","null","null","2","100","90","100","30","40","25","Average lifespan","Energy savings","",""
"","","","","","rating_trial_setup","html-keyboard-response","19","825271","0.0-3.0-0.8","53","1","2025-04-11 14:19:37","bb671e3ae32f654b8954ea4c4635f915","","Mozilla/5.0 (Windows NT 10.0; WOW64) AppleWebKit/537.36 (KHTML, like Gecko) Chrome/127.0.0.0 Safari/537.36","WebKit","Chrome","127.0.0.0","Windows","10.0","https://hz8g1ckzuq.cognition.run/","en,en-US","3fve1ydw4mezqu8","62","[""Black or African-American""]","No","Male","3304820.899999976","null","","<p></p>","null","rating","ctd","attraction_1","2","televisions","null","null","null","null","null","null","2","","","","","","","","","",""
"","","","","","rating_trial","survey-html-form","20","854208","0.0-3.0-1.8","53","1","2025-04-11 14:19:37","bb671e3ae32f654b8954ea4c4635f915","","Mozilla/5.0 (Windows NT 10.0; WOW64) AppleWebKit/537.36 (KHTML, like Gecko) Chrome/127.0.0.0 Safari/537.36","WebKit","Chrome","127.0.0.0","Windows","10.0","https://hz8g1ckzuq.cognition.run/","en,en-US","3fve1ydw4mezqu8","62","[""Black or African-American""]","No","Male","3304820.899999976","28931","","","{""price_1"":""630"",""price_2"":""630"",""price_3"":""615""}","rating","ctd","attraction_1","2","televisions","null","null","null","null","null","null","2","50","60","45","60","50","60","Screen size","Average lifespan","",""
"","","","","","rating_trial_setup","html-keyboard-response","21","854522","0.0-3.0-0.9","53","1","2025-04-11 14:19:37","bb671e3ae32f654b8954ea4c4635f915","","Mozilla/5.0 (Windows NT 10.0; WOW64) AppleWebKit/537.36 (KHTML, like Gecko) Chrome/127.0.0.0 Safari/537.36","WebKit","Chrome","127.0.0.0","Windows","10.0","https://hz8g1ckzuq.cognition.run/","en,en-US","3fve1ydw4mezqu8","62","[""Black or African-American""]","No","Male","3304820.899999976","null","","<p></p>","null","rating","dct","repulsion_1","1","laptops","null","null","null","null","null","null","2","","","","","","","","","",""
"","","","","","rating_trial","survey-html-form","22","880136","0.0-3.0-1.9","53","1","2025-04-11 14:19:37","bb671e3ae32f654b8954ea4c4635f915","","Mozilla/5.0 (Windows NT 10.0; WOW64) AppleWebKit/537.36 (KHTML, like Gecko) Chrome/127.0.0.0 Safari/537.36","WebKit","Chrome","127.0.0.0","Windows","10.0","https://hz8g1ckzuq.cognition.run/","en,en-US","3fve1ydw4mezqu8","62","[""Black or African-American""]","No","Male","3304820.899999976","25609","","","{""price_1"":""700"",""price_2"":""730"",""price_3"":""710""}","rating","dct","repulsion_1","1","laptops","null","null","null","null","null","null","2","100","90","100","30","40","25","Processing speed","Memory (RAM)","",""
"","","","","","rating_trial_setup","html-keyboard-response","23","880455","0.0-3.0-0.10","53","1","2025-04-11 14:19:37","bb671e3ae32f654b8954ea4c4635f915","","Mozilla/5.0 (Windows NT 10.0; WOW64) AppleWebKit/537.36 (KHTML, like Gecko) Chrome/127.0.0.0 Safari/537.36","WebKit","Chrome","127.0.0.0","Windows","10.0","https://hz8g1ckzuq.cognition.run/","en,en-US","3fve1ydw4mezqu8","62","[""Black or African-American""]","No","Male","3304820.899999976","null","","<p></p>","null","rating","cdt","attraction_1","2","microwave ovens","null","null","null","null","null","null","2","","","","","","","","","",""
"","","","","","rating_trial","survey-html-form","24","901044","0.0-3.0-1.10","53","1","2025-04-11 14:19:37","bb671e3ae32f654b8954ea4c4635f915","","Mozilla/5.0 (Windows NT 10.0; WOW64) AppleWebKit/537.36 (KHTML, like Gecko) Chrome/127.0.0.0 Safari/537.36","WebKit","Chrome","127.0.0.0","Windows","10.0","https://hz8g1ckzuq.cognition.run/","en,en-US","3fve1ydw4mezqu8","62","[""Black or African-American""]","No","Male","3304820.899999976","20582","","","{""price_1"":""640"",""price_2"":""630"",""price_3"":""635""}","rating","cdt","attraction_1","2","microwave ovens","null","null","null","null","null","null","2","50","60","45","60","50","60","Warranty","Cooking power","",""
"","","","","","rating_trial_setup","html-keyboard-response","25","901356","0.0-3.0-0.11","53","1","2025-04-11 14:19:37","bb671e3ae32f654b8954ea4c4635f915","","Mozilla/5.0 (Windows NT 10.0; WOW64) AppleWebKit/537.36 (KHTML, like Gecko) Chrome/127.0.0.0 Safari/537.36","WebKit","Chrome","127.0.0.0","Windows","10.0","https://hz8g1ckzuq.cognition.run/","en,en-US","3fve1ydw4mezqu8","62","[""Black or African-American""]","No","Male","3304820.899999976","null","","<p></p>","null","rating","bww","catch","null","washing machines","95","70","10","35","35","10","2","","","","","","","","","",""
"","","","","","rating_trial","survey-html-form","26","929699","0.0-3.0-1.11","53","1","2025-04-11 14:19:37","bb671e3ae32f654b8954ea4c4635f915","","Mozilla/5.0 (Windows NT 10.0; WOW64) AppleWebKit/537.36 (KHTML, like Gecko) Chrome/127.0.0.0 Safari/537.36","WebKit","Chrome","127.0.0.0","Windows","10.0","https://hz8g1ckzuq.cognition.run/","en,en-US","3fve1ydw4mezqu8","62","[""Black or African-American""]","No","Male","3304820.899999976","28341","","","{""price_1"":""850"",""price_2"":""450"",""price_3"":""400""}","rating","bww","catch","null","washing machines","95","70","10","35","35","10","2","null","null","null","null","null","null","Average lifespan","Energy savings","",""
"","","","","","rating_trial_setup","html-keyboard-response","27","930018","0.0-3.0-0.12","53","1","2025-04-11 14:19:37","bb671e3ae32f654b8954ea4c4635f915","","Mozilla/5.0 (Windows NT 10.0; WOW64) AppleWebKit/537.36 (KHTML, like Gecko) Chrome/127.0.0.0 Safari/537.36","WebKit","Chrome","127.0.0.0","Windows","10.0","https://hz8g1ckzuq.cognition.run/","en,en-US","3fve1ydw4mezqu8","62","[""Black or African-American""]","No","Male","3304820.899999976","null","","<p></p>","null","rating","wwb","catch","null","microwave ovens","65","90","10","10","35","50","1","","","","","","","","","",""
"","","","","","rating_trial","survey-html-form","28","951140","0.0-3.0-1.12","53","1","2025-04-11 14:19:37","bb671e3ae32f654b8954ea4c4635f915","","Mozilla/5.0 (Windows NT 10.0; WOW64) AppleWebKit/537.36 (KHTML, like Gecko) Chrome/127.0.0.0 Safari/537.36","WebKit","Chrome","127.0.0.0","Windows","10.0","https://hz8g1ckzuq.cognition.run/","en,en-US","3fve1ydw4mezqu8","62","[""Black or African-American""]","No","Male","3304820.899999976","21115","","","{""price_1"":""300"",""price_2"":""520"",""price_3"":""780""}","rating","wwb","catch","null","microwave ovens","65","90","10","10","35","50","1","null","null","null","null","null","null","Warranty","Cooking power","",""
"","","","","","rating_trial_setup","html-keyboard-response","29","951459","0.0-3.0-0.13","53","1","2025-04-11 14:19:37","bb671e3ae32f654b8954ea4c4635f915","","Mozilla/5.0 (Windows NT 10.0; WOW64) AppleWebKit/537.36 (KHTML, like Gecko) Chrome/127.0.0.0 Safari/537.36","WebKit","Chrome","127.0.0.0","Windows","10.0","https://hz8g1ckzuq.cognition.run/","en,en-US","3fve1ydw4mezqu8","62","[""Black or African-American""]","No","Male","3304820.899999976","null","","<p></p>","null","rating","tdc","repulsion_1","1","televisions","null","null","null","null","null","null","1","","","","","","","","","",""
"","","","","","rating_trial","survey-html-form","30","974887","0.0-3.0-1.13","53","1","2025-04-11 14:19:37","bb671e3ae32f654b8954ea4c4635f915","","Mozilla/5.0 (Windows NT 10.0; WOW64) AppleWebKit/537.36 (KHTML, like Gecko) Chrome/127.0.0.0 Safari/537.36","WebKit","Chrome","127.0.0.0","Windows","10.0","https://hz8g1ckzuq.cognition.run/","en,en-US","3fve1ydw4mezqu8","62","[""Black or African-American""]","No","Male","3304820.899999976","23421","","","{""price_1"":""670"",""price_2"":""660"",""price_3"":""680""}","rating","tdc","repulsion_1","1","televisions","null","null","null","null","null","null","1","100","90","100","30","40","25","Screen size","Average lifespan","",""
"","","","","","rating_trial_setup","html-keyboard-response","31","975194","0.0-3.0-0.14","53","1","2025-04-11 14:19:37","bb671e3ae32f654b8954ea4c4635f915","","Mozilla/5.0 (Windows NT 10.0; WOW64) AppleWebKit/537.36 (KHTML, like Gecko) Chrome/127.0.0.0 Safari/537.36","WebKit","Chrome","127.0.0.0","Windows","10.0","https://hz8g1ckzuq.cognition.run/","en,en-US","3fve1ydw4mezqu8","62","[""Black or African-American""]","No","Male","3304820.899999976","null","","<p></p>","null","rating","dct","repulsion_1","2","microwave ovens","null","null","null","null","null","null","2","","","","","","","","","",""
"","","","","","rating_trial","survey-html-form","32","997455","0.0-3.0-1.14","53","1","2025-04-11 14:19:37","bb671e3ae32f654b8954ea4c4635f915","","Mozilla/5.0 (Windows NT 10.0; WOW64) AppleWebKit/537.36 (KHTML, like Gecko) Chrome/127.0.0.0 Safari/537.36","WebKit","Chrome","127.0.0.0","Windows","10.0","https://hz8g1ckzuq.cognition.run/","en,en-US","3fve1ydw4mezqu8","62","[""Black or African-American""]","No","Male","3304820.899999976","22252","","","{""price_1"":""680"",""price_2"":""670"",""price_3"":""675""}","rating","dct","repulsion_1","2","microwave ovens","null","null","null","null","null","null","2","30","40","25","100","90","100","Warranty","Cooking power","",""
"","","","","","rating_trial_setup","html-keyboard-response","33","997772","0.0-3.0-0.15","53","1","2025-04-11 14:19:37","bb671e3ae32f654b8954ea4c4635f915","","Mozilla/5.0 (Windows NT 10.0; WOW64) AppleWebKit/537.36 (KHTML, like Gecko) Chrome/127.0.0.0 Safari/537.36","WebKit","Chrome","127.0.0.0","Windows","10.0","https://hz8g1ckzuq.cognition.run/","en,en-US","3fve1ydw4mezqu8","62","[""Black or African-American""]","No","Male","3304820.899999976","null","","<p></p>","null","rating","tcd","attraction_1","2","washing machines","null","null","null","null","null","null","2","","","","","","","","","",""
"","","","","","rating_trial","survey-html-form","34","2107722","0.0-3.0-1.15","53","1","2025-04-11 14:19:37","bb671e3ae32f654b8954ea4c4635f915","","Mozilla/5.0 (Windows NT 10.0; WOW64) AppleWebKit/537.36 (KHTML, like Gecko) Chrome/127.0.0.0 Safari/537.36","WebKit","Chrome","127.0.0.0","Windows","10.0","https://hz8g1ckzuq.cognition.run/","en,en-US","3fve1ydw4mezqu8","62","[""Black or African-American""]","No","Male","3304820.899999976","1109941","","","{""price_1"":""680"",""price_2"":""680"",""price_3"":""670""}","rating","tcd","attraction_1","2","washing machines","null","null","null","null","null","null","2","50","60","45","60","50","60","Average lifespan","Energy savings","",""
"","","","","","rating_trial_setup","html-keyboard-response","35","2108045","0.0-3.0-0.16","53","1","2025-04-11 14:19:37","bb671e3ae32f654b8954ea4c4635f915","","Mozilla/5.0 (Windows NT 10.0; WOW64) AppleWebKit/537.36 (KHTML, like Gecko) Chrome/127.0.0.0 Safari/537.36","WebKit","Chrome","127.0.0.0","Windows","10.0","https://hz8g1ckzuq.cognition.run/","en,en-US","3fve1ydw4mezqu8","62","[""Black or African-American""]","No","Male","3304820.899999976","null","","<p></p>","null","rating","bww","catch","null","microwave ovens","95","80","15","25","45","5","1","","","","","","","","","",""
"","","","","","rating_trial","survey-html-form","36","2134545","0.0-3.0-1.16","53","1","2025-04-11 14:19:37","bb671e3ae32f654b8954ea4c4635f915","","Mozilla/5.0 (Windows NT 10.0; WOW64) AppleWebKit/537.36 (KHTML, like Gecko) Chrome/127.0.0.0 Safari/537.36","WebKit","Chrome","127.0.0.0","Windows","10.0","https://hz8g1ckzuq.cognition.run/","en,en-US","3fve1ydw4mezqu8","62","[""Black or African-American""]","No","Male","3304820.899999976","26490","","","{""price_1"":""820"",""price_2"":""400"",""price_3"":""360""}","rating","bww","catch","null","microwave ovens","95","80","15","25","45","5","1","null","null","null","null","null","null","Warranty","Cooking power","",""
"","","","","","rating_trial_setup","html-keyboard-response","37","2134868","0.0-3.0-0.17","53","1","2025-04-11 14:19:37","bb671e3ae32f654b8954ea4c4635f915","","Mozilla/5.0 (Windows NT 10.0; WOW64) AppleWebKit/537.36 (KHTML, like Gecko) Chrome/127.0.0.0 Safari/537.36","WebKit","Chrome","127.0.0.0","Windows","10.0","https://hz8g1ckzuq.cognition.run/","en,en-US","3fve1ydw4mezqu8","62","[""Black or African-American""]","No","Male","3304820.899999976","null","","<p></p>","null","rating","dct","attraction_1","1","microwave ovens","null","null","null","null","null","null","2","","","","","","","","","",""
"","","","","","rating_trial","survey-html-form","38","2158269","0.0-3.0-1.17","53","1","2025-04-11 14:19:37","bb671e3ae32f654b8954ea4c4635f915","","Mozilla/5.0 (Windows NT 10.0; WOW64) AppleWebKit/537.36 (KHTML, like Gecko) Chrome/127.0.0.0 Safari/537.36","WebKit","Chrome","127.0.0.0","Windows","10.0","https://hz8g1ckzuq.cognition.run/","en,en-US","3fve1ydw4mezqu8","62","[""Black or African-American""]","No","Male","3304820.899999976","23393","","","{""price_1"":""630"",""price_2"":""650"",""price_3"":""640""}","rating","dct","attraction_1","1","microwave ovens","null","null","null","null","null","null","2","60","50","60","50","60","45","Warranty","Cooking power","",""
"","","","","","rating_trial_setup","html-keyboard-response","39","2158590","0.0-3.0-0.18","53","1","2025-04-11 14:19:37","bb671e3ae32f654b8954ea4c4635f915","","Mozilla/5.0 (Windows NT 10.0; WOW64) AppleWebKit/537.36 (KHTML, like Gecko) Chrome/127.0.0.0 Safari/537.36","WebKit","Chrome","127.0.0.0","Windows","10.0","https://hz8g1ckzuq.cognition.run/","en,en-US","3fve1ydw4mezqu8","62","[""Black or African-American""]","No","Male","3304820.899999976","null","","<p></p>","null","rating","dtc","repulsion_2","2","televisions","null","null","null","null","null","null","1","","","","","","","","","",""
"","","","","","rating_trial","survey-html-form","40","2186397","0.0-3.0-1.18","53","1","2025-04-11 14:19:37","bb671e3ae32f654b8954ea4c4635f915","","Mozilla/5.0 (Windows NT 10.0; WOW64) AppleWebKit/537.36 (KHTML, like Gecko) Chrome/127.0.0.0 Safari/537.36","WebKit","Chrome","127.0.0.0","Windows","10.0","https://hz8g1ckzuq.cognition.run/","en,en-US","3fve1ydw4mezqu8","62","[""Black or African-American""]","No","Male","3304820.899999976","27799","","","{""price_1"":""600"",""price_2"":""620"",""price_3"":""640""}","rating","dtc","repulsion_2","2","televisions","null","null","null","null","null","null","1","30","40","20","100","90","100","Screen size","Average lifespan","",""
"","","","","","rating_trial_setup","html-keyboard-response","41","2186721","0.0-3.0-0.19","53","1","2025-04-11 14:19:37","bb671e3ae32f654b8954ea4c4635f915","","Mozilla/5.0 (Windows NT 10.0; WOW64) AppleWebKit/537.36 (KHTML, like Gecko) Chrome/127.0.0.0 Safari/537.36","WebKit","Chrome","127.0.0.0","Windows","10.0","https://hz8g1ckzuq.cognition.run/","en,en-US","3fve1ydw4mezqu8","62","[""Black or African-American""]","No","Male","3304820.899999976","null","","<p></p>","null","rating","cdt","repulsion_2","2","microwave ovens","null","null","null","null","null","null","1","","","","","","","","","",""
"","","","","","rating_trial","survey-html-form","42","2213751","0.0-3.0-1.19","53","1","2025-04-11 14:19:37","bb671e3ae32f654b8954ea4c4635f915","","Mozilla/5.0 (Windows NT 10.0; WOW64) AppleWebKit/537.36 (KHTML, like Gecko) Chrome/127.0.0.0 Safari/537.36","WebKit","Chrome","127.0.0.0","Windows","10.0","https://hz8g1ckzuq.cognition.run/","en,en-US","3fve1ydw4mezqu8","62","[""Black or African-American""]","No","Male","3304820.899999976","27023","","","{""price_1"":""680"",""price_2"":""660"",""price_3"":""670""}","rating","cdt","repulsion_2","2","microwave ovens","null","null","null","null","null","null","1","30","40","20","100","90","100","Warranty","Cooking power","",""
"","","","","","rating_trial_setup","html-keyboard-response","43","2214066","0.0-3.0-0.20","53","1","2025-04-11 14:19:37","bb671e3ae32f654b8954ea4c4635f915","","Mozilla/5.0 (Windows NT 10.0; WOW64) AppleWebKit/537.36 (KHTML, like Gecko) Chrome/127.0.0.0 Safari/537.36","WebKit","Chrome","127.0.0.0","Windows","10.0","https://hz8g1ckzuq.cognition.run/","en,en-US","3fve1ydw4mezqu8","62","[""Black or African-American""]","No","Male","3304820.899999976","null","","<p></p>","null","rating","bww","catch","null","laptops","80","90","45","40","45","50","1","","","","","","","","","",""
"","","","","","rating_trial","survey-html-form","44","2238909","0.0-3.0-1.20","53","1","2025-04-11 14:19:37","bb671e3ae32f654b8954ea4c4635f915","","Mozilla/5.0 (Windows NT 10.0; WOW64) AppleWebKit/537.36 (KHTML, like Gecko) Chrome/127.0.0.0 Safari/537.36","WebKit","Chrome","127.0.0.0","Windows","10.0","https://hz8g1ckzuq.cognition.run/","en,en-US","3fve1ydw4mezqu8","62","[""Black or African-American""]","No","Male","3304820.899999976","24836","","","{""price_1"":""880"",""price_2"":""600"",""price_3"":""620""}","rating","bww","catch","null","laptops","80","90","45","40","45","50","1","null","null","null","null","null","null","Processing speed","Memory (RAM)","",""
"","","","","","rating_trial_setup","html-keyboard-response","45","2239219","0.0-3.0-0.21","53","1","2025-04-11 14:19:37","bb671e3ae32f654b8954ea4c4635f915","","Mozilla/5.0 (Windows NT 10.0; WOW64) AppleWebKit/537.36 (KHTML, like Gecko) Chrome/127.0.0.0 Safari/537.36","WebKit","Chrome","127.0.0.0","Windows","10.0","https://hz8g1ckzuq.cognition.run/","en,en-US","3fve1ydw4mezqu8","62","[""Black or African-American""]","No","Male","3304820.899999976","null","","<p></p>","null","rating","ctd","attraction_1","1","laptops","null","null","null","null","null","null","1","","","","","","","","","",""
"","","","","","rating_trial","survey-html-form","46","2291613","0.0-3.0-1.21","53","1","2025-04-11 14:19:37","bb671e3ae32f654b8954ea4c4635f915","","Mozilla/5.0 (Windows NT 10.0; WOW64) AppleWebKit/537.36 (KHTML, like Gecko) Chrome/127.0.0.0 Safari/537.36","WebKit","Chrome","127.0.0.0","Windows","10.0","https://hz8g1ckzuq.cognition.run/","en,en-US","3fve1ydw4mezqu8","62","[""Black or African-American""]","No","Male","3304820.899999976","52385","","","{""price_1"":""660"",""price_2"":""670"",""price_3"":""660""}","rating","ctd","attraction_1","1","laptops","null","null","null","null","null","null","1","60","50","60","50","60","45","Processing speed","Memory (RAM)","",""
"","","","","","rating_trial_setup","html-keyboard-response","47","2291921","0.0-3.0-0.22","53","1","2025-04-11 14:19:37","bb671e3ae32f654b8954ea4c4635f915","","Mozilla/5.0 (Windows NT 10.0; WOW64) AppleWebKit/537.36 (KHTML, like Gecko) Chrome/127.0.0.0 Safari/537.36","WebKit","Chrome","127.0.0.0","Windows","10.0","https://hz8g1ckzuq.cognition.run/","en,en-US","3fve1ydw4mezqu8","62","[""Black or African-American""]","No","Male","3304820.899999976","null","","<p></p>","null","rating","cdt","attraction_2","1","washing machines","null","null","null","null","null","null","1","","","","","","","","","",""
"","","","","","rating_trial","survey-html-form","48","2332495","0.0-3.0-1.22","53","1","2025-04-11 14:19:37","bb671e3ae32f654b8954ea4c4635f915","","Mozilla/5.0 (Windows NT 10.0; WOW64) AppleWebKit/537.36 (KHTML, like Gecko) Chrome/127.0.0.0 Safari/537.36","WebKit","Chrome","127.0.0.0","Windows","10.0","https://hz8g1ckzuq.cognition.run/","en,en-US","3fve1ydw4mezqu8","62","[""Black or African-American""]","No","Male","3304820.899999976","40572","","","{""price_1"":""680"",""price_2"":""660"",""price_3"":""670""}","rating","cdt","attraction_2","1","washing machines","null","null","null","null","null","null","1","60","50","60","50","60","40","Average lifespan","Energy savings","",""
"","","","","","rating_trial_setup","html-keyboard-response","49","2332812","0.0-3.0-0.23","53","1","2025-04-11 14:19:37","bb671e3ae32f654b8954ea4c4635f915","","Mozilla/5.0 (Windows NT 10.0; WOW64) AppleWebKit/537.36 (KHTML, like Gecko) Chrome/127.0.0.0 Safari/537.36","WebKit","Chrome","127.0.0.0","Windows","10.0","https://hz8g1ckzuq.cognition.run/","en,en-US","3fve1ydw4mezqu8","62","[""Black or African-American""]","No","Male","3304820.899999976","null","","<p></p>","null","rating","tdc","repulsion_1","2","televisions","null","null","null","null","null","null","2","","","","","","","","","",""
"","","","","","rating_trial","survey-html-form","50","2350917","0.0-3.0-1.23","53","1","2025-04-11 14:19:37","bb671e3ae32f654b8954ea4c4635f915","","Mozilla/5.0 (Windows NT 10.0; WOW64) AppleWebKit/537.36 (KHTML, like Gecko) Chrome/127.0.0.0 Safari/537.36","WebKit","Chrome","127.0.0.0","Windows","10.0","https://hz8g1ckzuq.cognition.run/","en,en-US","3fve1ydw4mezqu8","62","[""Black or African-American""]","No","Male","3304820.899999976","18095","","","{""price_1"":""670"",""price_2"":""660"",""price_3"":""680""}","rating","tdc","repulsion_1","2","televisions","null","null","null","null","null","null","2","30","40","25","100","90","100","Screen size","Average lifespan","",""
"","","","","","rating_trial_setup","html-keyboard-response","51","2351231","0.0-3.0-0.24","53","1","2025-04-11 14:19:37","bb671e3ae32f654b8954ea4c4635f915","","Mozilla/5.0 (Windows NT 10.0; WOW64) AppleWebKit/537.36 (KHTML, like Gecko) Chrome/127.0.0.0 Safari/537.36","WebKit","Chrome","127.0.0.0","Windows","10.0","https://hz8g1ckzuq.cognition.run/","en,en-US","3fve1ydw4mezqu8","62","[""Black or African-American""]","No","Male","3304820.899999976","null","","<p></p>","null","rating","tcd","repulsion_1","2","washing machines","null","null","null","null","null","null","1","","","","","","","","","",""
"","","","","","rating_trial","survey-html-form","52","2372597","0.0-3.0-1.24","53","1","2025-04-11 14:19:37","bb671e3ae32f654b8954ea4c4635f915","","Mozilla/5.0 (Windows NT 10.0; WOW64) AppleWebKit/537.36 (KHTML, like Gecko) Chrome/127.0.0.0 Safari/537.36","WebKit","Chrome","127.0.0.0","Windows","10.0","https://hz8g1ckzuq.cognition.run/","en,en-US","3fve1ydw4mezqu8","62","[""Black or African-American""]","No","Male","3304820.899999976","21356","","","{""price_1"":""680"",""price_2"":""690"",""price_3"":""670""}","rating","tcd","repulsion_1","2","washing machines","null","null","null","null","null","null","1","30","40","25","100","90","100","Average lifespan","Energy savings","",""
"","","","","","rating_trial_setup","html-keyboard-response","53","2372918","0.0-3.0-0.25","53","1","2025-04-11 14:19:37","bb671e3ae32f654b8954ea4c4635f915","","Mozilla/5.0 (Windows NT 10.0; WOW64) AppleWebKit/537.36 (KHTML, like Gecko) Chrome/127.0.0.0 Safari/537.36","WebKit","Chrome","127.0.0.0","Windows","10.0","https://hz8g1ckzuq.cognition.run/","en,en-US","3fve1ydw4mezqu8","62","[""Black or African-American""]","No","Male","3304820.899999976","null","","<p></p>","null","rating","tdc","attraction_2","1","laptops","null","null","null","null","null","null","1","","","","","","","","","",""
"","","","","","rating_trial","survey-html-form","54","2400287","0.0-3.0-1.25","53","1","2025-04-11 14:19:37","bb671e3ae32f654b8954ea4c4635f915","","Mozilla/5.0 (Windows NT 10.0; WOW64) AppleWebKit/537.36 (KHTML, like Gecko) Chrome/127.0.0.0 Safari/537.36","WebKit","Chrome","127.0.0.0","Windows","10.0","https://hz8g1ckzuq.cognition.run/","en,en-US","3fve1ydw4mezqu8","62","[""Black or African-American""]","No","Male","3304820.899999976","27355","","","{""price_1"":""0670"",""price_2"":""660"",""price_3"":""660""}","rating","tdc","attraction_2","1","laptops","null","null","null","null","null","null","1","60","50","60","50","60","40","Processing speed","Memory (RAM)","",""
"","","","","","rating_trial_setup","html-keyboard-response","55","2400597","0.0-3.0-0.26","53","1","2025-04-11 14:19:37","bb671e3ae32f654b8954ea4c4635f915","","Mozilla/5.0 (Windows NT 10.0; WOW64) AppleWebKit/537.36 (KHTML, like Gecko) Chrome/127.0.0.0 Safari/537.36","WebKit","Chrome","127.0.0.0","Windows","10.0","https://hz8g1ckzuq.cognition.run/","en,en-US","3fve1ydw4mezqu8","62","[""Black or African-American""]","No","Male","3304820.899999976","null","","<p></p>","null","rating","cdt","repulsion_2","2","washing machines","null","null","null","null","null","null","2","","","","","","","","","",""
"","","","","","rating_trial","survey-html-form","56","2468874","0.0-3.0-1.26","53","1","2025-04-11 14:19:37","bb671e3ae32f654b8954ea4c4635f915","","Mozilla/5.0 (Windows NT 10.0; WOW64) AppleWebKit/537.36 (KHTML, like Gecko) Chrome/127.0.0.0 Safari/537.36","WebKit","Chrome","127.0.0.0","Windows","10.0","https://hz8g1ckzuq.cognition.run/","en,en-US","3fve1ydw4mezqu8","62","[""Black or African-American""]","No","Male","3304820.899999976","68273","","","{""price_1"":""700"",""price_2"":""680"",""price_3"":""690""}","rating","cdt","repulsion_2","2","washing machines","null","null","null","null","null","null","2","30","40","20","100","90","100","Average lifespan","Energy savings","",""
"","","","","","rating_trial_setup","html-keyboard-response","57","2469192","0.0-3.0-0.27","53","1","2025-04-11 14:19:37","bb671e3ae32f654b8954ea4c4635f915","","Mozilla/5.0 (Windows NT 10.0; WOW64) AppleWebKit/537.36 (KHTML, like Gecko) Chrome/127.0.0.0 Safari/537.36","WebKit","Chrome","127.0.0.0","Windows","10.0","https://hz8g1ckzuq.cognition.run/","en,en-US","3fve1ydw4mezqu8","62","[""Black or African-American""]","No","Male","3304820.899999976","null","","<p></p>","null","rating","ctd","attraction_1","2","laptops","null","null","null","null","null","null","1","","","","","","","","","",""
"","","","","","rating_trial","survey-html-form","58","2495446","0.0-3.0-1.27","53","1","2025-04-11 14:19:37","bb671e3ae32f654b8954ea4c4635f915","","Mozilla/5.0 (Windows NT 10.0; WOW64) AppleWebKit/537.36 (KHTML, like Gecko) Chrome/127.0.0.0 Safari/537.36","WebKit","Chrome","127.0.0.0","Windows","10.0","https://hz8g1ckzuq.cognition.run/","en,en-US","3fve1ydw4mezqu8","62","[""Black or African-American""]","No","Male","3304820.899999976","26249","","","{""price_1"":""670"",""price_2"":""660"",""price_3"":""650""}","rating","ctd","attraction_1","2","laptops","null","null","null","null","null","null","1","50","60","45","60","50","60","Processing speed","Memory (RAM)","",""
"","","","","","rating_trial_setup","html-keyboard-response","59","2495757","0.0-3.0-0.28","53","1","2025-04-11 14:19:37","bb671e3ae32f654b8954ea4c4635f915","","Mozilla/5.0 (Windows NT 10.0; WOW64) AppleWebKit/537.36 (KHTML, like Gecko) Chrome/127.0.0.0 Safari/537.36","WebKit","Chrome","127.0.0.0","Windows","10.0","https://hz8g1ckzuq.cognition.run/","en,en-US","3fve1ydw4mezqu8","62","[""Black or African-American""]","No","Male","3304820.899999976","null","","<p></p>","null","rating","bww","catch","null","washing machines","65","85","30","20","40","10","2","","","","","","","","","",""
"","","","","","rating_trial","survey-html-form","60","2517865","0.0-3.0-1.28","53","1","2025-04-11 14:19:37","bb671e3ae32f654b8954ea4c4635f915","","Mozilla/5.0 (Windows NT 10.0; WOW64) AppleWebKit/537.36 (KHTML, like Gecko) Chrome/127.0.0.0 Safari/537.36","WebKit","Chrome","127.0.0.0","Windows","10.0","https://hz8g1ckzuq.cognition.run/","en,en-US","3fve1ydw4mezqu8","62","[""Black or African-American""]","No","Male","3304820.899999976","22102","","","{""price_1"":""750"",""price_2"":""450"",""price_3"":""440""}","rating","bww","catch","null","washing machines","65","85","30","20","40","10","2","null","null","null","null","null","null","Average lifespan","Energy savings","",""
"","","","","","rating_trial_setup","html-keyboard-response","61","2518178","0.0-3.0-0.29","53","1","2025-04-11 14:19:37","bb671e3ae32f654b8954ea4c4635f915","","Mozilla/5.0 (Windows NT 10.0; WOW64) AppleWebKit/537.36 (KHTML, like Gecko) Chrome/127.0.0.0 Safari/537.36","WebKit","Chrome","127.0.0.0","Windows","10.0","https://hz8g1ckzuq.cognition.run/","en,en-US","3fve1ydw4mezqu8","62","[""Black or African-American""]","No","Male","3304820.899999976","null","","<p></p>","null","rating","wbw","catch","null","televisions","60","90","5","5","50","50","2","","","","","","","","","",""
"","","","","","rating_trial","survey-html-form","62","2539499","0.0-3.0-1.29","53","1","2025-04-11 14:19:37","bb671e3ae32f654b8954ea4c4635f915","","Mozilla/5.0 (Windows NT 10.0; WOW64) AppleWebKit/537.36 (KHTML, like Gecko) Chrome/127.0.0.0 Safari/537.36","WebKit","Chrome","127.0.0.0","Windows","10.0","https://hz8g1ckzuq.cognition.run/","en,en-US","3fve1ydw4mezqu8","62","[""Black or African-American""]","No","Male","3304820.899999976","21312","","","{""price_1"":""300"",""price_2"":""750"",""price_3"":""600""}","rating","wbw","catch","null","televisions","60","90","5","5","50","50","2","null","null","null","null","null","null","Screen size","Average lifespan","",""
"","","","","","rating_trial_setup","html-keyboard-response","63","2539819","0.0-3.0-0.30","53","1","2025-04-11 14:19:37","bb671e3ae32f654b8954ea4c4635f915","","Mozilla/5.0 (Windows NT 10.0; WOW64) AppleWebKit/537.36 (KHTML, like Gecko) Chrome/127.0.0.0 Safari/537.36","WebKit","Chrome","127.0.0.0","Windows","10.0","https://hz8g1ckzuq.cognition.run/","en,en-US","3fve1ydw4mezqu8","62","[""Black or African-American""]","No","Male","3304820.899999976","null","","<p></p>","null","rating","ctd","attraction_2","2","washing machines","null","null","null","null","null","null","2","","","","","","","","","",""
"","","","","","rating_trial","survey-html-form","64","2560340","0.0-3.0-1.30","53","1","2025-04-11 14:19:37","bb671e3ae32f654b8954ea4c4635f915","","Mozilla/5.0 (Windows NT 10.0; WOW64) AppleWebKit/537.36 (KHTML, like Gecko) Chrome/127.0.0.0 Safari/537.36","WebKit","Chrome","127.0.0.0","Windows","10.0","https://hz8g1ckzuq.cognition.run/","en,en-US","3fve1ydw4mezqu8","62","[""Black or African-American""]","No","Male","3304820.899999976","20508","","","{""price_1"":""680"",""price_2"":""680"",""price_3"":""670""}","rating","ctd","attraction_2","2","washing machines","null","null","null","null","null","null","2","50","60","40","60","50","60","Average lifespan","Energy savings","",""
"","","","","","rating_trial_setup","html-keyboard-response","65","2560649","0.0-3.0-0.31","53","1","2025-04-11 14:19:37","bb671e3ae32f654b8954ea4c4635f915","","Mozilla/5.0 (Windows NT 10.0; WOW64) AppleWebKit/537.36 (KHTML, like Gecko) Chrome/127.0.0.0 Safari/537.36","WebKit","Chrome","127.0.0.0","Windows","10.0","https://hz8g1ckzuq.cognition.run/","en,en-US","3fve1ydw4mezqu8","62","[""Black or African-American""]","No","Male","3304820.899999976","null","","<p></p>","null","rating","cdt","attraction_1","1","washing machines","null","null","null","null","null","null","1","","","","","","","","","",""
"","","","","","rating_trial","survey-html-form","66","2579259","0.0-3.0-1.31","53","1","2025-04-11 14:19:37","bb671e3ae32f654b8954ea4c4635f915","","Mozilla/5.0 (Windows NT 10.0; WOW64) AppleWebKit/537.36 (KHTML, like Gecko) Chrome/127.0.0.0 Safari/537.36","WebKit","Chrome","127.0.0.0","Windows","10.0","https://hz8g1ckzuq.cognition.run/","en,en-US","3fve1ydw4mezqu8","62","[""Black or African-American""]","No","Male","3304820.899999976","18600","","","{""price_1"":""680"",""price_2"":""670"",""price_3"":""675""}","rating","cdt","attraction_1","1","washing machines","null","null","null","null","null","null","1","60","50","60","50","60","45","Average lifespan","Energy savings","",""
"","","","","","rating_trial_setup","html-keyboard-response","67","2579566","0.0-3.0-0.32","53","1","2025-04-11 14:19:37","bb671e3ae32f654b8954ea4c4635f915","","Mozilla/5.0 (Windows NT 10.0; WOW64) AppleWebKit/537.36 (KHTML, like Gecko) Chrome/127.0.0.0 Safari/537.36","WebKit","Chrome","127.0.0.0","Windows","10.0","https://hz8g1ckzuq.cognition.run/","en,en-US","3fve1ydw4mezqu8","62","[""Black or African-American""]","No","Male","3304820.899999976","null","","<p></p>","null","rating","tcd","repulsion_2","1","microwave ovens","null","null","null","null","null","null","2","","","","","","","","","",""
"","","","","","rating_trial","survey-html-form","68","2598640","0.0-3.0-1.32","53","1","2025-04-11 14:19:37","bb671e3ae32f654b8954ea4c4635f915","","Mozilla/5.0 (Windows NT 10.0; WOW64) AppleWebKit/537.36 (KHTML, like Gecko) Chrome/127.0.0.0 Safari/537.36","WebKit","Chrome","127.0.0.0","Windows","10.0","https://hz8g1ckzuq.cognition.run/","en,en-US","3fve1ydw4mezqu8","62","[""Black or African-American""]","No","Male","3304820.899999976","19063","","","{""price_1"":""640"",""price_2"":""650"",""price_3"":""620""}","rating","tcd","repulsion_2","1","microwave ovens","null","null","null","null","null","null","2","100","90","100","30","40","20","Warranty","Cooking power","",""
"","","","","","rating_trial_setup","html-keyboard-response","69","2598954","0.0-3.0-0.33","53","1","2025-04-11 14:19:37","bb671e3ae32f654b8954ea4c4635f915","","Mozilla/5.0 (Windows NT 10.0; WOW64) AppleWebKit/537.36 (KHTML, like Gecko) Chrome/127.0.0.0 Safari/537.36","WebKit","Chrome","127.0.0.0","Windows","10.0","https://hz8g1ckzuq.cognition.run/","en,en-US","3fve1ydw4mezqu8","62","[""Black or African-American""]","No","Male","3304820.899999976","null","","<p></p>","null","rating","tdc","attraction_2","2","televisions","null","null","null","null","null","null","2","","","","","","","","","",""
"","","","","","rating_trial","survey-html-form","70","2621544","0.0-3.0-1.33","53","1","2025-04-11 14:19:37","bb671e3ae32f654b8954ea4c4635f915","","Mozilla/5.0 (Windows NT 10.0; WOW64) AppleWebKit/537.36 (KHTML, like Gecko) Chrome/127.0.0.0 Safari/537.36","WebKit","Chrome","127.0.0.0","Windows","10.0","https://hz8g1ckzuq.cognition.run/","en,en-US","3fve1ydw4mezqu8","62","[""Black or African-American""]","No","Male","3304820.899999976","22579","","","{""price_1"":""660"",""price_2"":""650"",""price_3"":""660""}","rating","tdc","attraction_2","2","televisions","null","null","null","null","null","null","2","50","60","40","60","50","60","Screen size","Average lifespan","",""
"","","","","","rating_trial_setup","html-keyboard-response","71","2621853","0.0-3.0-0.34","53","1","2025-04-11 14:19:37","bb671e3ae32f654b8954ea4c4635f915","","Mozilla/5.0 (Windows NT 10.0; WOW64) AppleWebKit/537.36 (KHTML, like Gecko) Chrome/127.0.0.0 Safari/537.36","WebKit","Chrome","127.0.0.0","Windows","10.0","https://hz8g1ckzuq.cognition.run/","en,en-US","3fve1ydw4mezqu8","62","[""Black or African-American""]","No","Male","3304820.899999976","null","","<p></p>","null","rating","wwb","catch","null","televisions","55","95","15","50","35","30","2","","","","","","","","","",""
"","","","","","rating_trial","survey-html-form","72","2638887","0.0-3.0-1.34","53","1","2025-04-11 14:19:37","bb671e3ae32f654b8954ea4c4635f915","","Mozilla/5.0 (Windows NT 10.0; WOW64) AppleWebKit/537.36 (KHTML, like Gecko) Chrome/127.0.0.0 Safari/537.36","WebKit","Chrome","127.0.0.0","Windows","10.0","https://hz8g1ckzuq.cognition.run/","en,en-US","3fve1ydw4mezqu8","62","[""Black or African-American""]","No","Male","3304820.899999976","17023","","","{""price_1"":""520"",""price_2"":""520"",""price_3"":""750""}","rating","wwb","catch","null","televisions","55","95","15","50","35","30","2","null","null","null","null","null","null","Screen size","Average lifespan","",""
"","","","","","rating_trial_setup","html-keyboard-response","73","2639203","0.0-3.0-0.35","53","1","2025-04-11 14:19:37","bb671e3ae32f654b8954ea4c4635f915","","Mozilla/5.0 (Windows NT 10.0; WOW64) AppleWebKit/537.36 (KHTML, like Gecko) Chrome/127.0.0.0 Safari/537.36","WebKit","Chrome","127.0.0.0","Windows","10.0","https://hz8g1ckzuq.cognition.run/","en,en-US","3fve1ydw4mezqu8","62","[""Black or African-American""]","No","Male","3304820.899999976","null","","<p></p>","null","rating","dtc","attraction_2","1","microwave ovens","null","null","null","null","null","null","1","","","","","","","","","",""
"","","","","","rating_trial","survey-html-form","74","2657493","0.0-3.0-1.35","53","1","2025-04-11 14:19:37","bb671e3ae32f654b8954ea4c4635f915","","Mozilla/5.0 (Windows NT 10.0; WOW64) AppleWebKit/537.36 (KHTML, like Gecko) Chrome/127.0.0.0 Safari/537.36","WebKit","Chrome","127.0.0.0","Windows","10.0","https://hz8g1ckzuq.cognition.run/","en,en-US","3fve1ydw4mezqu8","62","[""Black or African-American""]","No","Male","3304820.899999976","18278","","","{""price_1"":""620"",""price_2"":""640"",""price_3"":""650""}","rating","dtc","attraction_2","1","microwave ovens","null","null","null","null","null","null","1","60","50","60","50","60","40","Warranty","Cooking power","",""
"","","","","","rating_trial_setup","html-keyboard-response","75","2657803","0.0-3.0-0.36","53","1","2025-04-11 14:19:37","bb671e3ae32f654b8954ea4c4635f915","","Mozilla/5.0 (Windows NT 10.0; WOW64) AppleWebKit/537.36 (KHTML, like Gecko) Chrome/127.0.0.0 Safari/537.36","WebKit","Chrome","127.0.0.0","Windows","10.0","https://hz8g1ckzuq.cognition.run/","en,en-US","3fve1ydw4mezqu8","62","[""Black or African-American""]","No","Male","3304820.899999976","null","","<p></p>","null","rating","dct","attraction_1","1","televisions","null","null","null","null","null","null","2","","","","","","","","","",""
"","","","","","rating_trial","survey-html-form","76","2673832","0.0-3.0-1.36","53","1","2025-04-11 14:19:37","bb671e3ae32f654b8954ea4c4635f915","","Mozilla/5.0 (Windows NT 10.0; WOW64) AppleWebKit/537.36 (KHTML, like Gecko) Chrome/127.0.0.0 Safari/537.36","WebKit","Chrome","127.0.0.0","Windows","10.0","https://hz8g1ckzuq.cognition.run/","en,en-US","3fve1ydw4mezqu8","62","[""Black or African-American""]","No","Male","3304820.899999976","16017","","","{""price_1"":""640"",""price_2"":""650"",""price_3"":""660""}","rating","dct","attraction_1","1","televisions","null","null","null","null","null","null","2","60","50","60","50","60","45","Screen size","Average lifespan","",""
"","","","","","rating_trial_setup","html-keyboard-response","77","2674143","0.0-3.0-0.37","53","1","2025-04-11 14:19:37","bb671e3ae32f654b8954ea4c4635f915","","Mozilla/5.0 (Windows NT 10.0; WOW64) AppleWebKit/537.36 (KHTML, like Gecko) Chrome/127.0.0.0 Safari/537.36","WebKit","Chrome","127.0.0.0","Windows","10.0","https://hz8g1ckzuq.cognition.run/","en,en-US","3fve1ydw4mezqu8","62","[""Black or African-American""]","No","Male","3304820.899999976","null","","<p></p>","null","rating","tdc","repulsion_2","1","washing machines","null","null","null","null","null","null","1","","","","","","","","","",""
"","","","","","rating_trial","survey-html-form","78","2694647","0.0-3.0-1.37","53","1","2025-04-11 14:19:37","bb671e3ae32f654b8954ea4c4635f915","","Mozilla/5.0 (Windows NT 10.0; WOW64) AppleWebKit/537.36 (KHTML, like Gecko) Chrome/127.0.0.0 Safari/537.36","WebKit","Chrome","127.0.0.0","Windows","10.0","https://hz8g1ckzuq.cognition.run/","en,en-US","3fve1ydw4mezqu8","62","[""Black or African-American""]","No","Male","3304820.899999976","20493","","","{""price_1"":""700"",""price_2"":""680"",""price_3"":""690""}","rating","tdc","repulsion_2","1","washing machines","null","null","null","null","null","null","1","100","90","100","30","40","20","Average lifespan","Energy savings","",""
"","","","","","rating_trial_setup","html-keyboard-response","79","2694958","0.0-3.0-0.38","53","1","2025-04-11 14:19:37","bb671e3ae32f654b8954ea4c4635f915","","Mozilla/5.0 (Windows NT 10.0; WOW64) AppleWebKit/537.36 (KHTML, like Gecko) Chrome/127.0.0.0 Safari/537.36","WebKit","Chrome","127.0.0.0","Windows","10.0","https://hz8g1ckzuq.cognition.run/","en,en-US","3fve1ydw4mezqu8","62","[""Black or African-American""]","No","Male","3304820.899999976","null","","<p></p>","null","rating","dct","repulsion_2","2","laptops","null","null","null","null","null","null","2","","","","","","","","","",""
"","","","","","rating_trial","survey-html-form","80","2711958","0.0-3.0-1.38","53","1","2025-04-11 14:19:37","bb671e3ae32f654b8954ea4c4635f915","","Mozilla/5.0 (Windows NT 10.0; WOW64) AppleWebKit/537.36 (KHTML, like Gecko) Chrome/127.0.0.0 Safari/537.36","WebKit","Chrome","127.0.0.0","Windows","10.0","https://hz8g1ckzuq.cognition.run/","en,en-US","3fve1ydw4mezqu8","62","[""Black or African-American""]","No","Male","3304820.899999976","16989","","","{""price_1"":""640"",""price_2"":""680"",""price_3"":""660""}","rating","dct","repulsion_2","2","laptops","null","null","null","null","null","null","2","30","40","20","100","90","100","Processing speed","Memory (RAM)","",""
"","","","","","rating_trial_setup","html-keyboard-response","81","2712271","0.0-3.0-0.39","53","1","2025-04-11 14:19:37","bb671e3ae32f654b8954ea4c4635f915","","Mozilla/5.0 (Windows NT 10.0; WOW64) AppleWebKit/537.36 (KHTML, like Gecko) Chrome/127.0.0.0 Safari/537.36","WebKit","Chrome","127.0.0.0","Windows","10.0","https://hz8g1ckzuq.cognition.run/","en,en-US","3fve1ydw4mezqu8","62","[""Black or African-American""]","No","Male","3304820.899999976","null","","<p></p>","null","rating","dtc","repulsion_2","1","laptops","null","null","null","null","null","null","2","","","","","","","","","",""
"","","","","","rating_trial","survey-html-form","82","2733347","0.0-3.0-1.39","53","1","2025-04-11 14:19:37","bb671e3ae32f654b8954ea4c4635f915","","Mozilla/5.0 (Windows NT 10.0; WOW64) AppleWebKit/537.36 (KHTML, like Gecko) Chrome/127.0.0.0 Safari/537.36","WebKit","Chrome","127.0.0.0","Windows","10.0","https://hz8g1ckzuq.cognition.run/","en,en-US","3fve1ydw4mezqu8","62","[""Black or African-American""]","No","Male","3304820.899999976","21066","","","{""price_1"":""660"",""price_2"":""680"",""price_3"":""700""}","rating","dtc","repulsion_2","1","laptops","null","null","null","null","null","null","2","100","90","100","30","40","20","Processing speed","Memory (RAM)","",""
"","","","","","","instructions","83","2795827","0.0-4.0","53","1","2025-04-11 14:19:37","bb671e3ae32f654b8954ea4c4635f915","","Mozilla/5.0 (Windows NT 10.0; WOW64) AppleWebKit/537.36 (KHTML, like Gecko) Chrome/127.0.0.0 Safari/537.36","WebKit","Chrome","127.0.0.0","Windows","10.0","https://hz8g1ckzuq.cognition.run/","en,en-US","3fve1ydw4mezqu8","62","[""Black or African-American""]","No","Male","3304820.899999976","62473","[{""page_index"":0,""viewing_time"":5805},{""page_index"":1,""viewing_time"":3191},{""page_index"":2,""viewing_time"":7536},{""page_index"":3,""viewing_time"":6988},{""page_index"":4,""viewing_time"":7374},{""page_index"":5,""viewing_time"":5715},{""page_index"":6,""viewing_time"":20135},{""page_index"":7,""viewing_time"":5728}]","","","","","","","","","","","","","","","","","","","","","","","",""
"","","","","","choice_trial_setup","html-keyboard-response","84","2796142","0.0-5.0-0.0","53","1","2025-04-11 14:19:37","bb671e3ae32f654b8954ea4c4635f915","","Mozilla/5.0 (Windows NT 10.0; WOW64) AppleWebKit/537.36 (KHTML, like Gecko) Chrome/127.0.0.0 Safari/537.36","WebKit","Chrome","127.0.0.0","Windows","10.0","https://hz8g1ckzuq.cognition.run/","en,en-US","3fve1ydw4mezqu8","62","[""Black or African-American""]","No","Male","3304820.899999976","null","","<p></p>","null","choice","dct","attraction_2","1","washing machines","null","null","null","null","null","null","1","","","","","","","","","",""
"","","","","","choice_trial","survey-html-form","85","2805802","0.0-5.0-1.0","53","1","2025-04-11 14:19:37","bb671e3ae32f654b8954ea4c4635f915","","Mozilla/5.0 (Windows NT 10.0; WOW64) AppleWebKit/537.36 (KHTML, like Gecko) Chrome/127.0.0.0 Safari/537.36","WebKit","Chrome","127.0.0.0","Windows","10.0","https://hz8g1ckzuq.cognition.run/","en,en-US","3fve1ydw4mezqu8","62","[""Black or African-American""]","No","Male","3304820.899999976","9643","","","{""product_choice"":""C""}","choice","dct","attraction_2","1","washing machines","null","null","null","null","null","null","1","60","50","60","50","60","40","Average lifespan","Energy savings","",""
"","","","","","choice_trial_setup","html-keyboard-response","86","2806124","0.0-5.0-0.1","53","1","2025-04-11 14:19:37","bb671e3ae32f654b8954ea4c4635f915","","Mozilla/5.0 (Windows NT 10.0; WOW64) AppleWebKit/537.36 (KHTML, like Gecko) Chrome/127.0.0.0 Safari/537.36","WebKit","Chrome","127.0.0.0","Windows","10.0","https://hz8g1ckzuq.cognition.run/","en,en-US","3fve1ydw4mezqu8","62","[""Black or African-American""]","No","Male","3304820.899999976","null","","<p></p>","null","choice","ctd","repulsion_2","2","microwave ovens","null","null","null","null","null","null","1","","","","","","","","","",""
"","","","","","choice_trial","survey-html-form","87","2814479","0.0-5.0-1.1","53","1","2025-04-11 14:19:37","bb671e3ae32f654b8954ea4c4635f915","","Mozilla/5.0 (Windows NT 10.0; WOW64) AppleWebKit/537.36 (KHTML, like Gecko) Chrome/127.0.0.0 Safari/537.36","WebKit","Chrome","127.0.0.0","Windows","10.0","https://hz8g1ckzuq.cognition.run/","en,en-US","3fve1ydw4mezqu8","62","[""Black or African-American""]","No","Male","3304820.899999976","8344","","","{""product_choice"":""A""}","choice","ctd","repulsion_2","2","microwave ovens","null","null","null","null","null","null","1","30","40","20","100","90","100","Warranty","Cooking power","",""
"","","","","","choice_trial_setup","html-keyboard-response","88","2814802","0.0-5.0-0.2","53","1","2025-04-11 14:19:37","bb671e3ae32f654b8954ea4c4635f915","","Mozilla/5.0 (Windows NT 10.0; WOW64) AppleWebKit/537.36 (KHTML, like Gecko) Chrome/127.0.0.0 Safari/537.36","WebKit","Chrome","127.0.0.0","Windows","10.0","https://hz8g1ckzuq.cognition.run/","en,en-US","3fve1ydw4mezqu8","62","[""Black or African-American""]","No","Male","3304820.899999976","null","","<p></p>","null","choice","dtc","repulsion_1","2","microwave ovens","null","null","null","null","null","null","2","","","","","","","","","",""
"","","","","","choice_trial","survey-html-form","89","2848076","0.0-5.0-1.2","53","1","2025-04-11 14:19:37","bb671e3ae32f654b8954ea4c4635f915","","Mozilla/5.0 (Windows NT 10.0; WOW64) AppleWebKit/537.36 (KHTML, like Gecko) Chrome/127.0.0.0 Safari/537.36","WebKit","Chrome","127.0.0.0","Windows","10.0","https://hz8g1ckzuq.cognition.run/","en,en-US","3fve1ydw4mezqu8","62","[""Black or African-American""]","No","Male","3304820.899999976","33264","","","{""product_choice"":""C""}","choice","dtc","repulsion_1","2","microwave ovens","null","null","null","null","null","null","2","30","40","25","100","90","100","Warranty","Cooking power","",""
"","","","","","choice_trial_setup","html-keyboard-response","90","2848389","0.0-5.0-0.3","53","1","2025-04-11 14:19:37","bb671e3ae32f654b8954ea4c4635f915","","Mozilla/5.0 (Windows NT 10.0; WOW64) AppleWebKit/537.36 (KHTML, like Gecko) Chrome/127.0.0.0 Safari/537.36","WebKit","Chrome","127.0.0.0","Windows","10.0","https://hz8g1ckzuq.cognition.run/","en,en-US","3fve1ydw4mezqu8","62","[""Black or African-American""]","No","Male","3304820.899999976","null","","<p></p>","null","choice","tdc","attraction_2","2","laptops","null","null","null","null","null","null","2","","","","","","","","","",""
"","","","","","choice_trial","survey-html-form","91","2855334","0.0-5.0-1.3","53","1","2025-04-11 14:19:37","bb671e3ae32f654b8954ea4c4635f915","","Mozilla/5.0 (Windows NT 10.0; WOW64) AppleWebKit/537.36 (KHTML, like Gecko) Chrome/127.0.0.0 Safari/537.36","WebKit","Chrome","127.0.0.0","Windows","10.0","https://hz8g1ckzuq.cognition.run/","en,en-US","3fve1ydw4mezqu8","62","[""Black or African-American""]","No","Male","3304820.899999976","6931","","","{""product_choice"":""C""}","choice","tdc","attraction_2","2","laptops","null","null","null","null","null","null","2","50","60","40","60","50","60","Processing speed","Memory (RAM)","",""
"","","","","","choice_trial_setup","html-keyboard-response","92","2855648","0.0-5.0-0.4","53","1","2025-04-11 14:19:37","bb671e3ae32f654b8954ea4c4635f915","","Mozilla/5.0 (Windows NT 10.0; WOW64) AppleWebKit/537.36 (KHTML, like Gecko) Chrome/127.0.0.0 Safari/537.36","WebKit","Chrome","127.0.0.0","Windows","10.0","https://hz8g1ckzuq.cognition.run/","en,en-US","3fve1ydw4mezqu8","62","[""Black or African-American""]","No","Male","3304820.899999976","null","","<p></p>","null","choice","wbw","catch","null","washing machines","65","80","40","25","45","30","2","","","","","","","","","",""
"","","","","","choice_trial","survey-html-form","93","2862753","0.0-5.0-1.4","53","1","2025-04-11 14:19:37","bb671e3ae32f654b8954ea4c4635f915","","Mozilla/5.0 (Windows NT 10.0; WOW64) AppleWebKit/537.36 (KHTML, like Gecko) Chrome/127.0.0.0 Safari/537.36","WebKit","Chrome","127.0.0.0","Windows","10.0","https://hz8g1ckzuq.cognition.run/","en,en-US","3fve1ydw4mezqu8","62","[""Black or African-American""]","No","Male","3304820.899999976","7090","","","{""product_choice"":""B""}","choice","wbw","catch","null","washing machines","65","80","40","25","45","30","2","null","null","null","null","null","null","Average lifespan","Energy savings","",""
"","","","","","choice_trial_setup","html-keyboard-response","94","2863064","0.0-5.0-0.5","53","1","2025-04-11 14:19:37","bb671e3ae32f654b8954ea4c4635f915","","Mozilla/5.0 (Windows NT 10.0; WOW64) AppleWebKit/537.36 (KHTML, like Gecko) Chrome/127.0.0.0 Safari/537.36","WebKit","Chrome","127.0.0.0","Windows","10.0","https://hz8g1ckzuq.cognition.run/","en,en-US","3fve1ydw4mezqu8","62","[""Black or African-American""]","No","Male","3304820.899999976","null","","<p></p>","null","choice","dtc","repulsion_2","1","washing machines","null","null","null","null","null","null","1","","","","","","","","","",""
"","","","","","choice_trial","survey-html-form","95","2866752","0.0-5.0-1.5","53","1","2025-04-11 14:19:37","bb671e3ae32f654b8954ea4c4635f915","","Mozilla/5.0 (Windows NT 10.0; WOW64) AppleWebKit/537.36 (KHTML, like Gecko) Chrome/127.0.0.0 Safari/537.36","WebKit","Chrome","127.0.0.0","Windows","10.0","https://hz8g1ckzuq.cognition.run/","en,en-US","3fve1ydw4mezqu8","62","[""Black or African-American""]","No","Male","3304820.899999976","3673","","","{""product_choice"":""C""}","choice","dtc","repulsion_2","1","washing machines","null","null","null","null","null","null","1","100","90","100","30","40","20","Average lifespan","Energy savings","",""
"","","","","","choice_trial_setup","html-keyboard-response","96","2867067","0.0-5.0-0.6","53","1","2025-04-11 14:19:37","bb671e3ae32f654b8954ea4c4635f915","","Mozilla/5.0 (Windows NT 10.0; WOW64) AppleWebKit/537.36 (KHTML, like Gecko) Chrome/127.0.0.0 Safari/537.36","WebKit","Chrome","127.0.0.0","Windows","10.0","https://hz8g1ckzuq.cognition.run/","en,en-US","3fve1ydw4mezqu8","62","[""Black or African-American""]","No","Male","3304820.899999976","null","","<p></p>","null","choice","dtc","repulsion_1","2","washing machines","null","null","null","null","null","null","1","","","","","","","","","",""
"","","","","","choice_trial","survey-html-form","97","2870553","0.0-5.0-1.6","53","1","2025-04-11 14:19:37","bb671e3ae32f654b8954ea4c4635f915","","Mozilla/5.0 (Windows NT 10.0; WOW64) AppleWebKit/537.36 (KHTML, like Gecko) Chrome/127.0.0.0 Safari/537.36","WebKit","Chrome","127.0.0.0","Windows","10.0","https://hz8g1ckzuq.cognition.run/","en,en-US","3fve1ydw4mezqu8","62","[""Black or African-American""]","No","Male","3304820.899999976","3472","","","{""product_choice"":""C""}","choice","dtc","repulsion_1","2","washing machines","null","null","null","null","null","null","1","30","40","25","100","90","100","Average lifespan","Energy savings","",""
"","","","","","choice_trial_setup","html-keyboard-response","98","2870879","0.0-5.0-0.7","53","1","2025-04-11 14:19:37","bb671e3ae32f654b8954ea4c4635f915","","Mozilla/5.0 (Windows NT 10.0; WOW64) AppleWebKit/537.36 (KHTML, like Gecko) Chrome/127.0.0.0 Safari/537.36","WebKit","Chrome","127.0.0.0","Windows","10.0","https://hz8g1ckzuq.cognition.run/","en,en-US","3fve1ydw4mezqu8","62","[""Black or African-American""]","No","Male","3304820.899999976","null","","<p></p>","null","choice","tcd","repulsion_1","1","microwave ovens","null","null","null","null","null","null","2","","","","","","","","","",""
"","","","","","choice_trial","survey-html-form","99","2874287","0.0-5.0-1.7","53","1","2025-04-11 14:19:37","bb671e3ae32f654b8954ea4c4635f915","","Mozilla/5.0 (Windows NT 10.0; WOW64) AppleWebKit/537.36 (KHTML, like Gecko) Chrome/127.0.0.0 Safari/537.36","WebKit","Chrome","127.0.0.0","Windows","10.0","https://hz8g1ckzuq.cognition.run/","en,en-US","3fve1ydw4mezqu8","62","[""Black or African-American""]","No","Male","3304820.899999976","3400","","","{""product_choice"":""B""}","choice","tcd","repulsion_1","1","microwave ovens","null","null","null","null","null","null","2","100","90","100","30","40","25","Warranty","Cooking power","",""
"","","","","","choice_trial_setup","html-keyboard-response","100","2874614","0.0-5.0-0.8","53","1","2025-04-11 14:19:37","bb671e3ae32f654b8954ea4c4635f915","","Mozilla/5.0 (Windows NT 10.0; WOW64) AppleWebKit/537.36 (KHTML, like Gecko) Chrome/127.0.0.0 Safari/537.36","WebKit","Chrome","127.0.0.0","Windows","10.0","https://hz8g1ckzuq.cognition.run/","en,en-US","3fve1ydw4mezqu8","62","[""Black or African-American""]","No","Male","3304820.899999976","null","","<p></p>","null","choice","bww","catch","null","laptops","90","50","45","40","15","25","1","","","","","","","","","",""
"","","","","","choice_trial","survey-html-form","101","2878097","0.0-5.0-1.8","53","1","2025-04-11 14:19:37","bb671e3ae32f654b8954ea4c4635f915","","Mozilla/5.0 (Windows NT 10.0; WOW64) AppleWebKit/537.36 (KHTML, like Gecko) Chrome/127.0.0.0 Safari/537.36","WebKit","Chrome","127.0.0.0","Windows","10.0","https://hz8g1ckzuq.cognition.run/","en,en-US","3fve1ydw4mezqu8","62","[""Black or African-American""]","No","Male","3304820.899999976","3470","","","{""product_choice"":""A""}","choice","bww","catch","null","laptops","90","50","45","40","15","25","1","null","null","null","null","null","null","Processing speed","Memory (RAM)","",""
"","","","","","choice_trial_setup","html-keyboard-response","102","2878407","0.0-5.0-0.9","53","1","2025-04-11 14:19:37","bb671e3ae32f654b8954ea4c4635f915","","Mozilla/5.0 (Windows NT 10.0; WOW64) AppleWebKit/537.36 (KHTML, like Gecko) Chrome/127.0.0.0 Safari/537.36","WebKit","Chrome","127.0.0.0","Windows","10.0","https://hz8g1ckzuq.cognition.run/","en,en-US","3fve1ydw4mezqu8","62","[""Black or African-American""]","No","Male","3304820.899999976","null","","<p></p>","null","choice","tdc","attraction_1","2","televisions","null","null","null","null","null","null","1","","","","","","","","","",""
"","","","","","choice_trial","survey-html-form","103","2888654","0.0-5.0-1.9","53","1","2025-04-11 14:19:37","bb671e3ae32f654b8954ea4c4635f915","","Mozilla/5.0 (Windows NT 10.0; WOW64) AppleWebKit/537.36 (KHTML, like Gecko) Chrome/127.0.0.0 Safari/537.36","WebKit","Chrome","127.0.0.0","Windows","10.0","https://hz8g1ckzuq.cognition.run/","en,en-US","3fve1ydw4mezqu8","62","[""Black or African-American""]","No","Male","3304820.899999976","10235","","","{""product_choice"":""A""}","choice","tdc","attraction_1","2","televisions","null","null","null","null","null","null","1","50","60","45","60","50","60","Screen size","Average lifespan","",""
"","","","","","choice_trial_setup","html-keyboard-response","104","2888966","0.0-5.0-0.10","53","1","2025-04-11 14:19:37","bb671e3ae32f654b8954ea4c4635f915","","Mozilla/5.0 (Windows NT 10.0; WOW64) AppleWebKit/537.36 (KHTML, like Gecko) Chrome/127.0.0.0 Safari/537.36","WebKit","Chrome","127.0.0.0","Windows","10.0","https://hz8g1ckzuq.cognition.run/","en,en-US","3fve1ydw4mezqu8","62","[""Black or African-American""]","No","Male","3304820.899999976","null","","<p></p>","null","choice","dtc","attraction_1","1","washing machines","null","null","null","null","null","null","2","","","","","","","","","",""
"","","","","","choice_trial","survey-html-form","105","2897694","0.0-5.0-1.10","53","1","2025-04-11 14:19:37","bb671e3ae32f654b8954ea4c4635f915","","Mozilla/5.0 (Windows NT 10.0; WOW64) AppleWebKit/537.36 (KHTML, like Gecko) Chrome/127.0.0.0 Safari/537.36","WebKit","Chrome","127.0.0.0","Windows","10.0","https://hz8g1ckzuq.cognition.run/","en,en-US","3fve1ydw4mezqu8","62","[""Black or African-American""]","No","Male","3304820.899999976","8714","","","{""product_choice"":""B""}","choice","dtc","attraction_1","1","washing machines","null","null","null","null","null","null","2","60","50","60","50","60","45","Average lifespan","Energy savings","",""
"","","","","","choice_trial_setup","html-keyboard-response","106","2898015","0.0-5.0-0.11","53","1","2025-04-11 14:19:37","bb671e3ae32f654b8954ea4c4635f915","","Mozilla/5.0 (Windows NT 10.0; WOW64) AppleWebKit/537.36 (KHTML, like Gecko) Chrome/127.0.0.0 Safari/537.36","WebKit","Chrome","127.0.0.0","Windows","10.0","https://hz8g1ckzuq.cognition.run/","en,en-US","3fve1ydw4mezqu8","62","[""Black or African-American""]","No","Male","3304820.899999976","null","","<p></p>","null","choice","ctd","attraction_2","2","microwave ovens","null","null","null","null","null","null","1","","","","","","","","","",""
"","","","","","choice_trial","survey-html-form","107","2903418","0.0-5.0-1.11","53","1","2025-04-11 14:19:37","bb671e3ae32f654b8954ea4c4635f915","","Mozilla/5.0 (Windows NT 10.0; WOW64) AppleWebKit/537.36 (KHTML, like Gecko) Chrome/127.0.0.0 Safari/537.36","WebKit","Chrome","127.0.0.0","Windows","10.0","https://hz8g1ckzuq.cognition.run/","en,en-US","3fve1ydw4mezqu8","62","[""Black or African-American""]","No","Male","3304820.899999976","5391","","","{""product_choice"":""A""}","choice","ctd","attraction_2","2","microwave ovens","null","null","null","null","null","null","1","50","60","40","60","50","60","Warranty","Cooking power","",""
"","","","","","choice_trial_setup","html-keyboard-response","108","2903740","0.0-5.0-0.12","53","1","2025-04-11 14:19:37","bb671e3ae32f654b8954ea4c4635f915","","Mozilla/5.0 (Windows NT 10.0; WOW64) AppleWebKit/537.36 (KHTML, like Gecko) Chrome/127.0.0.0 Safari/537.36","WebKit","Chrome","127.0.0.0","Windows","10.0","https://hz8g1ckzuq.cognition.run/","en,en-US","3fve1ydw4mezqu8","62","[""Black or African-American""]","No","Male","3304820.899999976","null","","<p></p>","null","choice","tcd","attraction_2","1","televisions","null","null","null","null","null","null","1","","","","","","","","","",""
"","","","","","choice_trial","survey-html-form","109","2907981","0.0-5.0-1.12","53","1","2025-04-11 14:19:37","bb671e3ae32f654b8954ea4c4635f915","","Mozilla/5.0 (Windows NT 10.0; WOW64) AppleWebKit/537.36 (KHTML, like Gecko) Chrome/127.0.0.0 Safari/537.36","WebKit","Chrome","127.0.0.0","Windows","10.0","https://hz8g1ckzuq.cognition.run/","en,en-US","3fve1ydw4mezqu8","62","[""Black or African-American""]","No","Male","3304820.899999976","4232","","","{""product_choice"":""B""}","choice","tcd","attraction_2","1","televisions","null","null","null","null","null","null","1","60","50","60","50","60","40","Screen size","Average lifespan","",""
"","","","","","choice_trial_setup","html-keyboard-response","110","2908306","0.0-5.0-0.13","53","1","2025-04-11 14:19:37","bb671e3ae32f654b8954ea4c4635f915","","Mozilla/5.0 (Windows NT 10.0; WOW64) AppleWebKit/537.36 (KHTML, like Gecko) Chrome/127.0.0.0 Safari/537.36","WebKit","Chrome","127.0.0.0","Windows","10.0","https://hz8g1ckzuq.cognition.run/","en,en-US","3fve1ydw4mezqu8","62","[""Black or African-American""]","No","Male","3304820.899999976","null","","<p></p>","null","choice","wwb","catch","null","televisions","60","85","30","25","25","40","2","","","","","","","","","",""
"","","","","","choice_trial","survey-html-form","111","2913995","0.0-5.0-1.13","53","1","2025-04-11 14:19:37","bb671e3ae32f654b8954ea4c4635f915","","Mozilla/5.0 (Windows NT 10.0; WOW64) AppleWebKit/537.36 (KHTML, like Gecko) Chrome/127.0.0.0 Safari/537.36","WebKit","Chrome","127.0.0.0","Windows","10.0","https://hz8g1ckzuq.cognition.run/","en,en-US","3fve1ydw4mezqu8","62","[""Black or African-American""]","No","Male","3304820.899999976","5674","","","{""product_choice"":""C""}","choice","wwb","catch","null","televisions","60","85","30","25","25","40","2","null","null","null","null","null","null","Screen size","Average lifespan","",""
"","","","","","choice_trial_setup","html-keyboard-response","112","2914311","0.0-5.0-0.14","53","1","2025-04-11 14:19:37","bb671e3ae32f654b8954ea4c4635f915","","Mozilla/5.0 (Windows NT 10.0; WOW64) AppleWebKit/537.36 (KHTML, like Gecko) Chrome/127.0.0.0 Safari/537.36","WebKit","Chrome","127.0.0.0","Windows","10.0","https://hz8g1ckzuq.cognition.run/","en,en-US","3fve1ydw4mezqu8","62","[""Black or African-American""]","No","Male","3304820.899999976","null","","<p></p>","null","choice","tdc","repulsion_2","2","laptops","null","null","null","null","null","null","1","","","","","","","","","",""
"","","","","","choice_trial","survey-html-form","113","2921389","0.0-5.0-1.14","53","1","2025-04-11 14:19:37","bb671e3ae32f654b8954ea4c4635f915","","Mozilla/5.0 (Windows NT 10.0; WOW64) AppleWebKit/537.36 (KHTML, like Gecko) Chrome/127.0.0.0 Safari/537.36","WebKit","Chrome","127.0.0.0","Windows","10.0","https://hz8g1ckzuq.cognition.run/","en,en-US","3fve1ydw4mezqu8","62","[""Black or African-American""]","No","Male","3304820.899999976","7072","","","{""product_choice"":""C""}","choice","tdc","repulsion_2","2","laptops","null","null","null","null","null","null","1","30","40","20","100","90","100","Processing speed","Memory (RAM)","",""
"","","","","","choice_trial_setup","html-keyboard-response","114","2921712","0.0-5.0-0.15","53","1","2025-04-11 14:19:37","bb671e3ae32f654b8954ea4c4635f915","","Mozilla/5.0 (Windows NT 10.0; WOW64) AppleWebKit/537.36 (KHTML, like Gecko) Chrome/127.0.0.0 Safari/537.36","WebKit","Chrome","127.0.0.0","Windows","10.0","https://hz8g1ckzuq.cognition.run/","en,en-US","3fve1ydw4mezqu8","62","[""Black or African-American""]","No","Male","3304820.899999976","null","","<p></p>","null","choice","wwb","catch","null","microwave ovens","75","75","35","45","20","5","1","","","","","","","","","",""
"","","","","","choice_trial","survey-html-form","115","2924136","0.0-5.0-1.15","53","1","2025-04-11 14:19:37","bb671e3ae32f654b8954ea4c4635f915","","Mozilla/5.0 (Windows NT 10.0; WOW64) AppleWebKit/537.36 (KHTML, like Gecko) Chrome/127.0.0.0 Safari/537.36","WebKit","Chrome","127.0.0.0","Windows","10.0","https://hz8g1ckzuq.cognition.run/","en,en-US","3fve1ydw4mezqu8","62","[""Black or African-American""]","No","Male","3304820.899999976","2409","","","{""product_choice"":""C""}","choice","wwb","catch","null","microwave ovens","75","75","35","45","20","5","1","null","null","null","null","null","null","Warranty","Cooking power","",""
"","","","","","choice_trial_setup","html-keyboard-response","116","2924446","0.0-5.0-0.16","53","1","2025-04-11 14:19:37","bb671e3ae32f654b8954ea4c4635f915","","Mozilla/5.0 (Windows NT 10.0; WOW64) AppleWebKit/537.36 (KHTML, like Gecko) Chrome/127.0.0.0 Safari/537.36","WebKit","Chrome","127.0.0.0","Windows","10.0","https://hz8g1ckzuq.cognition.run/","en,en-US","3fve1ydw4mezqu8","62","[""Black or African-American""]","No","Male","3304820.899999976","null","","<p></p>","null","choice","bww","catch","null","laptops","90","95","15","15","5","30","1","","","","","","","","","",""
"","","","","","choice_trial","survey-html-form","117","2927114","0.0-5.0-1.16","53","1","2025-04-11 14:19:37","bb671e3ae32f654b8954ea4c4635f915","","Mozilla/5.0 (Windows NT 10.0; WOW64) AppleWebKit/537.36 (KHTML, like Gecko) Chrome/127.0.0.0 Safari/537.36","WebKit","Chrome","127.0.0.0","Windows","10.0","https://hz8g1ckzuq.cognition.run/","en,en-US","3fve1ydw4mezqu8","62","[""Black or African-American""]","No","Male","3304820.899999976","2656","","","{""product_choice"":""A""}","choice","bww","catch","null","laptops","90","95","15","15","5","30","1","null","null","null","null","null","null","Processing speed","Memory (RAM)","",""
"","","","","","choice_trial_setup","html-keyboard-response","118","2927440","0.0-5.0-0.17","53","1","2025-04-11 14:19:37","bb671e3ae32f654b8954ea4c4635f915","","Mozilla/5.0 (Windows NT 10.0; WOW64) AppleWebKit/537.36 (KHTML, like Gecko) Chrome/127.0.0.0 Safari/537.36","WebKit","Chrome","127.0.0.0","Windows","10.0","https://hz8g1ckzuq.cognition.run/","en,en-US","3fve1ydw4mezqu8","62","[""Black or African-American""]","No","Male","3304820.899999976","null","","<p></p>","null","choice","tdc","attraction_1","2","microwave ovens","null","null","null","null","null","null","2","","","","","","","","","",""
"","","","","","choice_trial","survey-html-form","119","2932589","0.0-5.0-1.17","53","1","2025-04-11 14:19:37","bb671e3ae32f654b8954ea4c4635f915","","Mozilla/5.0 (Windows NT 10.0; WOW64) AppleWebKit/537.36 (KHTML, like Gecko) Chrome/127.0.0.0 Safari/537.36","WebKit","Chrome","127.0.0.0","Windows","10.0","https://hz8g1ckzuq.cognition.run/","en,en-US","3fve1ydw4mezqu8","62","[""Black or African-American""]","No","Male","3304820.899999976","5136","","","{""product_choice"":""C""}","choice","tdc","attraction_1","2","microwave ovens","null","null","null","null","null","null","2","50","60","45","60","50","60","Warranty","Cooking power","",""
"","","","","","choice_trial_setup","html-keyboard-response","120","2932906","0.0-5.0-0.18","53","1","2025-04-11 14:19:37","bb671e3ae32f654b8954ea4c4635f915","","Mozilla/5.0 (Windows NT 10.0; WOW64) AppleWebKit/537.36 (KHTML, like Gecko) Chrome/127.0.0.0 Safari/537.36","WebKit","Chrome","127.0.0.0","Windows","10.0","https://hz8g1ckzuq.cognition.run/","en,en-US","3fve1ydw4mezqu8","62","[""Black or African-American""]","No","Male","3304820.899999976","null","","<p></p>","null","choice","ctd","repulsion_1","2","laptops","null","null","null","null","null","null","1","","","","","","","","","",""
"","","","","","choice_trial","survey-html-form","121","3065177","0.0-5.0-1.18","53","1","2025-04-11 14:19:37","bb671e3ae32f654b8954ea4c4635f915","","Mozilla/5.0 (Windows NT 10.0; WOW64) AppleWebKit/537.36 (KHTML, like Gecko) Chrome/127.0.0.0 Safari/537.36","WebKit","Chrome","127.0.0.0","Windows","10.0","https://hz8g1ckzuq.cognition.run/","en,en-US","3fve1ydw4mezqu8","62","[""Black or African-American""]","No","Male","3304820.899999976","132253","","","{""product_choice"":""A""}","choice","ctd","repulsion_1","2","laptops","null","null","null","null","null","null","1","30","40","25","100","90","100","Processing speed","Memory (RAM)","",""
"","","","","","choice_trial_setup","html-keyboard-response","122","3065504","0.0-5.0-0.19","53","1","2025-04-11 14:19:37","bb671e3ae32f654b8954ea4c4635f915","","Mozilla/5.0 (Windows NT 10.0; WOW64) AppleWebKit/537.36 (KHTML, like Gecko) Chrome/127.0.0.0 Safari/537.36","WebKit","Chrome","127.0.0.0","Windows","10.0","https://hz8g1ckzuq.cognition.run/","en,en-US","3fve1ydw4mezqu8","62","[""Black or African-American""]","No","Male","3304820.899999976","null","","<p></p>","null","choice","wwb","catch","null","microwave ovens","75","95","30","15","10","20","2","","","","","","","","","",""
"","","","","","choice_trial","survey-html-form","123","3067695","0.0-5.0-1.19","53","1","2025-04-11 14:19:37","bb671e3ae32f654b8954ea4c4635f915","","Mozilla/5.0 (Windows NT 10.0; WOW64) AppleWebKit/537.36 (KHTML, like Gecko) Chrome/127.0.0.0 Safari/537.36","WebKit","Chrome","127.0.0.0","Windows","10.0","https://hz8g1ckzuq.cognition.run/","en,en-US","3fve1ydw4mezqu8","62","[""Black or African-American""]","No","Male","3304820.899999976","2168","","","{""product_choice"":""C""}","choice","wwb","catch","null","microwave ovens","75","95","30","15","10","20","2","null","null","null","null","null","null","Warranty","Cooking power","",""
"","","","","","choice_trial_setup","html-keyboard-response","124","3068009","0.0-5.0-0.20","53","1","2025-04-11 14:19:37","bb671e3ae32f654b8954ea4c4635f915","","Mozilla/5.0 (Windows NT 10.0; WOW64) AppleWebKit/537.36 (KHTML, like Gecko) Chrome/127.0.0.0 Safari/537.36","WebKit","Chrome","127.0.0.0","Windows","10.0","https://hz8g1ckzuq.cognition.run/","en,en-US","3fve1ydw4mezqu8","62","[""Black or African-American""]","No","Male","3304820.899999976","null","","<p></p>","null","choice","tcd","attraction_1","1","laptops","null","null","null","null","null","null","2","","","","","","","","","",""
"","","","","","choice_trial","survey-html-form","125","3072800","0.0-5.0-1.20","53","1","2025-04-11 14:19:37","bb671e3ae32f654b8954ea4c4635f915","","Mozilla/5.0 (Windows NT 10.0; WOW64) AppleWebKit/537.36 (KHTML, like Gecko) Chrome/127.0.0.0 Safari/537.36","WebKit","Chrome","127.0.0.0","Windows","10.0","https://hz8g1ckzuq.cognition.run/","en,en-US","3fve1ydw4mezqu8","62","[""Black or African-American""]","No","Male","3304820.899999976","4776","","","{""product_choice"":""A""}","choice","tcd","attraction_1","1","laptops","null","null","null","null","null","null","2","60","50","60","50","60","45","Processing speed","Memory (RAM)","",""
"","","","","","choice_trial_setup","html-keyboard-response","126","3073115","0.0-5.0-0.21","53","1","2025-04-11 14:19:37","bb671e3ae32f654b8954ea4c4635f915","","Mozilla/5.0 (Windows NT 10.0; WOW64) AppleWebKit/537.36 (KHTML, like Gecko) Chrome/127.0.0.0 Safari/537.36","WebKit","Chrome","127.0.0.0","Windows","10.0","https://hz8g1ckzuq.cognition.run/","en,en-US","3fve1ydw4mezqu8","62","[""Black or African-American""]","No","Male","3304820.899999976","null","","<p></p>","null","choice","cdt","repulsion_2","1","laptops","null","null","null","null","null","null","2","","","","","","","","","",""
"","","","","","choice_trial","survey-html-form","127","3078082","0.0-5.0-1.21","53","1","2025-04-11 14:19:37","bb671e3ae32f654b8954ea4c4635f915","","Mozilla/5.0 (Windows NT 10.0; WOW64) AppleWebKit/537.36 (KHTML, like Gecko) Chrome/127.0.0.0 Safari/537.36","WebKit","Chrome","127.0.0.0","Windows","10.0","https://hz8g1ckzuq.cognition.run/","en,en-US","3fve1ydw4mezqu8","62","[""Black or African-American""]","No","Male","3304820.899999976","4950","","","{""product_choice"":""A""}","choice","cdt","repulsion_2","1","laptops","null","null","null","null","null","null","2","100","90","100","30","40","20","Processing speed","Memory (RAM)","",""
"","","","","","choice_trial_setup","html-keyboard-response","128","3078399","0.0-5.0-0.22","53","1","2025-04-11 14:19:37","bb671e3ae32f654b8954ea4c4635f915","","Mozilla/5.0 (Windows NT 10.0; WOW64) AppleWebKit/537.36 (KHTML, like Gecko) Chrome/127.0.0.0 Safari/537.36","WebKit","Chrome","127.0.0.0","Windows","10.0","https://hz8g1ckzuq.cognition.run/","en,en-US","3fve1ydw4mezqu8","62","[""Black or African-American""]","No","Male","3304820.899999976","null","","<p></p>","null","choice","tdc","attraction_2","1","laptops","null","null","null","null","null","null","1","","","","","","","","","",""
"","","","","","choice_trial","survey-html-form","129","3082522","0.0-5.0-1.22","53","1","2025-04-11 14:19:37","bb671e3ae32f654b8954ea4c4635f915","","Mozilla/5.0 (Windows NT 10.0; WOW64) AppleWebKit/537.36 (KHTML, like Gecko) Chrome/127.0.0.0 Safari/537.36","WebKit","Chrome","127.0.0.0","Windows","10.0","https://hz8g1ckzuq.cognition.run/","en,en-US","3fve1ydw4mezqu8","62","[""Black or African-American""]","No","Male","3304820.899999976","4106","","","{""product_choice"":""A""}","choice","tdc","attraction_2","1","laptops","null","null","null","null","null","null","1","60","50","60","50","60","40","Processing speed","Memory (RAM)","",""
"","","","","","choice_trial_setup","html-keyboard-response","130","3082838","0.0-5.0-0.23","53","1","2025-04-11 14:19:37","bb671e3ae32f654b8954ea4c4635f915","","Mozilla/5.0 (Windows NT 10.0; WOW64) AppleWebKit/537.36 (KHTML, like Gecko) Chrome/127.0.0.0 Safari/537.36","WebKit","Chrome","127.0.0.0","Windows","10.0","https://hz8g1ckzuq.cognition.run/","en,en-US","3fve1ydw4mezqu8","62","[""Black or African-American""]","No","Male","3304820.899999976","null","","<p></p>","null","choice","ctd","attraction_1","2","laptops","null","null","null","null","null","null","2","","","","","","","","","",""
"","","","","","choice_trial","survey-html-form","131","3088111","0.0-5.0-1.23","53","1","2025-04-11 14:19:37","bb671e3ae32f654b8954ea4c4635f915","","Mozilla/5.0 (Windows NT 10.0; WOW64) AppleWebKit/537.36 (KHTML, like Gecko) Chrome/127.0.0.0 Safari/537.36","WebKit","Chrome","127.0.0.0","Windows","10.0","https://hz8g1ckzuq.cognition.run/","en,en-US","3fve1ydw4mezqu8","62","[""Black or African-American""]","No","Male","3304820.899999976","5255","","","{""product_choice"":""A""}","choice","ctd","attraction_1","2","laptops","null","null","null","null","null","null","2","50","60","45","60","50","60","Processing speed","Memory (RAM)","",""
"","","","","","choice_trial_setup","html-keyboard-response","132","3088424","0.0-5.0-0.24","53","1","2025-04-11 14:19:37","bb671e3ae32f654b8954ea4c4635f915","","Mozilla/5.0 (Windows NT 10.0; WOW64) AppleWebKit/537.36 (KHTML, like Gecko) Chrome/127.0.0.0 Safari/537.36","WebKit","Chrome","127.0.0.0","Windows","10.0","https://hz8g1ckzuq.cognition.run/","en,en-US","3fve1ydw4mezqu8","62","[""Black or African-American""]","No","Male","3304820.899999976","null","","<p></p>","null","choice","cdt","repulsion_2","2","washing machines","null","null","null","null","null","null","1","","","","","","","","","",""
"","","","","","choice_trial","survey-html-form","133","3090813","0.0-5.0-1.24","53","1","2025-04-11 14:19:37","bb671e3ae32f654b8954ea4c4635f915","","Mozilla/5.0 (Windows NT 10.0; WOW64) AppleWebKit/537.36 (KHTML, like Gecko) Chrome/127.0.0.0 Safari/537.36","WebKit","Chrome","127.0.0.0","Windows","10.0","https://hz8g1ckzuq.cognition.run/","en,en-US","3fve1ydw4mezqu8","62","[""Black or African-American""]","No","Male","3304820.899999976","2371","","","{""product_choice"":""A""}","choice","cdt","repulsion_2","2","washing machines","null","null","null","null","null","null","1","30","40","20","100","90","100","Average lifespan","Energy savings","",""
"","","","","","choice_trial_setup","html-keyboard-response","134","3091142","0.0-5.0-0.25","53","1","2025-04-11 14:19:37","bb671e3ae32f654b8954ea4c4635f915","","Mozilla/5.0 (Windows NT 10.0; WOW64) AppleWebKit/537.36 (KHTML, like Gecko) Chrome/127.0.0.0 Safari/537.36","WebKit","Chrome","127.0.0.0","Windows","10.0","https://hz8g1ckzuq.cognition.run/","en,en-US","3fve1ydw4mezqu8","62","[""Black or African-American""]","No","Male","3304820.899999976","null","","<p></p>","null","choice","dct","repulsion_2","2","televisions","null","null","null","null","null","null","1","","","","","","","","","",""
"","","","","","choice_trial","survey-html-form","135","3094896","0.0-5.0-1.25","53","1","2025-04-11 14:19:37","bb671e3ae32f654b8954ea4c4635f915","","Mozilla/5.0 (Windows NT 10.0; WOW64) AppleWebKit/537.36 (KHTML, like Gecko) Chrome/127.0.0.0 Safari/537.36","WebKit","Chrome","127.0.0.0","Windows","10.0","https://hz8g1ckzuq.cognition.run/","en,en-US","3fve1ydw4mezqu8","62","[""Black or African-American""]","No","Male","3304820.899999976","3740","","","{""product_choice"":""B""}","choice","dct","repulsion_2","2","televisions","null","null","null","null","null","null","1","30","40","20","100","90","100","Screen size","Average lifespan","",""
"","","","","","choice_trial_setup","html-keyboard-response","136","3095218","0.0-5.0-0.26","53","1","2025-04-11 14:19:37","bb671e3ae32f654b8954ea4c4635f915","","Mozilla/5.0 (Windows NT 10.0; WOW64) AppleWebKit/537.36 (KHTML, like Gecko) Chrome/127.0.0.0 Safari/537.36","WebKit","Chrome","127.0.0.0","Windows","10.0","https://hz8g1ckzuq.cognition.run/","en,en-US","3fve1ydw4mezqu8","62","[""Black or African-American""]","No","Male","3304820.899999976","null","","<p></p>","null","choice","dct","attraction_1","1","televisions","null","null","null","null","null","null","2","","","","","","","","","",""
"","","","","","choice_trial","survey-html-form","137","3100167","0.0-5.0-1.26","53","1","2025-04-11 14:19:37","bb671e3ae32f654b8954ea4c4635f915","","Mozilla/5.0 (Windows NT 10.0; WOW64) AppleWebKit/537.36 (KHTML, like Gecko) Chrome/127.0.0.0 Safari/537.36","WebKit","Chrome","127.0.0.0","Windows","10.0","https://hz8g1ckzuq.cognition.run/","en,en-US","3fve1ydw4mezqu8","62","[""Black or African-American""]","No","Male","3304820.899999976","4940","","","{""product_choice"":""B""}","choice","dct","attraction_1","1","televisions","null","null","null","null","null","null","2","60","50","60","50","60","45","Screen size","Average lifespan","",""
"","","","","","choice_trial_setup","html-keyboard-response","138","3100495","0.0-5.0-0.27","53","1","2025-04-11 14:19:37","bb671e3ae32f654b8954ea4c4635f915","","Mozilla/5.0 (Windows NT 10.0; WOW64) AppleWebKit/537.36 (KHTML, like Gecko) Chrome/127.0.0.0 Safari/537.36","WebKit","Chrome","127.0.0.0","Windows","10.0","https://hz8g1ckzuq.cognition.run/","en,en-US","3fve1ydw4mezqu8","62","[""Black or African-American""]","No","Male","3304820.899999976","null","","<p></p>","null","choice","tcd","repulsion_1","1","washing machines","null","null","null","null","null","null","1","","","","","","","","","",""
"","","","","","choice_trial","survey-html-form","139","3102661","0.0-5.0-1.27","53","1","2025-04-11 14:19:37","bb671e3ae32f654b8954ea4c4635f915","","Mozilla/5.0 (Windows NT 10.0; WOW64) AppleWebKit/537.36 (KHTML, like Gecko) Chrome/127.0.0.0 Safari/537.36","WebKit","Chrome","127.0.0.0","Windows","10.0","https://hz8g1ckzuq.cognition.run/","en,en-US","3fve1ydw4mezqu8","62","[""Black or African-American""]","No","Male","3304820.899999976","2147","","","{""product_choice"":""B""}","choice","tcd","repulsion_1","1","washing machines","null","null","null","null","null","null","1","100","90","100","30","40","25","Average lifespan","Energy savings","",""
"","","","","","choice_trial_setup","html-keyboard-response","140","3102977","0.0-5.0-0.28","53","1","2025-04-11 14:19:37","bb671e3ae32f654b8954ea4c4635f915","","Mozilla/5.0 (Windows NT 10.0; WOW64) AppleWebKit/537.36 (KHTML, like Gecko) Chrome/127.0.0.0 Safari/537.36","WebKit","Chrome","127.0.0.0","Windows","10.0","https://hz8g1ckzuq.cognition.run/","en,en-US","3fve1ydw4mezqu8","62","[""Black or African-American""]","No","Male","3304820.899999976","null","","<p></p>","null","choice","tcd","repulsion_1","2","televisions","null","null","null","null","null","null","2","","","","","","","","","",""
"","","","","","choice_trial","survey-html-form","141","3104914","0.0-5.0-1.28","53","1","2025-04-11 14:19:37","bb671e3ae32f654b8954ea4c4635f915","","Mozilla/5.0 (Windows NT 10.0; WOW64) AppleWebKit/537.36 (KHTML, like Gecko) Chrome/127.0.0.0 Safari/537.36","WebKit","Chrome","127.0.0.0","Windows","10.0","https://hz8g1ckzuq.cognition.run/","en,en-US","3fve1ydw4mezqu8","62","[""Black or African-American""]","No","Male","3304820.899999976","1929","","","{""product_choice"":""B""}","choice","tcd","repulsion_1","2","televisions","null","null","null","null","null","null","2","30","40","25","100","90","100","Screen size","Average lifespan","",""
"","","","","","choice_trial_setup","html-keyboard-response","142","3105240","0.0-5.0-0.29","53","1","2025-04-11 14:19:37","bb671e3ae32f654b8954ea4c4635f915","","Mozilla/5.0 (Windows NT 10.0; WOW64) AppleWebKit/537.36 (KHTML, like Gecko) Chrome/127.0.0.0 Safari/537.36","WebKit","Chrome","127.0.0.0","Windows","10.0","https://hz8g1ckzuq.cognition.run/","en,en-US","3fve1ydw4mezqu8","62","[""Black or African-American""]","No","Male","3304820.899999976","null","","<p></p>","null","choice","cdt","attraction_2","1","microwave ovens","null","null","null","null","null","null","2","","","","","","","","","",""
"","","","","","choice_trial","survey-html-form","143","3111316","0.0-5.0-1.29","53","1","2025-04-11 14:19:37","bb671e3ae32f654b8954ea4c4635f915","","Mozilla/5.0 (Windows NT 10.0; WOW64) AppleWebKit/537.36 (KHTML, like Gecko) Chrome/127.0.0.0 Safari/537.36","WebKit","Chrome","127.0.0.0","Windows","10.0","https://hz8g1ckzuq.cognition.run/","en,en-US","3fve1ydw4mezqu8","62","[""Black or African-American""]","No","Male","3304820.899999976","6060","","","{""product_choice"":""C""}","choice","cdt","attraction_2","1","microwave ovens","null","null","null","null","null","null","2","60","50","60","50","60","40","Warranty","Cooking power","",""
"","","","","","choice_trial_setup","html-keyboard-response","144","3111631","0.0-5.0-0.30","53","1","2025-04-11 14:19:37","bb671e3ae32f654b8954ea4c4635f915","","Mozilla/5.0 (Windows NT 10.0; WOW64) AppleWebKit/537.36 (KHTML, like Gecko) Chrome/127.0.0.0 Safari/537.36","WebKit","Chrome","127.0.0.0","Windows","10.0","https://hz8g1ckzuq.cognition.run/","en,en-US","3fve1ydw4mezqu8","62","[""Black or African-American""]","No","Male","3304820.899999976","null","","<p></p>","null","choice","cdt","repulsion_2","1","televisions","null","null","null","null","null","null","2","","","","","","","","","",""
"","","","","","choice_trial","survey-html-form","145","3115957","0.0-5.0-1.30","53","1","2025-04-11 14:19:37","bb671e3ae32f654b8954ea4c4635f915","","Mozilla/5.0 (Windows NT 10.0; WOW64) AppleWebKit/537.36 (KHTML, like Gecko) Chrome/127.0.0.0 Safari/537.36","WebKit","Chrome","127.0.0.0","Windows","10.0","https://hz8g1ckzuq.cognition.run/","en,en-US","3fve1ydw4mezqu8","62","[""Black or African-American""]","No","Male","3304820.899999976","4309","","","{""product_choice"":""A""}","choice","cdt","repulsion_2","1","televisions","null","null","null","null","null","null","2","100","90","100","30","40","20","Screen size","Average lifespan","",""
"","","","","","choice_trial_setup","html-keyboard-response","146","3116276","0.0-5.0-0.31","53","1","2025-04-11 14:19:37","bb671e3ae32f654b8954ea4c4635f915","","Mozilla/5.0 (Windows NT 10.0; WOW64) AppleWebKit/537.36 (KHTML, like Gecko) Chrome/127.0.0.0 Safari/537.36","WebKit","Chrome","127.0.0.0","Windows","10.0","https://hz8g1ckzuq.cognition.run/","en,en-US","3fve1ydw4mezqu8","62","[""Black or African-American""]","No","Male","3304820.899999976","null","","<p></p>","null","choice","dtc","attraction_1","2","washing machines","null","null","null","null","null","null","1","","","","","","","","","",""
"","","","","","choice_trial","survey-html-form","147","3123613","0.0-5.0-1.31","53","1","2025-04-11 14:19:37","bb671e3ae32f654b8954ea4c4635f915","","Mozilla/5.0 (Windows NT 10.0; WOW64) AppleWebKit/537.36 (KHTML, like Gecko) Chrome/127.0.0.0 Safari/537.36","WebKit","Chrome","127.0.0.0","Windows","10.0","https://hz8g1ckzuq.cognition.run/","en,en-US","3fve1ydw4mezqu8","62","[""Black or African-American""]","No","Male","3304820.899999976","7319","","","{""product_choice"":""C""}","choice","dtc","attraction_1","2","washing machines","null","null","null","null","null","null","1","50","60","45","60","50","60","Average lifespan","Energy savings","",""
"","","","","","choice_trial_setup","html-keyboard-response","148","3123931","0.0-5.0-0.32","53","1","2025-04-11 14:19:37","bb671e3ae32f654b8954ea4c4635f915","","Mozilla/5.0 (Windows NT 10.0; WOW64) AppleWebKit/537.36 (KHTML, like Gecko) Chrome/127.0.0.0 Safari/537.36","WebKit","Chrome","127.0.0.0","Windows","10.0","https://hz8g1ckzuq.cognition.run/","en,en-US","3fve1ydw4mezqu8","62","[""Black or African-American""]","No","Male","3304820.899999976","null","","<p></p>","null","choice","wbw","catch","null","washing machines","80","80","5","10","35","45","1","","","","","","","","","",""
"","","","","","choice_trial","survey-html-form","149","3126146","0.0-5.0-1.32","53","1","2025-04-11 14:19:37","bb671e3ae32f654b8954ea4c4635f915","","Mozilla/5.0 (Windows NT 10.0; WOW64) AppleWebKit/537.36 (KHTML, like Gecko) Chrome/127.0.0.0 Safari/537.36","WebKit","Chrome","127.0.0.0","Windows","10.0","https://hz8g1ckzuq.cognition.run/","en,en-US","3fve1ydw4mezqu8","62","[""Black or African-American""]","No","Male","3304820.899999976","2204","","","{""product_choice"":""B""}","choice","wbw","catch","null","washing machines","80","80","5","10","35","45","1","null","null","null","null","null","null","Average lifespan","Energy savings","",""
"","","","","","choice_trial_setup","html-keyboard-response","150","3126471","0.0-5.0-0.33","53","1","2025-04-11 14:19:37","bb671e3ae32f654b8954ea4c4635f915","","Mozilla/5.0 (Windows NT 10.0; WOW64) AppleWebKit/537.36 (KHTML, like Gecko) Chrome/127.0.0.0 Safari/537.36","WebKit","Chrome","127.0.0.0","Windows","10.0","https://hz8g1ckzuq.cognition.run/","en,en-US","3fve1ydw4mezqu8","62","[""Black or African-American""]","No","Male","3304820.899999976","null","","<p></p>","null","choice","tdc","attraction_2","2","washing machines","null","null","null","null","null","null","2","","","","","","","","","",""
"","","","","","choice_trial","survey-html-form","151","3131842","0.0-5.0-1.33","53","1","2025-04-11 14:19:37","bb671e3ae32f654b8954ea4c4635f915","","Mozilla/5.0 (Windows NT 10.0; WOW64) AppleWebKit/537.36 (KHTML, like Gecko) Chrome/127.0.0.0 Safari/537.36","WebKit","Chrome","127.0.0.0","Windows","10.0","https://hz8g1ckzuq.cognition.run/","en,en-US","3fve1ydw4mezqu8","62","[""Black or African-American""]","No","Male","3304820.899999976","5360","","","{""product_choice"":""C""}","choice","tdc","attraction_2","2","washing machines","null","null","null","null","null","null","2","50","60","40","60","50","60","Average lifespan","Energy savings","",""
"","","","","","choice_trial_setup","html-keyboard-response","152","3132171","0.0-5.0-0.34","53","1","2025-04-11 14:19:37","bb671e3ae32f654b8954ea4c4635f915","","Mozilla/5.0 (Windows NT 10.0; WOW64) AppleWebKit/537.36 (KHTML, like Gecko) Chrome/127.0.0.0 Safari/537.36","WebKit","Chrome","127.0.0.0","Windows","10.0","https://hz8g1ckzuq.cognition.run/","en,en-US","3fve1ydw4mezqu8","62","[""Black or African-American""]","No","Male","3304820.899999976","null","","<p></p>","null","choice","ctd","repulsion_2","1","microwave ovens","null","null","null","null","null","null","2","","","","","","","","","",""
"","","","","","choice_trial","survey-html-form","153","3135103","0.0-5.0-1.34","53","1","2025-04-11 14:19:37","bb671e3ae32f654b8954ea4c4635f915","","Mozilla/5.0 (Windows NT 10.0; WOW64) AppleWebKit/537.36 (KHTML, like Gecko) Chrome/127.0.0.0 Safari/537.36","WebKit","Chrome","127.0.0.0","Windows","10.0","https://hz8g1ckzuq.cognition.run/","en,en-US","3fve1ydw4mezqu8","62","[""Black or African-American""]","No","Male","3304820.899999976","2922","","","{""product_choice"":""A""}","choice","ctd","repulsion_2","1","microwave ovens","null","null","null","null","null","null","2","100","90","100","30","40","20","Warranty","Cooking power","",""
"","","","","","choice_trial_setup","html-keyboard-response","154","3135427","0.0-5.0-0.35","53","1","2025-04-11 14:19:37","bb671e3ae32f654b8954ea4c4635f915","","Mozilla/5.0 (Windows NT 10.0; WOW64) AppleWebKit/537.36 (KHTML, like Gecko) Chrome/127.0.0.0 Safari/537.36","WebKit","Chrome","127.0.0.0","Windows","10.0","https://hz8g1ckzuq.cognition.run/","en,en-US","3fve1ydw4mezqu8","62","[""Black or African-American""]","No","Male","3304820.899999976","null","","<p></p>","null","choice","dct","attraction_1","1","microwave ovens","null","null","null","null","null","null","1","","","","","","","","","",""
"","","","","","choice_trial","survey-html-form","155","3140394","0.0-5.0-1.35","53","1","2025-04-11 14:19:37","bb671e3ae32f654b8954ea4c4635f915","","Mozilla/5.0 (Windows NT 10.0; WOW64) AppleWebKit/537.36 (KHTML, like Gecko) Chrome/127.0.0.0 Safari/537.36","WebKit","Chrome","127.0.0.0","Windows","10.0","https://hz8g1ckzuq.cognition.run/","en,en-US","3fve1ydw4mezqu8","62","[""Black or African-American""]","No","Male","3304820.899999976","4957","","","{""product_choice"":""C""}","choice","dct","attraction_1","1","microwave ovens","null","null","null","null","null","null","1","60","50","60","50","60","45","Warranty","Cooking power","",""
