"success","timeout","failed_images","failed_audio","failed_video","screen_id","trial_type","trial_index","time_elapsed","internal_node_id","run_id","condition","recorded_at","source_code_version","ip","user_agent","device","browser","browser_version","platform","platform_version","referer","accept_language","ppt_id","age","race","ethnicity","gender","exp_duration","rt","view_history","stimulus","response","phase","order","effect","t_high","category","d1_best","d2_best","d1_worst1","d2_worst1","d1_worst2","d2_worst2","first_dim","d1_t","d1_c","d1_d","d2_t","d2_c","d2_d","d1_name","d2_name","strategy_response","question_order"
"true","false","[]","[]","[]","img preload","preload","0","325","0.0-0.0","55","1","2025-04-11 14:20:36","bb671e3ae32f654b8954ea4c4635f915","","Mozilla/5.0 (X11; CrOS x86_64 14541.0.0) AppleWebKit/537.36 (KHTML, like Gecko) Chrome/134.0.0.0 Safari/537.36","WebKit","Chrome","134.0.0.0","ChromeOS","14541.0.0","https://hz8g1ckzuq.cognition.run/","en-US,en;q=0.9","ye3jehyxga7unal","68","[""White""]","No","Female","1099066.5999999996","","","","","","","","","","","","","","","","","","","","","","","","","",""
"true","","","","","","fullscreen","1","4674","0.0-1.0","55","1","2025-04-11 14:20:36","bb671e3ae32f654b8954ea4c4635f915","","Mozilla/5.0 (X11; CrOS x86_64 14541.0.0) AppleWebKit/537.36 (KHTML, like Gecko) Chrome/134.0.0.0 Safari/537.36","WebKit","Chrome","134.0.0.0","ChromeOS","14541.0.0","https://hz8g1ckzuq.cognition.run/","en-US,en;q=0.9","ye3jehyxga7unal","68","[""White""]","No","Female","1099066.5999999996","3344","","","","","","","","","","","","","","","","","","","","","","","","",""
"","","","","","","instructions","2","89317","0.0-2.0","55","1","2025-04-11 14:20:36","bb671e3ae32f654b8954ea4c4635f915","","Mozilla/5.0 (X11; CrOS x86_64 14541.0.0) AppleWebKit/537.36 (KHTML, like Gecko) Chrome/134.0.0.0 Safari/537.36","WebKit","Chrome","134.0.0.0","ChromeOS","14541.0.0","https://hz8g1ckzuq.cognition.run/","en-US,en;q=0.9","ye3jehyxga7unal","68","[""White""]","No","Female","1099066.5999999996","84640","[{""page_index"":0,""viewing_time"":2609},{""page_index"":1,""viewing_time"":2672},{""page_index"":2,""viewing_time"":5546},{""page_index"":3,""viewing_time"":5484},{""page_index"":4,""viewing_time"":8408},{""page_index"":5,""viewing_time"":6062},{""page_index"":6,""viewing_time"":6559},{""page_index"":7,""viewing_time"":23738},{""page_index"":8,""viewing_time"":19468},{""page_index"":9,""viewing_time"":4094}]","","","","","","","","","","","","","","","","","","","","","","","",""
"","","","","","rating_trial_setup","html-keyboard-response","3","89627","0.0-3.0-0.0","55","1","2025-04-11 14:20:36","bb671e3ae32f654b8954ea4c4635f915","","Mozilla/5.0 (X11; CrOS x86_64 14541.0.0) AppleWebKit/537.36 (KHTML, like Gecko) Chrome/134.0.0.0 Safari/537.36","WebKit","Chrome","134.0.0.0","ChromeOS","14541.0.0","https://hz8g1ckzuq.cognition.run/","en-US,en;q=0.9","ye3jehyxga7unal","68","[""White""]","No","Female","1099066.5999999996","null","","<p></p>","null","rating","cdt","attraction_2","1","microwave ovens","null","null","null","null","null","null","2","","","","","","","","","",""
"","","","","","rating_trial","survey-html-form","4","127298","0.0-3.0-1.0","55","1","2025-04-11 14:20:36","bb671e3ae32f654b8954ea4c4635f915","","Mozilla/5.0 (X11; CrOS x86_64 14541.0.0) AppleWebKit/537.36 (KHTML, like Gecko) Chrome/134.0.0.0 Safari/537.36","WebKit","Chrome","134.0.0.0","ChromeOS","14541.0.0","https://hz8g1ckzuq.cognition.run/","en-US,en;q=0.9","ye3jehyxga7unal","68","[""White""]","No","Female","1099066.5999999996","37664","","","{""price_1"":""100"",""price_2"":""60"",""price_3"":""100""}","rating","cdt","attraction_2","1","microwave ovens","null","null","null","null","null","null","2","60","50","60","50","60","40","Warranty","Cooking power","",""
"","","","","","rating_trial_setup","html-keyboard-response","5","127600","0.0-3.0-0.1","55","1","2025-04-11 14:20:36","bb671e3ae32f654b8954ea4c4635f915","","Mozilla/5.0 (X11; CrOS x86_64 14541.0.0) AppleWebKit/537.36 (KHTML, like Gecko) Chrome/134.0.0.0 Safari/537.36","WebKit","Chrome","134.0.0.0","ChromeOS","14541.0.0","https://hz8g1ckzuq.cognition.run/","en-US,en;q=0.9","ye3jehyxga7unal","68","[""White""]","No","Female","1099066.5999999996","null","","<p></p>","null","rating","wwb","catch","null","laptops","80","75","40","25","45","50","2","","","","","","","","","",""
"","","","","","rating_trial","survey-html-form","6","146462","0.0-3.0-1.1","55","1","2025-04-11 14:20:36","bb671e3ae32f654b8954ea4c4635f915","","Mozilla/5.0 (X11; CrOS x86_64 14541.0.0) AppleWebKit/537.36 (KHTML, like Gecko) Chrome/134.0.0.0 Safari/537.36","WebKit","Chrome","134.0.0.0","ChromeOS","14541.0.0","https://hz8g1ckzuq.cognition.run/","en-US,en;q=0.9","ye3jehyxga7unal","68","[""White""]","No","Female","1099066.5999999996","18860","","","{""price_1"":""100"",""price_2"":""150"",""price_3"":""400""}","rating","wwb","catch","null","laptops","80","75","40","25","45","50","2","null","null","null","null","null","null","Processing speed","Memory (RAM)","",""
"","","","","","rating_trial_setup","html-keyboard-response","7","146764","0.0-3.0-0.2","55","1","2025-04-11 14:20:36","bb671e3ae32f654b8954ea4c4635f915","","Mozilla/5.0 (X11; CrOS x86_64 14541.0.0) AppleWebKit/537.36 (KHTML, like Gecko) Chrome/134.0.0.0 Safari/537.36","WebKit","Chrome","134.0.0.0","ChromeOS","14541.0.0","https://hz8g1ckzuq.cognition.run/","en-US,en;q=0.9","ye3jehyxga7unal","68","[""White""]","No","Female","1099066.5999999996","null","","<p></p>","null","rating","cdt","attraction_2","2","microwave ovens","null","null","null","null","null","null","2","","","","","","","","","",""
"","","","","","rating_trial","survey-html-form","8","170520","0.0-3.0-1.2","55","1","2025-04-11 14:20:36","bb671e3ae32f654b8954ea4c4635f915","","Mozilla/5.0 (X11; CrOS x86_64 14541.0.0) AppleWebKit/537.36 (KHTML, like Gecko) Chrome/134.0.0.0 Safari/537.36","WebKit","Chrome","134.0.0.0","ChromeOS","14541.0.0","https://hz8g1ckzuq.cognition.run/","en-US,en;q=0.9","ye3jehyxga7unal","68","[""White""]","No","Female","1099066.5999999996","23754","","","{""price_1"":""100"",""price_2"":""90"",""price_3"":""100""}","rating","cdt","attraction_2","2","microwave ovens","null","null","null","null","null","null","2","50","60","40","60","50","60","Warranty","Cooking power","",""
"","","","","","rating_trial_setup","html-keyboard-response","9","170825","0.0-3.0-0.3","55","1","2025-04-11 14:20:36","bb671e3ae32f654b8954ea4c4635f915","","Mozilla/5.0 (X11; CrOS x86_64 14541.0.0) AppleWebKit/537.36 (KHTML, like Gecko) Chrome/134.0.0.0 Safari/537.36","WebKit","Chrome","134.0.0.0","ChromeOS","14541.0.0","https://hz8g1ckzuq.cognition.run/","en-US,en;q=0.9","ye3jehyxga7unal","68","[""White""]","No","Female","1099066.5999999996","null","","<p></p>","null","rating","tcd","repulsion_1","1","microwave ovens","null","null","null","null","null","null","1","","","","","","","","","",""
"","","","","","rating_trial","survey-html-form","10","185832","0.0-3.0-1.3","55","1","2025-04-11 14:20:36","bb671e3ae32f654b8954ea4c4635f915","","Mozilla/5.0 (X11; CrOS x86_64 14541.0.0) AppleWebKit/537.36 (KHTML, like Gecko) Chrome/134.0.0.0 Safari/537.36","WebKit","Chrome","134.0.0.0","ChromeOS","14541.0.0","https://hz8g1ckzuq.cognition.run/","en-US,en;q=0.9","ye3jehyxga7unal","68","[""White""]","No","Female","1099066.5999999996","15005","","","{""price_1"":""200"",""price_2"":""175"",""price_3"":""200""}","rating","tcd","repulsion_1","1","microwave ovens","null","null","null","null","null","null","1","100","90","100","30","40","25","Warranty","Cooking power","",""
"","","","","","rating_trial_setup","html-keyboard-response","11","186134","0.0-3.0-0.4","55","1","2025-04-11 14:20:36","bb671e3ae32f654b8954ea4c4635f915","","Mozilla/5.0 (X11; CrOS x86_64 14541.0.0) AppleWebKit/537.36 (KHTML, like Gecko) Chrome/134.0.0.0 Safari/537.36","WebKit","Chrome","134.0.0.0","ChromeOS","14541.0.0","https://hz8g1ckzuq.cognition.run/","en-US,en;q=0.9","ye3jehyxga7unal","68","[""White""]","No","Female","1099066.5999999996","null","","<p></p>","null","rating","wbw","catch","null","microwave ovens","95","85","15","30","25","5","2","","","","","","","","","",""
"","","","","","rating_trial","survey-html-form","12","203356","0.0-3.0-1.4","55","1","2025-04-11 14:20:36","bb671e3ae32f654b8954ea4c4635f915","","Mozilla/5.0 (X11; CrOS x86_64 14541.0.0) AppleWebKit/537.36 (KHTML, like Gecko) Chrome/134.0.0.0 Safari/537.36","WebKit","Chrome","134.0.0.0","ChromeOS","14541.0.0","https://hz8g1ckzuq.cognition.run/","en-US,en;q=0.9","ye3jehyxga7unal","68","[""White""]","No","Female","1099066.5999999996","17220","","","{""price_1"":""50"",""price_2"":""175"",""price_3"":""30""}","rating","wbw","catch","null","microwave ovens","95","85","15","30","25","5","2","null","null","null","null","null","null","Warranty","Cooking power","",""
"","","","","","rating_trial_setup","html-keyboard-response","13","203658","0.0-3.0-0.5","55","1","2025-04-11 14:20:36","bb671e3ae32f654b8954ea4c4635f915","","Mozilla/5.0 (X11; CrOS x86_64 14541.0.0) AppleWebKit/537.36 (KHTML, like Gecko) Chrome/134.0.0.0 Safari/537.36","WebKit","Chrome","134.0.0.0","ChromeOS","14541.0.0","https://hz8g1ckzuq.cognition.run/","en-US,en;q=0.9","ye3jehyxga7unal","68","[""White""]","No","Female","1099066.5999999996","null","","<p></p>","null","rating","wwb","catch","null","televisions","50","50","5","50","30","10","2","","","","","","","","","",""
"","","","","","rating_trial","survey-html-form","14","228336","0.0-3.0-1.5","55","1","2025-04-11 14:20:36","bb671e3ae32f654b8954ea4c4635f915","","Mozilla/5.0 (X11; CrOS x86_64 14541.0.0) AppleWebKit/537.36 (KHTML, like Gecko) Chrome/134.0.0.0 Safari/537.36","WebKit","Chrome","134.0.0.0","ChromeOS","14541.0.0","https://hz8g1ckzuq.cognition.run/","en-US,en;q=0.9","ye3jehyxga7unal","68","[""White""]","No","Female","1099066.5999999996","24676","","","{""price_1"":""85"",""price_2"":""25"",""price_3"":""100""}","rating","wwb","catch","null","televisions","50","50","5","50","30","10","2","null","null","null","null","null","null","Screen size","Average lifespan","",""
"","","","","","rating_trial_setup","html-keyboard-response","15","228638","0.0-3.0-0.6","55","1","2025-04-11 14:20:36","bb671e3ae32f654b8954ea4c4635f915","","Mozilla/5.0 (X11; CrOS x86_64 14541.0.0) AppleWebKit/537.36 (KHTML, like Gecko) Chrome/134.0.0.0 Safari/537.36","WebKit","Chrome","134.0.0.0","ChromeOS","14541.0.0","https://hz8g1ckzuq.cognition.run/","en-US,en;q=0.9","ye3jehyxga7unal","68","[""White""]","No","Female","1099066.5999999996","null","","<p></p>","null","rating","bww","catch","null","washing machines","90","80","15","50","35","50","2","","","","","","","","","",""
"","","","","","rating_trial","survey-html-form","16","246122","0.0-3.0-1.6","55","1","2025-04-11 14:20:36","bb671e3ae32f654b8954ea4c4635f915","","Mozilla/5.0 (X11; CrOS x86_64 14541.0.0) AppleWebKit/537.36 (KHTML, like Gecko) Chrome/134.0.0.0 Safari/537.36","WebKit","Chrome","134.0.0.0","ChromeOS","14541.0.0","https://hz8g1ckzuq.cognition.run/","en-US,en;q=0.9","ye3jehyxga7unal","68","[""White""]","No","Female","1099066.5999999996","17482","","","{""price_1"":""400"",""price_2"":""200"",""price_3"":""200""}","rating","bww","catch","null","washing machines","90","80","15","50","35","50","2","null","null","null","null","null","null","Average lifespan","Energy savings","",""
"","","","","","rating_trial_setup","html-keyboard-response","17","246424","0.0-3.0-0.7","55","1","2025-04-11 14:20:36","bb671e3ae32f654b8954ea4c4635f915","","Mozilla/5.0 (X11; CrOS x86_64 14541.0.0) AppleWebKit/537.36 (KHTML, like Gecko) Chrome/134.0.0.0 Safari/537.36","WebKit","Chrome","134.0.0.0","ChromeOS","14541.0.0","https://hz8g1ckzuq.cognition.run/","en-US,en;q=0.9","ye3jehyxga7unal","68","[""White""]","No","Female","1099066.5999999996","null","","<p></p>","null","rating","wbw","catch","null","microwave ovens","85","80","15","25","10","50","1","","","","","","","","","",""
"","","","","","rating_trial","survey-html-form","18","262715","0.0-3.0-1.7","55","1","2025-04-11 14:20:36","bb671e3ae32f654b8954ea4c4635f915","","Mozilla/5.0 (X11; CrOS x86_64 14541.0.0) AppleWebKit/537.36 (KHTML, like Gecko) Chrome/134.0.0.0 Safari/537.36","WebKit","Chrome","134.0.0.0","ChromeOS","14541.0.0","https://hz8g1ckzuq.cognition.run/","en-US,en;q=0.9","ye3jehyxga7unal","68","[""White""]","No","Female","1099066.5999999996","16290","","","{""price_1"":""35"",""price_2"":""175"",""price_3"":""25""}","rating","wbw","catch","null","microwave ovens","85","80","15","25","10","50","1","null","null","null","null","null","null","Warranty","Cooking power","",""
"","","","","","rating_trial_setup","html-keyboard-response","19","263018","0.0-3.0-0.8","55","1","2025-04-11 14:20:36","bb671e3ae32f654b8954ea4c4635f915","","Mozilla/5.0 (X11; CrOS x86_64 14541.0.0) AppleWebKit/537.36 (KHTML, like Gecko) Chrome/134.0.0.0 Safari/537.36","WebKit","Chrome","134.0.0.0","ChromeOS","14541.0.0","https://hz8g1ckzuq.cognition.run/","en-US,en;q=0.9","ye3jehyxga7unal","68","[""White""]","No","Female","1099066.5999999996","null","","<p></p>","null","rating","tdc","attraction_2","2","televisions","null","null","null","null","null","null","1","","","","","","","","","",""
"","","","","","rating_trial","survey-html-form","20","280286","0.0-3.0-1.8","55","1","2025-04-11 14:20:36","bb671e3ae32f654b8954ea4c4635f915","","Mozilla/5.0 (X11; CrOS x86_64 14541.0.0) AppleWebKit/537.36 (KHTML, like Gecko) Chrome/134.0.0.0 Safari/537.36","WebKit","Chrome","134.0.0.0","ChromeOS","14541.0.0","https://hz8g1ckzuq.cognition.run/","en-US,en;q=0.9","ye3jehyxga7unal","68","[""White""]","No","Female","1099066.5999999996","17266","","","{""price_1"":""75"",""price_2"":""50"",""price_3"":""100""}","rating","tdc","attraction_2","2","televisions","null","null","null","null","null","null","1","50","60","40","60","50","60","Screen size","Average lifespan","",""
"","","","","","rating_trial_setup","html-keyboard-response","21","280588","0.0-3.0-0.9","55","1","2025-04-11 14:20:36","bb671e3ae32f654b8954ea4c4635f915","","Mozilla/5.0 (X11; CrOS x86_64 14541.0.0) AppleWebKit/537.36 (KHTML, like Gecko) Chrome/134.0.0.0 Safari/537.36","WebKit","Chrome","134.0.0.0","ChromeOS","14541.0.0","https://hz8g1ckzuq.cognition.run/","en-US,en;q=0.9","ye3jehyxga7unal","68","[""White""]","No","Female","1099066.5999999996","null","","<p></p>","null","rating","tdc","attraction_1","1","microwave ovens","null","null","null","null","null","null","1","","","","","","","","","",""
"","","","","","rating_trial","survey-html-form","22","313708","0.0-3.0-1.9","55","1","2025-04-11 14:20:36","bb671e3ae32f654b8954ea4c4635f915","","Mozilla/5.0 (X11; CrOS x86_64 14541.0.0) AppleWebKit/537.36 (KHTML, like Gecko) Chrome/134.0.0.0 Safari/537.36","WebKit","Chrome","134.0.0.0","ChromeOS","14541.0.0","https://hz8g1ckzuq.cognition.run/","en-US,en;q=0.9","ye3jehyxga7unal","68","[""White""]","No","Female","1099066.5999999996","33117","","","{""price_1"":""100"",""price_2"":""100"",""price_3"":""85""}","rating","tdc","attraction_1","1","microwave ovens","null","null","null","null","null","null","1","60","50","60","50","60","45","Warranty","Cooking power","",""
"","","","","","rating_trial_setup","html-keyboard-response","23","314011","0.0-3.0-0.10","55","1","2025-04-11 14:20:36","bb671e3ae32f654b8954ea4c4635f915","","Mozilla/5.0 (X11; CrOS x86_64 14541.0.0) AppleWebKit/537.36 (KHTML, like Gecko) Chrome/134.0.0.0 Safari/537.36","WebKit","Chrome","134.0.0.0","ChromeOS","14541.0.0","https://hz8g1ckzuq.cognition.run/","en-US,en;q=0.9","ye3jehyxga7unal","68","[""White""]","No","Female","1099066.5999999996","null","","<p></p>","null","rating","dct","repulsion_2","1","televisions","null","null","null","null","null","null","2","","","","","","","","","",""
"","","","","","rating_trial","survey-html-form","24","336344","0.0-3.0-1.10","55","1","2025-04-11 14:20:36","bb671e3ae32f654b8954ea4c4635f915","","Mozilla/5.0 (X11; CrOS x86_64 14541.0.0) AppleWebKit/537.36 (KHTML, like Gecko) Chrome/134.0.0.0 Safari/537.36","WebKit","Chrome","134.0.0.0","ChromeOS","14541.0.0","https://hz8g1ckzuq.cognition.run/","en-US,en;q=0.9","ye3jehyxga7unal","68","[""White""]","No","Female","1099066.5999999996","22331","","","{""price_1"":""300"",""price_2"":""275"",""price_3"":""300""}","rating","dct","repulsion_2","1","televisions","null","null","null","null","null","null","2","100","90","100","30","40","20","Screen size","Average lifespan","",""
"","","","","","rating_trial_setup","html-keyboard-response","25","336646","0.0-3.0-0.11","55","1","2025-04-11 14:20:36","bb671e3ae32f654b8954ea4c4635f915","","Mozilla/5.0 (X11; CrOS x86_64 14541.0.0) AppleWebKit/537.36 (KHTML, like Gecko) Chrome/134.0.0.0 Safari/537.36","WebKit","Chrome","134.0.0.0","ChromeOS","14541.0.0","https://hz8g1ckzuq.cognition.run/","en-US,en;q=0.9","ye3jehyxga7unal","68","[""White""]","No","Female","1099066.5999999996","null","","<p></p>","null","rating","cdt","repulsion_2","2","televisions","null","null","null","null","null","null","1","","","","","","","","","",""
"","","","","","rating_trial","survey-html-form","26","372369","0.0-3.0-1.11","55","1","2025-04-11 14:20:36","bb671e3ae32f654b8954ea4c4635f915","","Mozilla/5.0 (X11; CrOS x86_64 14541.0.0) AppleWebKit/537.36 (KHTML, like Gecko) Chrome/134.0.0.0 Safari/537.36","WebKit","Chrome","134.0.0.0","ChromeOS","14541.0.0","https://hz8g1ckzuq.cognition.run/","en-US,en;q=0.9","ye3jehyxga7unal","68","[""White""]","No","Female","1099066.5999999996","35721","","","{""price_1"":""75"",""price_2"":""75"",""price_3"":""75""}","rating","cdt","repulsion_2","2","televisions","null","null","null","null","null","null","1","30","40","20","100","90","100","Screen size","Average lifespan","",""
"","","","","","rating_trial_setup","html-keyboard-response","27","372672","0.0-3.0-0.12","55","1","2025-04-11 14:20:36","bb671e3ae32f654b8954ea4c4635f915","","Mozilla/5.0 (X11; CrOS x86_64 14541.0.0) AppleWebKit/537.36 (KHTML, like Gecko) Chrome/134.0.0.0 Safari/537.36","WebKit","Chrome","134.0.0.0","ChromeOS","14541.0.0","https://hz8g1ckzuq.cognition.run/","en-US,en;q=0.9","ye3jehyxga7unal","68","[""White""]","No","Female","1099066.5999999996","null","","<p></p>","null","rating","ctd","repulsion_2","2","washing machines","null","null","null","null","null","null","2","","","","","","","","","",""
"","","","","","rating_trial","survey-html-form","28","391744","0.0-3.0-1.12","55","1","2025-04-11 14:20:36","bb671e3ae32f654b8954ea4c4635f915","","Mozilla/5.0 (X11; CrOS x86_64 14541.0.0) AppleWebKit/537.36 (KHTML, like Gecko) Chrome/134.0.0.0 Safari/537.36","WebKit","Chrome","134.0.0.0","ChromeOS","14541.0.0","https://hz8g1ckzuq.cognition.run/","en-US,en;q=0.9","ye3jehyxga7unal","68","[""White""]","No","Female","1099066.5999999996","19070","","","{""price_1"":""300"",""price_2"":""300"",""price_3"":""300""}","rating","ctd","repulsion_2","2","washing machines","null","null","null","null","null","null","2","30","40","20","100","90","100","Average lifespan","Energy savings","",""
"","","","","","rating_trial_setup","html-keyboard-response","29","392050","0.0-3.0-0.13","55","1","2025-04-11 14:20:36","bb671e3ae32f654b8954ea4c4635f915","","Mozilla/5.0 (X11; CrOS x86_64 14541.0.0) AppleWebKit/537.36 (KHTML, like Gecko) Chrome/134.0.0.0 Safari/537.36","WebKit","Chrome","134.0.0.0","ChromeOS","14541.0.0","https://hz8g1ckzuq.cognition.run/","en-US,en;q=0.9","ye3jehyxga7unal","68","[""White""]","No","Female","1099066.5999999996","null","","<p></p>","null","rating","ctd","attraction_1","1","televisions","null","null","null","null","null","null","2","","","","","","","","","",""
"","","","","","rating_trial","survey-html-form","30","407482","0.0-3.0-1.13","55","1","2025-04-11 14:20:36","bb671e3ae32f654b8954ea4c4635f915","","Mozilla/5.0 (X11; CrOS x86_64 14541.0.0) AppleWebKit/537.36 (KHTML, like Gecko) Chrome/134.0.0.0 Safari/537.36","WebKit","Chrome","134.0.0.0","ChromeOS","14541.0.0","https://hz8g1ckzuq.cognition.run/","en-US,en;q=0.9","ye3jehyxga7unal","68","[""White""]","No","Female","1099066.5999999996","15430","","","{""price_1"":""75"",""price_2"":""75"",""price_3"":""75""}","rating","ctd","attraction_1","1","televisions","null","null","null","null","null","null","2","60","50","60","50","60","45","Screen size","Average lifespan","",""
"","","","","","rating_trial_setup","html-keyboard-response","31","407784","0.0-3.0-0.14","55","1","2025-04-11 14:20:36","bb671e3ae32f654b8954ea4c4635f915","","Mozilla/5.0 (X11; CrOS x86_64 14541.0.0) AppleWebKit/537.36 (KHTML, like Gecko) Chrome/134.0.0.0 Safari/537.36","WebKit","Chrome","134.0.0.0","ChromeOS","14541.0.0","https://hz8g1ckzuq.cognition.run/","en-US,en;q=0.9","ye3jehyxga7unal","68","[""White""]","No","Female","1099066.5999999996","null","","<p></p>","null","rating","ctd","attraction_1","2","televisions","null","null","null","null","null","null","1","","","","","","","","","",""
"","","","","","rating_trial","survey-html-form","32","424789","0.0-3.0-1.14","55","1","2025-04-11 14:20:36","bb671e3ae32f654b8954ea4c4635f915","","Mozilla/5.0 (X11; CrOS x86_64 14541.0.0) AppleWebKit/537.36 (KHTML, like Gecko) Chrome/134.0.0.0 Safari/537.36","WebKit","Chrome","134.0.0.0","ChromeOS","14541.0.0","https://hz8g1ckzuq.cognition.run/","en-US,en;q=0.9","ye3jehyxga7unal","68","[""White""]","No","Female","1099066.5999999996","16999","","","{""price_1"":""75"",""price_2"":""75"",""price_3"":""75""}","rating","ctd","attraction_1","2","televisions","null","null","null","null","null","null","1","50","60","45","60","50","60","Screen size","Average lifespan","",""
"","","","","","rating_trial_setup","html-keyboard-response","33","425098","0.0-3.0-0.15","55","1","2025-04-11 14:20:36","bb671e3ae32f654b8954ea4c4635f915","","Mozilla/5.0 (X11; CrOS x86_64 14541.0.0) AppleWebKit/537.36 (KHTML, like Gecko) Chrome/134.0.0.0 Safari/537.36","WebKit","Chrome","134.0.0.0","ChromeOS","14541.0.0","https://hz8g1ckzuq.cognition.run/","en-US,en;q=0.9","ye3jehyxga7unal","68","[""White""]","No","Female","1099066.5999999996","null","","<p></p>","null","rating","dct","attraction_2","2","washing machines","null","null","null","null","null","null","1","","","","","","","","","",""
"","","","","","rating_trial","survey-html-form","34","439683","0.0-3.0-1.15","55","1","2025-04-11 14:20:36","bb671e3ae32f654b8954ea4c4635f915","","Mozilla/5.0 (X11; CrOS x86_64 14541.0.0) AppleWebKit/537.36 (KHTML, like Gecko) Chrome/134.0.0.0 Safari/537.36","WebKit","Chrome","134.0.0.0","ChromeOS","14541.0.0","https://hz8g1ckzuq.cognition.run/","en-US,en;q=0.9","ye3jehyxga7unal","68","[""White""]","No","Female","1099066.5999999996","14581","","","{""price_1"":""250"",""price_2"":""250"",""price_3"":""250""}","rating","dct","attraction_2","2","washing machines","null","null","null","null","null","null","1","50","60","40","60","50","60","Average lifespan","Energy savings","",""
"","","","","","rating_trial_setup","html-keyboard-response","35","439989","0.0-3.0-0.16","55","1","2025-04-11 14:20:36","bb671e3ae32f654b8954ea4c4635f915","","Mozilla/5.0 (X11; CrOS x86_64 14541.0.0) AppleWebKit/537.36 (KHTML, like Gecko) Chrome/134.0.0.0 Safari/537.36","WebKit","Chrome","134.0.0.0","ChromeOS","14541.0.0","https://hz8g1ckzuq.cognition.run/","en-US,en;q=0.9","ye3jehyxga7unal","68","[""White""]","No","Female","1099066.5999999996","null","","<p></p>","null","rating","dtc","repulsion_2","1","laptops","null","null","null","null","null","null","2","","","","","","","","","",""
"","","","","","rating_trial","survey-html-form","36","453430","0.0-3.0-1.16","55","1","2025-04-11 14:20:36","bb671e3ae32f654b8954ea4c4635f915","","Mozilla/5.0 (X11; CrOS x86_64 14541.0.0) AppleWebKit/537.36 (KHTML, like Gecko) Chrome/134.0.0.0 Safari/537.36","WebKit","Chrome","134.0.0.0","ChromeOS","14541.0.0","https://hz8g1ckzuq.cognition.run/","en-US,en;q=0.9","ye3jehyxga7unal","68","[""White""]","No","Female","1099066.5999999996","13438","","","{""price_1"":""100"",""price_2"":""100"",""price_3"":""100""}","rating","dtc","repulsion_2","1","laptops","null","null","null","null","null","null","2","100","90","100","30","40","20","Processing speed","Memory (RAM)","",""
"","","","","","rating_trial_setup","html-keyboard-response","37","453741","0.0-3.0-0.17","55","1","2025-04-11 14:20:36","bb671e3ae32f654b8954ea4c4635f915","","Mozilla/5.0 (X11; CrOS x86_64 14541.0.0) AppleWebKit/537.36 (KHTML, like Gecko) Chrome/134.0.0.0 Safari/537.36","WebKit","Chrome","134.0.0.0","ChromeOS","14541.0.0","https://hz8g1ckzuq.cognition.run/","en-US,en;q=0.9","ye3jehyxga7unal","68","[""White""]","No","Female","1099066.5999999996","null","","<p></p>","null","rating","ctd","repulsion_1","2","microwave ovens","null","null","null","null","null","null","1","","","","","","","","","",""
"","","","","","rating_trial","survey-html-form","38","468716","0.0-3.0-1.17","55","1","2025-04-11 14:20:36","bb671e3ae32f654b8954ea4c4635f915","","Mozilla/5.0 (X11; CrOS x86_64 14541.0.0) AppleWebKit/537.36 (KHTML, like Gecko) Chrome/134.0.0.0 Safari/537.36","WebKit","Chrome","134.0.0.0","ChromeOS","14541.0.0","https://hz8g1ckzuq.cognition.run/","en-US,en;q=0.9","ye3jehyxga7unal","68","[""White""]","No","Female","1099066.5999999996","14973","","","{""price_1"":""85"",""price_2"":""100"",""price_3"":""100""}","rating","ctd","repulsion_1","2","microwave ovens","null","null","null","null","null","null","1","30","40","25","100","90","100","Warranty","Cooking power","",""
"","","","","","rating_trial_setup","html-keyboard-response","39","469018","0.0-3.0-0.18","55","1","2025-04-11 14:20:36","bb671e3ae32f654b8954ea4c4635f915","","Mozilla/5.0 (X11; CrOS x86_64 14541.0.0) AppleWebKit/537.36 (KHTML, like Gecko) Chrome/134.0.0.0 Safari/537.36","WebKit","Chrome","134.0.0.0","ChromeOS","14541.0.0","https://hz8g1ckzuq.cognition.run/","en-US,en;q=0.9","ye3jehyxga7unal","68","[""White""]","No","Female","1099066.5999999996","null","","<p></p>","null","rating","ctd","attraction_1","2","washing machines","null","null","null","null","null","null","1","","","","","","","","","",""
"","","","","","rating_trial","survey-html-form","40","479278","0.0-3.0-1.18","55","1","2025-04-11 14:20:36","bb671e3ae32f654b8954ea4c4635f915","","Mozilla/5.0 (X11; CrOS x86_64 14541.0.0) AppleWebKit/537.36 (KHTML, like Gecko) Chrome/134.0.0.0 Safari/537.36","WebKit","Chrome","134.0.0.0","ChromeOS","14541.0.0","https://hz8g1ckzuq.cognition.run/","en-US,en;q=0.9","ye3jehyxga7unal","68","[""White""]","No","Female","1099066.5999999996","10257","","","{""price_1"":""200"",""price_2"":""200"",""price_3"":""200""}","rating","ctd","attraction_1","2","washing machines","null","null","null","null","null","null","1","50","60","45","60","50","60","Average lifespan","Energy savings","",""
"","","","","","rating_trial_setup","html-keyboard-response","41","479580","0.0-3.0-0.19","55","1","2025-04-11 14:20:36","bb671e3ae32f654b8954ea4c4635f915","","Mozilla/5.0 (X11; CrOS x86_64 14541.0.0) AppleWebKit/537.36 (KHTML, like Gecko) Chrome/134.0.0.0 Safari/537.36","WebKit","Chrome","134.0.0.0","ChromeOS","14541.0.0","https://hz8g1ckzuq.cognition.run/","en-US,en;q=0.9","ye3jehyxga7unal","68","[""White""]","No","Female","1099066.5999999996","null","","<p></p>","null","rating","wwb","catch","null","laptops","80","75","15","50","50","25","1","","","","","","","","","",""
"","","","","","rating_trial","survey-html-form","42","497292","0.0-3.0-1.19","55","1","2025-04-11 14:20:36","bb671e3ae32f654b8954ea4c4635f915","","Mozilla/5.0 (X11; CrOS x86_64 14541.0.0) AppleWebKit/537.36 (KHTML, like Gecko) Chrome/134.0.0.0 Safari/537.36","WebKit","Chrome","134.0.0.0","ChromeOS","14541.0.0","https://hz8g1ckzuq.cognition.run/","en-US,en;q=0.9","ye3jehyxga7unal","68","[""White""]","No","Female","1099066.5999999996","17708","","","{""price_1"":""50"",""price_2"":""75"",""price_3"":""100""}","rating","wwb","catch","null","laptops","80","75","15","50","50","25","1","null","null","null","null","null","null","Processing speed","Memory (RAM)","",""
"","","","","","rating_trial_setup","html-keyboard-response","43","497595","0.0-3.0-0.20","55","1","2025-04-11 14:20:36","bb671e3ae32f654b8954ea4c4635f915","","Mozilla/5.0 (X11; CrOS x86_64 14541.0.0) AppleWebKit/537.36 (KHTML, like Gecko) Chrome/134.0.0.0 Safari/537.36","WebKit","Chrome","134.0.0.0","ChromeOS","14541.0.0","https://hz8g1ckzuq.cognition.run/","en-US,en;q=0.9","ye3jehyxga7unal","68","[""White""]","No","Female","1099066.5999999996","null","","<p></p>","null","rating","tdc","attraction_1","2","microwave ovens","null","null","null","null","null","null","1","","","","","","","","","",""
"","","","","","rating_trial","survey-html-form","44","508195","0.0-3.0-1.20","55","1","2025-04-11 14:20:36","bb671e3ae32f654b8954ea4c4635f915","","Mozilla/5.0 (X11; CrOS x86_64 14541.0.0) AppleWebKit/537.36 (KHTML, like Gecko) Chrome/134.0.0.0 Safari/537.36","WebKit","Chrome","134.0.0.0","ChromeOS","14541.0.0","https://hz8g1ckzuq.cognition.run/","en-US,en;q=0.9","ye3jehyxga7unal","68","[""White""]","No","Female","1099066.5999999996","10597","","","{""price_1"":""75"",""price_2"":""75"",""price_3"":""75""}","rating","tdc","attraction_1","2","microwave ovens","null","null","null","null","null","null","1","50","60","45","60","50","60","Warranty","Cooking power","",""
"","","","","","rating_trial_setup","html-keyboard-response","45","508503","0.0-3.0-0.21","55","1","2025-04-11 14:20:36","bb671e3ae32f654b8954ea4c4635f915","","Mozilla/5.0 (X11; CrOS x86_64 14541.0.0) AppleWebKit/537.36 (KHTML, like Gecko) Chrome/134.0.0.0 Safari/537.36","WebKit","Chrome","134.0.0.0","ChromeOS","14541.0.0","https://hz8g1ckzuq.cognition.run/","en-US,en;q=0.9","ye3jehyxga7unal","68","[""White""]","No","Female","1099066.5999999996","null","","<p></p>","null","rating","wwb","catch","null","washing machines","95","75","5","10","35","5","2","","","","","","","","","",""
"","","","","","rating_trial","survey-html-form","46","529577","0.0-3.0-1.21","55","1","2025-04-11 14:20:36","bb671e3ae32f654b8954ea4c4635f915","","Mozilla/5.0 (X11; CrOS x86_64 14541.0.0) AppleWebKit/537.36 (KHTML, like Gecko) Chrome/134.0.0.0 Safari/537.36","WebKit","Chrome","134.0.0.0","ChromeOS","14541.0.0","https://hz8g1ckzuq.cognition.run/","en-US,en;q=0.9","ye3jehyxga7unal","68","[""White""]","No","Female","1099066.5999999996","21072","","","{""price_1"":""25"",""price_2"":""50"",""price_3"":""400""}","rating","wwb","catch","null","washing machines","95","75","5","10","35","5","2","null","null","null","null","null","null","Average lifespan","Energy savings","",""
"","","","","","rating_trial_setup","html-keyboard-response","47","529880","0.0-3.0-0.22","55","1","2025-04-11 14:20:36","bb671e3ae32f654b8954ea4c4635f915","","Mozilla/5.0 (X11; CrOS x86_64 14541.0.0) AppleWebKit/537.36 (KHTML, like Gecko) Chrome/134.0.0.0 Safari/537.36","WebKit","Chrome","134.0.0.0","ChromeOS","14541.0.0","https://hz8g1ckzuq.cognition.run/","en-US,en;q=0.9","ye3jehyxga7unal","68","[""White""]","No","Female","1099066.5999999996","null","","<p></p>","null","rating","tcd","repulsion_1","2","laptops","null","null","null","null","null","null","2","","","","","","","","","",""
"","","","","","rating_trial","survey-html-form","48","541954","0.0-3.0-1.22","55","1","2025-04-11 14:20:36","bb671e3ae32f654b8954ea4c4635f915","","Mozilla/5.0 (X11; CrOS x86_64 14541.0.0) AppleWebKit/537.36 (KHTML, like Gecko) Chrome/134.0.0.0 Safari/537.36","WebKit","Chrome","134.0.0.0","ChromeOS","14541.0.0","https://hz8g1ckzuq.cognition.run/","en-US,en;q=0.9","ye3jehyxga7unal","68","[""White""]","No","Female","1099066.5999999996","12071","","","{""price_1"":""100"",""price_2"":""100"",""price_3"":""100""}","rating","tcd","repulsion_1","2","laptops","null","null","null","null","null","null","2","30","40","25","100","90","100","Processing speed","Memory (RAM)","",""
"","","","","","rating_trial_setup","html-keyboard-response","49","542261","0.0-3.0-0.23","55","1","2025-04-11 14:20:36","bb671e3ae32f654b8954ea4c4635f915","","Mozilla/5.0 (X11; CrOS x86_64 14541.0.0) AppleWebKit/537.36 (KHTML, like Gecko) Chrome/134.0.0.0 Safari/537.36","WebKit","Chrome","134.0.0.0","ChromeOS","14541.0.0","https://hz8g1ckzuq.cognition.run/","en-US,en;q=0.9","ye3jehyxga7unal","68","[""White""]","No","Female","1099066.5999999996","null","","<p></p>","null","rating","tcd","attraction_2","1","televisions","null","null","null","null","null","null","2","","","","","","","","","",""
"","","","","","rating_trial","survey-html-form","50","552313","0.0-3.0-1.23","55","1","2025-04-11 14:20:36","bb671e3ae32f654b8954ea4c4635f915","","Mozilla/5.0 (X11; CrOS x86_64 14541.0.0) AppleWebKit/537.36 (KHTML, like Gecko) Chrome/134.0.0.0 Safari/537.36","WebKit","Chrome","134.0.0.0","ChromeOS","14541.0.0","https://hz8g1ckzuq.cognition.run/","en-US,en;q=0.9","ye3jehyxga7unal","68","[""White""]","No","Female","1099066.5999999996","10049","","","{""price_1"":""100"",""price_2"":""100"",""price_3"":""100""}","rating","tcd","attraction_2","1","televisions","null","null","null","null","null","null","2","60","50","60","50","60","40","Screen size","Average lifespan","",""
"","","","","","rating_trial_setup","html-keyboard-response","51","552616","0.0-3.0-0.24","55","1","2025-04-11 14:20:36","bb671e3ae32f654b8954ea4c4635f915","","Mozilla/5.0 (X11; CrOS x86_64 14541.0.0) AppleWebKit/537.36 (KHTML, like Gecko) Chrome/134.0.0.0 Safari/537.36","WebKit","Chrome","134.0.0.0","ChromeOS","14541.0.0","https://hz8g1ckzuq.cognition.run/","en-US,en;q=0.9","ye3jehyxga7unal","68","[""White""]","No","Female","1099066.5999999996","null","","<p></p>","null","rating","ctd","attraction_1","1","washing machines","null","null","null","null","null","null","1","","","","","","","","","",""
"","","","","","rating_trial","survey-html-form","52","568839","0.0-3.0-1.24","55","1","2025-04-11 14:20:36","bb671e3ae32f654b8954ea4c4635f915","","Mozilla/5.0 (X11; CrOS x86_64 14541.0.0) AppleWebKit/537.36 (KHTML, like Gecko) Chrome/134.0.0.0 Safari/537.36","WebKit","Chrome","134.0.0.0","ChromeOS","14541.0.0","https://hz8g1ckzuq.cognition.run/","en-US,en;q=0.9","ye3jehyxga7unal","68","[""White""]","No","Female","1099066.5999999996","16220","","","{""price_1"":""150"",""price_2"":""150"",""price_3"":""150""}","rating","ctd","attraction_1","1","washing machines","null","null","null","null","null","null","1","60","50","60","50","60","45","Average lifespan","Energy savings","",""
"","","","","","rating_trial_setup","html-keyboard-response","53","569143","0.0-3.0-0.25","55","1","2025-04-11 14:20:36","bb671e3ae32f654b8954ea4c4635f915","","Mozilla/5.0 (X11; CrOS x86_64 14541.0.0) AppleWebKit/537.36 (KHTML, like Gecko) Chrome/134.0.0.0 Safari/537.36","WebKit","Chrome","134.0.0.0","ChromeOS","14541.0.0","https://hz8g1ckzuq.cognition.run/","en-US,en;q=0.9","ye3jehyxga7unal","68","[""White""]","No","Female","1099066.5999999996","null","","<p></p>","null","rating","dct","repulsion_1","1","washing machines","null","null","null","null","null","null","2","","","","","","","","","",""
"","","","","","rating_trial","survey-html-form","54","581206","0.0-3.0-1.25","55","1","2025-04-11 14:20:36","bb671e3ae32f654b8954ea4c4635f915","","Mozilla/5.0 (X11; CrOS x86_64 14541.0.0) AppleWebKit/537.36 (KHTML, like Gecko) Chrome/134.0.0.0 Safari/537.36","WebKit","Chrome","134.0.0.0","ChromeOS","14541.0.0","https://hz8g1ckzuq.cognition.run/","en-US,en;q=0.9","ye3jehyxga7unal","68","[""White""]","No","Female","1099066.5999999996","12060","","","{""price_1"":""200"",""price_2"":""200"",""price_3"":""200""}","rating","dct","repulsion_1","1","washing machines","null","null","null","null","null","null","2","100","90","100","30","40","25","Average lifespan","Energy savings","",""
"","","","","","rating_trial_setup","html-keyboard-response","55","581516","0.0-3.0-0.26","55","1","2025-04-11 14:20:36","bb671e3ae32f654b8954ea4c4635f915","","Mozilla/5.0 (X11; CrOS x86_64 14541.0.0) AppleWebKit/537.36 (KHTML, like Gecko) Chrome/134.0.0.0 Safari/537.36","WebKit","Chrome","134.0.0.0","ChromeOS","14541.0.0","https://hz8g1ckzuq.cognition.run/","en-US,en;q=0.9","ye3jehyxga7unal","68","[""White""]","No","Female","1099066.5999999996","null","","<p></p>","null","rating","tcd","repulsion_2","1","microwave ovens","null","null","null","null","null","null","2","","","","","","","","","",""
"","","","","","rating_trial","survey-html-form","56","592978","0.0-3.0-1.26","55","1","2025-04-11 14:20:36","bb671e3ae32f654b8954ea4c4635f915","","Mozilla/5.0 (X11; CrOS x86_64 14541.0.0) AppleWebKit/537.36 (KHTML, like Gecko) Chrome/134.0.0.0 Safari/537.36","WebKit","Chrome","134.0.0.0","ChromeOS","14541.0.0","https://hz8g1ckzuq.cognition.run/","en-US,en;q=0.9","ye3jehyxga7unal","68","[""White""]","No","Female","1099066.5999999996","11453","","","{""price_1"":""100"",""price_2"":""100"",""price_3"":""100""}","rating","tcd","repulsion_2","1","microwave ovens","null","null","null","null","null","null","2","100","90","100","30","40","20","Warranty","Cooking power","",""
"","","","","","rating_trial_setup","html-keyboard-response","57","593287","0.0-3.0-0.27","55","1","2025-04-11 14:20:36","bb671e3ae32f654b8954ea4c4635f915","","Mozilla/5.0 (X11; CrOS x86_64 14541.0.0) AppleWebKit/537.36 (KHTML, like Gecko) Chrome/134.0.0.0 Safari/537.36","WebKit","Chrome","134.0.0.0","ChromeOS","14541.0.0","https://hz8g1ckzuq.cognition.run/","en-US,en;q=0.9","ye3jehyxga7unal","68","[""White""]","No","Female","1099066.5999999996","null","","<p></p>","null","rating","tdc","attraction_1","2","laptops","null","null","null","null","null","null","1","","","","","","","","","",""
"","","","","","rating_trial","survey-html-form","58","605475","0.0-3.0-1.27","55","1","2025-04-11 14:20:36","bb671e3ae32f654b8954ea4c4635f915","","Mozilla/5.0 (X11; CrOS x86_64 14541.0.0) AppleWebKit/537.36 (KHTML, like Gecko) Chrome/134.0.0.0 Safari/537.36","WebKit","Chrome","134.0.0.0","ChromeOS","14541.0.0","https://hz8g1ckzuq.cognition.run/","en-US,en;q=0.9","ye3jehyxga7unal","68","[""White""]","No","Female","1099066.5999999996","12183","","","{""price_1"":""125"",""price_2"":""125"",""price_3"":""125""}","rating","tdc","attraction_1","2","laptops","null","null","null","null","null","null","1","50","60","45","60","50","60","Processing speed","Memory (RAM)","",""
"","","","","","rating_trial_setup","html-keyboard-response","59","605791","0.0-3.0-0.28","55","1","2025-04-11 14:20:36","bb671e3ae32f654b8954ea4c4635f915","","Mozilla/5.0 (X11; CrOS x86_64 14541.0.0) AppleWebKit/537.36 (KHTML, like Gecko) Chrome/134.0.0.0 Safari/537.36","WebKit","Chrome","134.0.0.0","ChromeOS","14541.0.0","https://hz8g1ckzuq.cognition.run/","en-US,en;q=0.9","ye3jehyxga7unal","68","[""White""]","No","Female","1099066.5999999996","null","","<p></p>","null","rating","dct","repulsion_1","2","televisions","null","null","null","null","null","null","1","","","","","","","","","",""
"","","","","","rating_trial","survey-html-form","60","615692","0.0-3.0-1.28","55","1","2025-04-11 14:20:36","bb671e3ae32f654b8954ea4c4635f915","","Mozilla/5.0 (X11; CrOS x86_64 14541.0.0) AppleWebKit/537.36 (KHTML, like Gecko) Chrome/134.0.0.0 Safari/537.36","WebKit","Chrome","134.0.0.0","ChromeOS","14541.0.0","https://hz8g1ckzuq.cognition.run/","en-US,en;q=0.9","ye3jehyxga7unal","68","[""White""]","No","Female","1099066.5999999996","9897","","","{""price_1"":""75"",""price_2"":""75"",""price_3"":""75""}","rating","dct","repulsion_1","2","televisions","null","null","null","null","null","null","1","30","40","25","100","90","100","Screen size","Average lifespan","",""
"","","","","","rating_trial_setup","html-keyboard-response","61","615997","0.0-3.0-0.29","55","1","2025-04-11 14:20:36","bb671e3ae32f654b8954ea4c4635f915","","Mozilla/5.0 (X11; CrOS x86_64 14541.0.0) AppleWebKit/537.36 (KHTML, like Gecko) Chrome/134.0.0.0 Safari/537.36","WebKit","Chrome","134.0.0.0","ChromeOS","14541.0.0","https://hz8g1ckzuq.cognition.run/","en-US,en;q=0.9","ye3jehyxga7unal","68","[""White""]","No","Female","1099066.5999999996","null","","<p></p>","null","rating","dct","repulsion_1","1","laptops","null","null","null","null","null","null","2","","","","","","","","","",""
"","","","","","rating_trial","survey-html-form","62","626386","0.0-3.0-1.29","55","1","2025-04-11 14:20:36","bb671e3ae32f654b8954ea4c4635f915","","Mozilla/5.0 (X11; CrOS x86_64 14541.0.0) AppleWebKit/537.36 (KHTML, like Gecko) Chrome/134.0.0.0 Safari/537.36","WebKit","Chrome","134.0.0.0","ChromeOS","14541.0.0","https://hz8g1ckzuq.cognition.run/","en-US,en;q=0.9","ye3jehyxga7unal","68","[""White""]","No","Female","1099066.5999999996","10385","","","{""price_1"":""75"",""price_2"":""75"",""price_3"":""75""}","rating","dct","repulsion_1","1","laptops","null","null","null","null","null","null","2","100","90","100","30","40","25","Processing speed","Memory (RAM)","",""
"","","","","","rating_trial_setup","html-keyboard-response","63","626693","0.0-3.0-0.30","55","1","2025-04-11 14:20:36","bb671e3ae32f654b8954ea4c4635f915","","Mozilla/5.0 (X11; CrOS x86_64 14541.0.0) AppleWebKit/537.36 (KHTML, like Gecko) Chrome/134.0.0.0 Safari/537.36","WebKit","Chrome","134.0.0.0","ChromeOS","14541.0.0","https://hz8g1ckzuq.cognition.run/","en-US,en;q=0.9","ye3jehyxga7unal","68","[""White""]","No","Female","1099066.5999999996","null","","<p></p>","null","rating","tcd","repulsion_1","2","washing machines","null","null","null","null","null","null","1","","","","","","","","","",""
"","","","","","rating_trial","survey-html-form","64","636514","0.0-3.0-1.30","55","1","2025-04-11 14:20:36","bb671e3ae32f654b8954ea4c4635f915","","Mozilla/5.0 (X11; CrOS x86_64 14541.0.0) AppleWebKit/537.36 (KHTML, like Gecko) Chrome/134.0.0.0 Safari/537.36","WebKit","Chrome","134.0.0.0","ChromeOS","14541.0.0","https://hz8g1ckzuq.cognition.run/","en-US,en;q=0.9","ye3jehyxga7unal","68","[""White""]","No","Female","1099066.5999999996","9817","","","{""price_1"":""150"",""price_2"":""150"",""price_3"":""150""}","rating","tcd","repulsion_1","2","washing machines","null","null","null","null","null","null","1","30","40","25","100","90","100","Average lifespan","Energy savings","",""
"","","","","","rating_trial_setup","html-keyboard-response","65","636816","0.0-3.0-0.31","55","1","2025-04-11 14:20:36","bb671e3ae32f654b8954ea4c4635f915","","Mozilla/5.0 (X11; CrOS x86_64 14541.0.0) AppleWebKit/537.36 (KHTML, like Gecko) Chrome/134.0.0.0 Safari/537.36","WebKit","Chrome","134.0.0.0","ChromeOS","14541.0.0","https://hz8g1ckzuq.cognition.run/","en-US,en;q=0.9","ye3jehyxga7unal","68","[""White""]","No","Female","1099066.5999999996","null","","<p></p>","null","rating","bww","catch","null","televisions","50","75","20","45","5","30","1","","","","","","","","","",""
"","","","","","rating_trial","survey-html-form","66","650781","0.0-3.0-1.31","55","1","2025-04-11 14:20:36","bb671e3ae32f654b8954ea4c4635f915","","Mozilla/5.0 (X11; CrOS x86_64 14541.0.0) AppleWebKit/537.36 (KHTML, like Gecko) Chrome/134.0.0.0 Safari/537.36","WebKit","Chrome","134.0.0.0","ChromeOS","14541.0.0","https://hz8g1ckzuq.cognition.run/","en-US,en;q=0.9","ye3jehyxga7unal","68","[""White""]","No","Female","1099066.5999999996","13960","","","{""price_1"":""100"",""price_2"":""50"",""price_3"":""25""}","rating","bww","catch","null","televisions","50","75","20","45","5","30","1","null","null","null","null","null","null","Screen size","Average lifespan","",""
"","","","","","rating_trial_setup","html-keyboard-response","67","651096","0.0-3.0-0.32","55","1","2025-04-11 14:20:36","bb671e3ae32f654b8954ea4c4635f915","","Mozilla/5.0 (X11; CrOS x86_64 14541.0.0) AppleWebKit/537.36 (KHTML, like Gecko) Chrome/134.0.0.0 Safari/537.36","WebKit","Chrome","134.0.0.0","ChromeOS","14541.0.0","https://hz8g1ckzuq.cognition.run/","en-US,en;q=0.9","ye3jehyxga7unal","68","[""White""]","No","Female","1099066.5999999996","null","","<p></p>","null","rating","dtc","attraction_2","1","laptops","null","null","null","null","null","null","1","","","","","","","","","",""
"","","","","","rating_trial","survey-html-form","68","660214","0.0-3.0-1.32","55","1","2025-04-11 14:20:36","bb671e3ae32f654b8954ea4c4635f915","","Mozilla/5.0 (X11; CrOS x86_64 14541.0.0) AppleWebKit/537.36 (KHTML, like Gecko) Chrome/134.0.0.0 Safari/537.36","WebKit","Chrome","134.0.0.0","ChromeOS","14541.0.0","https://hz8g1ckzuq.cognition.run/","en-US,en;q=0.9","ye3jehyxga7unal","68","[""White""]","No","Female","1099066.5999999996","9115","","","{""price_1"":""100"",""price_2"":""100"",""price_3"":""100""}","rating","dtc","attraction_2","1","laptops","null","null","null","null","null","null","1","60","50","60","50","60","40","Processing speed","Memory (RAM)","",""
"","","","","","rating_trial_setup","html-keyboard-response","69","660523","0.0-3.0-0.33","55","1","2025-04-11 14:20:36","bb671e3ae32f654b8954ea4c4635f915","","Mozilla/5.0 (X11; CrOS x86_64 14541.0.0) AppleWebKit/537.36 (KHTML, like Gecko) Chrome/134.0.0.0 Safari/537.36","WebKit","Chrome","134.0.0.0","ChromeOS","14541.0.0","https://hz8g1ckzuq.cognition.run/","en-US,en;q=0.9","ye3jehyxga7unal","68","[""White""]","No","Female","1099066.5999999996","null","","<p></p>","null","rating","cdt","repulsion_2","2","laptops","null","null","null","null","null","null","2","","","","","","","","","",""
"","","","","","rating_trial","survey-html-form","70","677488","0.0-3.0-1.33","55","1","2025-04-11 14:20:36","bb671e3ae32f654b8954ea4c4635f915","","Mozilla/5.0 (X11; CrOS x86_64 14541.0.0) AppleWebKit/537.36 (KHTML, like Gecko) Chrome/134.0.0.0 Safari/537.36","WebKit","Chrome","134.0.0.0","ChromeOS","14541.0.0","https://hz8g1ckzuq.cognition.run/","en-US,en;q=0.9","ye3jehyxga7unal","68","[""White""]","No","Female","1099066.5999999996","16962","","","{""price_1"":""75"",""price_2"":""75"",""price_3"":""75""}","rating","cdt","repulsion_2","2","laptops","null","null","null","null","null","null","2","30","40","20","100","90","100","Processing speed","Memory (RAM)","",""
"","","","","","rating_trial_setup","html-keyboard-response","71","677791","0.0-3.0-0.34","55","1","2025-04-11 14:20:36","bb671e3ae32f654b8954ea4c4635f915","","Mozilla/5.0 (X11; CrOS x86_64 14541.0.0) AppleWebKit/537.36 (KHTML, like Gecko) Chrome/134.0.0.0 Safari/537.36","WebKit","Chrome","134.0.0.0","ChromeOS","14541.0.0","https://hz8g1ckzuq.cognition.run/","en-US,en;q=0.9","ye3jehyxga7unal","68","[""White""]","No","Female","1099066.5999999996","null","","<p></p>","null","rating","dct","attraction_2","2","laptops","null","null","null","null","null","null","2","","","","","","","","","",""
"","","","","","rating_trial","survey-html-form","72","685233","0.0-3.0-1.34","55","1","2025-04-11 14:20:36","bb671e3ae32f654b8954ea4c4635f915","","Mozilla/5.0 (X11; CrOS x86_64 14541.0.0) AppleWebKit/537.36 (KHTML, like Gecko) Chrome/134.0.0.0 Safari/537.36","WebKit","Chrome","134.0.0.0","ChromeOS","14541.0.0","https://hz8g1ckzuq.cognition.run/","en-US,en;q=0.9","ye3jehyxga7unal","68","[""White""]","No","Female","1099066.5999999996","7437","","","{""price_1"":""100"",""price_2"":""100"",""price_3"":""100""}","rating","dct","attraction_2","2","laptops","null","null","null","null","null","null","2","50","60","40","60","50","60","Processing speed","Memory (RAM)","",""
"","","","","","rating_trial_setup","html-keyboard-response","73","685547","0.0-3.0-0.35","55","1","2025-04-11 14:20:36","bb671e3ae32f654b8954ea4c4635f915","","Mozilla/5.0 (X11; CrOS x86_64 14541.0.0) AppleWebKit/537.36 (KHTML, like Gecko) Chrome/134.0.0.0 Safari/537.36","WebKit","Chrome","134.0.0.0","ChromeOS","14541.0.0","https://hz8g1ckzuq.cognition.run/","en-US,en;q=0.9","ye3jehyxga7unal","68","[""White""]","No","Female","1099066.5999999996","null","","<p></p>","null","rating","dtc","attraction_2","1","washing machines","null","null","null","null","null","null","2","","","","","","","","","",""
"","","","","","rating_trial","survey-html-form","74","696359","0.0-3.0-1.35","55","1","2025-04-11 14:20:36","bb671e3ae32f654b8954ea4c4635f915","","Mozilla/5.0 (X11; CrOS x86_64 14541.0.0) AppleWebKit/537.36 (KHTML, like Gecko) Chrome/134.0.0.0 Safari/537.36","WebKit","Chrome","134.0.0.0","ChromeOS","14541.0.0","https://hz8g1ckzuq.cognition.run/","en-US,en;q=0.9","ye3jehyxga7unal","68","[""White""]","No","Female","1099066.5999999996","10808","","","{""price_1"":""150"",""price_2"":""150"",""price_3"":""150""}","rating","dtc","attraction_2","1","washing machines","null","null","null","null","null","null","2","60","50","60","50","60","40","Average lifespan","Energy savings","",""
"","","","","","rating_trial_setup","html-keyboard-response","75","696668","0.0-3.0-0.36","55","1","2025-04-11 14:20:36","bb671e3ae32f654b8954ea4c4635f915","","Mozilla/5.0 (X11; CrOS x86_64 14541.0.0) AppleWebKit/537.36 (KHTML, like Gecko) Chrome/134.0.0.0 Safari/537.36","WebKit","Chrome","134.0.0.0","ChromeOS","14541.0.0","https://hz8g1ckzuq.cognition.run/","en-US,en;q=0.9","ye3jehyxga7unal","68","[""White""]","No","Female","1099066.5999999996","null","","<p></p>","null","rating","dtc","repulsion_2","2","microwave ovens","null","null","null","null","null","null","2","","","","","","","","","",""
"","","","","","rating_trial","survey-html-form","76","704187","0.0-3.0-1.36","55","1","2025-04-11 14:20:36","bb671e3ae32f654b8954ea4c4635f915","","Mozilla/5.0 (X11; CrOS x86_64 14541.0.0) AppleWebKit/537.36 (KHTML, like Gecko) Chrome/134.0.0.0 Safari/537.36","WebKit","Chrome","134.0.0.0","ChromeOS","14541.0.0","https://hz8g1ckzuq.cognition.run/","en-US,en;q=0.9","ye3jehyxga7unal","68","[""White""]","No","Female","1099066.5999999996","7516","","","{""price_1"":""100"",""price_2"":""100"",""price_3"":""100""}","rating","dtc","repulsion_2","2","microwave ovens","null","null","null","null","null","null","2","30","40","20","100","90","100","Warranty","Cooking power","",""
"","","","","","rating_trial_setup","html-keyboard-response","77","704495","0.0-3.0-0.37","55","1","2025-04-11 14:20:36","bb671e3ae32f654b8954ea4c4635f915","","Mozilla/5.0 (X11; CrOS x86_64 14541.0.0) AppleWebKit/537.36 (KHTML, like Gecko) Chrome/134.0.0.0 Safari/537.36","WebKit","Chrome","134.0.0.0","ChromeOS","14541.0.0","https://hz8g1ckzuq.cognition.run/","en-US,en;q=0.9","ye3jehyxga7unal","68","[""White""]","No","Female","1099066.5999999996","null","","<p></p>","null","rating","ctd","repulsion_1","1","televisions","null","null","null","null","null","null","1","","","","","","","","","",""
"","","","","","rating_trial","survey-html-form","78","717206","0.0-3.0-1.37","55","1","2025-04-11 14:20:36","bb671e3ae32f654b8954ea4c4635f915","","Mozilla/5.0 (X11; CrOS x86_64 14541.0.0) AppleWebKit/537.36 (KHTML, like Gecko) Chrome/134.0.0.0 Safari/537.36","WebKit","Chrome","134.0.0.0","ChromeOS","14541.0.0","https://hz8g1ckzuq.cognition.run/","en-US,en;q=0.9","ye3jehyxga7unal","68","[""White""]","No","Female","1099066.5999999996","12708","","","{""price_1"":""150"",""price_2"":""150"",""price_3"":""150""}","rating","ctd","repulsion_1","1","televisions","null","null","null","null","null","null","1","100","90","100","30","40","25","Screen size","Average lifespan","",""
"","","","","","rating_trial_setup","html-keyboard-response","79","717514","0.0-3.0-0.38","55","1","2025-04-11 14:20:36","bb671e3ae32f654b8954ea4c4635f915","","Mozilla/5.0 (X11; CrOS x86_64 14541.0.0) AppleWebKit/537.36 (KHTML, like Gecko) Chrome/134.0.0.0 Safari/537.36","WebKit","Chrome","134.0.0.0","ChromeOS","14541.0.0","https://hz8g1ckzuq.cognition.run/","en-US,en;q=0.9","ye3jehyxga7unal","68","[""White""]","No","Female","1099066.5999999996","null","","<p></p>","null","rating","dtc","repulsion_2","1","washing machines","null","null","null","null","null","null","1","","","","","","","","","",""
"","","","","","rating_trial","survey-html-form","80","730378","0.0-3.0-1.38","55","1","2025-04-11 14:20:36","bb671e3ae32f654b8954ea4c4635f915","","Mozilla/5.0 (X11; CrOS x86_64 14541.0.0) AppleWebKit/537.36 (KHTML, like Gecko) Chrome/134.0.0.0 Safari/537.36","WebKit","Chrome","134.0.0.0","ChromeOS","14541.0.0","https://hz8g1ckzuq.cognition.run/","en-US,en;q=0.9","ye3jehyxga7unal","68","[""White""]","No","Female","1099066.5999999996","12859","","","{""price_1"":""175"",""price_2"":""175"",""price_3"":""175""}","rating","dtc","repulsion_2","1","washing machines","null","null","null","null","null","null","1","100","90","100","30","40","20","Average lifespan","Energy savings","",""
"","","","","","rating_trial_setup","html-keyboard-response","81","730685","0.0-3.0-0.39","55","1","2025-04-11 14:20:36","bb671e3ae32f654b8954ea4c4635f915","","Mozilla/5.0 (X11; CrOS x86_64 14541.0.0) AppleWebKit/537.36 (KHTML, like Gecko) Chrome/134.0.0.0 Safari/537.36","WebKit","Chrome","134.0.0.0","ChromeOS","14541.0.0","https://hz8g1ckzuq.cognition.run/","en-US,en;q=0.9","ye3jehyxga7unal","68","[""White""]","No","Female","1099066.5999999996","null","","<p></p>","null","rating","dtc","attraction_1","1","laptops","null","null","null","null","null","null","1","","","","","","","","","",""
"","","","","","rating_trial","survey-html-form","82","737533","0.0-3.0-1.39","55","1","2025-04-11 14:20:36","bb671e3ae32f654b8954ea4c4635f915","","Mozilla/5.0 (X11; CrOS x86_64 14541.0.0) AppleWebKit/537.36 (KHTML, like Gecko) Chrome/134.0.0.0 Safari/537.36","WebKit","Chrome","134.0.0.0","ChromeOS","14541.0.0","https://hz8g1ckzuq.cognition.run/","en-US,en;q=0.9","ye3jehyxga7unal","68","[""White""]","No","Female","1099066.5999999996","6844","","","{""price_1"":""75"",""price_2"":""75"",""price_3"":""75""}","rating","dtc","attraction_1","1","laptops","null","null","null","null","null","null","1","60","50","60","50","60","45","Processing speed","Memory (RAM)","",""
"","","","","","","instructions","83","768129","0.0-4.0","55","1","2025-04-11 14:20:36","bb671e3ae32f654b8954ea4c4635f915","","Mozilla/5.0 (X11; CrOS x86_64 14541.0.0) AppleWebKit/537.36 (KHTML, like Gecko) Chrome/134.0.0.0 Safari/537.36","WebKit","Chrome","134.0.0.0","ChromeOS","14541.0.0","https://hz8g1ckzuq.cognition.run/","en-US,en;q=0.9","ye3jehyxga7unal","68","[""White""]","No","Female","1099066.5999999996","30592","[{""page_index"":0,""viewing_time"":1856},{""page_index"":1,""viewing_time"":1493},{""page_index"":2,""viewing_time"":1890},{""page_index"":3,""viewing_time"":2758},{""page_index"":4,""viewing_time"":4275},{""page_index"":5,""viewing_time"":3484},{""page_index"":6,""viewing_time"":10516},{""page_index"":7,""viewing_time"":4320}]","","","","","","","","","","","","","","","","","","","","","","","",""
"","","","","","choice_trial_setup","html-keyboard-response","84","768441","0.0-5.0-0.0","55","1","2025-04-11 14:20:36","bb671e3ae32f654b8954ea4c4635f915","","Mozilla/5.0 (X11; CrOS x86_64 14541.0.0) AppleWebKit/537.36 (KHTML, like Gecko) Chrome/134.0.0.0 Safari/537.36","WebKit","Chrome","134.0.0.0","ChromeOS","14541.0.0","https://hz8g1ckzuq.cognition.run/","en-US,en;q=0.9","ye3jehyxga7unal","68","[""White""]","No","Female","1099066.5999999996","null","","<p></p>","null","choice","tcd","repulsion_2","2","televisions","null","null","null","null","null","null","2","","","","","","","","","",""
"","","","","","choice_trial","survey-html-form","85","775886","0.0-5.0-1.0","55","1","2025-04-11 14:20:36","bb671e3ae32f654b8954ea4c4635f915","","Mozilla/5.0 (X11; CrOS x86_64 14541.0.0) AppleWebKit/537.36 (KHTML, like Gecko) Chrome/134.0.0.0 Safari/537.36","WebKit","Chrome","134.0.0.0","ChromeOS","14541.0.0","https://hz8g1ckzuq.cognition.run/","en-US,en;q=0.9","ye3jehyxga7unal","68","[""White""]","No","Female","1099066.5999999996","7431","","","{""product_choice"":""A""}","choice","tcd","repulsion_2","2","televisions","null","null","null","null","null","null","2","30","40","20","100","90","100","Screen size","Average lifespan","",""
"","","","","","choice_trial_setup","html-keyboard-response","86","776198","0.0-5.0-0.1","55","1","2025-04-11 14:20:36","bb671e3ae32f654b8954ea4c4635f915","","Mozilla/5.0 (X11; CrOS x86_64 14541.0.0) AppleWebKit/537.36 (KHTML, like Gecko) Chrome/134.0.0.0 Safari/537.36","WebKit","Chrome","134.0.0.0","ChromeOS","14541.0.0","https://hz8g1ckzuq.cognition.run/","en-US,en;q=0.9","ye3jehyxga7unal","68","[""White""]","No","Female","1099066.5999999996","null","","<p></p>","null","choice","ctd","attraction_1","1","microwave ovens","null","null","null","null","null","null","1","","","","","","","","","",""
"","","","","","choice_trial","survey-html-form","87","781144","0.0-5.0-1.1","55","1","2025-04-11 14:20:36","bb671e3ae32f654b8954ea4c4635f915","","Mozilla/5.0 (X11; CrOS x86_64 14541.0.0) AppleWebKit/537.36 (KHTML, like Gecko) Chrome/134.0.0.0 Safari/537.36","WebKit","Chrome","134.0.0.0","ChromeOS","14541.0.0","https://hz8g1ckzuq.cognition.run/","en-US,en;q=0.9","ye3jehyxga7unal","68","[""White""]","No","Female","1099066.5999999996","4933","","","{""product_choice"":""B""}","choice","ctd","attraction_1","1","microwave ovens","null","null","null","null","null","null","1","60","50","60","50","60","45","Warranty","Cooking power","",""
"","","","","","choice_trial_setup","html-keyboard-response","88","781455","0.0-5.0-0.2","55","1","2025-04-11 14:20:36","bb671e3ae32f654b8954ea4c4635f915","","Mozilla/5.0 (X11; CrOS x86_64 14541.0.0) AppleWebKit/537.36 (KHTML, like Gecko) Chrome/134.0.0.0 Safari/537.36","WebKit","Chrome","134.0.0.0","ChromeOS","14541.0.0","https://hz8g1ckzuq.cognition.run/","en-US,en;q=0.9","ye3jehyxga7unal","68","[""White""]","No","Female","1099066.5999999996","null","","<p></p>","null","choice","tdc","repulsion_2","1","laptops","null","null","null","null","null","null","2","","","","","","","","","",""
"","","","","","choice_trial","survey-html-form","89","788841","0.0-5.0-1.2","55","1","2025-04-11 14:20:36","bb671e3ae32f654b8954ea4c4635f915","","Mozilla/5.0 (X11; CrOS x86_64 14541.0.0) AppleWebKit/537.36 (KHTML, like Gecko) Chrome/134.0.0.0 Safari/537.36","WebKit","Chrome","134.0.0.0","ChromeOS","14541.0.0","https://hz8g1ckzuq.cognition.run/","en-US,en;q=0.9","ye3jehyxga7unal","68","[""White""]","No","Female","1099066.5999999996","7374","","","{""product_choice"":""A""}","choice","tdc","repulsion_2","1","laptops","null","null","null","null","null","null","2","100","90","100","30","40","20","Processing speed","Memory (RAM)","",""
"","","","","","choice_trial_setup","html-keyboard-response","90","789152","0.0-5.0-0.3","55","1","2025-04-11 14:20:36","bb671e3ae32f654b8954ea4c4635f915","","Mozilla/5.0 (X11; CrOS x86_64 14541.0.0) AppleWebKit/537.36 (KHTML, like Gecko) Chrome/134.0.0.0 Safari/537.36","WebKit","Chrome","134.0.0.0","ChromeOS","14541.0.0","https://hz8g1ckzuq.cognition.run/","en-US,en;q=0.9","ye3jehyxga7unal","68","[""White""]","No","Female","1099066.5999999996","null","","<p></p>","null","choice","dtc","repulsion_1","1","microwave ovens","null","null","null","null","null","null","2","","","","","","","","","",""
"","","","","","choice_trial","survey-html-form","91","794551","0.0-5.0-1.3","55","1","2025-04-11 14:20:36","bb671e3ae32f654b8954ea4c4635f915","","Mozilla/5.0 (X11; CrOS x86_64 14541.0.0) AppleWebKit/537.36 (KHTML, like Gecko) Chrome/134.0.0.0 Safari/537.36","WebKit","Chrome","134.0.0.0","ChromeOS","14541.0.0","https://hz8g1ckzuq.cognition.run/","en-US,en;q=0.9","ye3jehyxga7unal","68","[""White""]","No","Female","1099066.5999999996","5386","","","{""product_choice"":""B""}","choice","dtc","repulsion_1","1","microwave ovens","null","null","null","null","null","null","2","100","90","100","30","40","25","Warranty","Cooking power","",""
"","","","","","choice_trial_setup","html-keyboard-response","92","794863","0.0-5.0-0.4","55","1","2025-04-11 14:20:36","bb671e3ae32f654b8954ea4c4635f915","","Mozilla/5.0 (X11; CrOS x86_64 14541.0.0) AppleWebKit/537.36 (KHTML, like Gecko) Chrome/134.0.0.0 Safari/537.36","WebKit","Chrome","134.0.0.0","ChromeOS","14541.0.0","https://hz8g1ckzuq.cognition.run/","en-US,en;q=0.9","ye3jehyxga7unal","68","[""White""]","No","Female","1099066.5999999996","null","","<p></p>","null","choice","dtc","attraction_2","2","microwave ovens","null","null","null","null","null","null","2","","","","","","","","","",""
"","","","","","choice_trial","survey-html-form","93","799574","0.0-5.0-1.4","55","1","2025-04-11 14:20:36","bb671e3ae32f654b8954ea4c4635f915","","Mozilla/5.0 (X11; CrOS x86_64 14541.0.0) AppleWebKit/537.36 (KHTML, like Gecko) Chrome/134.0.0.0 Safari/537.36","WebKit","Chrome","134.0.0.0","ChromeOS","14541.0.0","https://hz8g1ckzuq.cognition.run/","en-US,en;q=0.9","ye3jehyxga7unal","68","[""White""]","No","Female","1099066.5999999996","4699","","","{""product_choice"":""B""}","choice","dtc","attraction_2","2","microwave ovens","null","null","null","null","null","null","2","50","60","40","60","50","60","Warranty","Cooking power","",""
"","","","","","choice_trial_setup","html-keyboard-response","94","799885","0.0-5.0-0.5","55","1","2025-04-11 14:20:36","bb671e3ae32f654b8954ea4c4635f915","","Mozilla/5.0 (X11; CrOS x86_64 14541.0.0) AppleWebKit/537.36 (KHTML, like Gecko) Chrome/134.0.0.0 Safari/537.36","WebKit","Chrome","134.0.0.0","ChromeOS","14541.0.0","https://hz8g1ckzuq.cognition.run/","en-US,en;q=0.9","ye3jehyxga7unal","68","[""White""]","No","Female","1099066.5999999996","null","","<p></p>","null","choice","bww","catch","null","washing machines","70","65","35","50","30","30","2","","","","","","","","","",""
"","","","","","choice_trial","survey-html-form","95","806582","0.0-5.0-1.5","55","1","2025-04-11 14:20:36","bb671e3ae32f654b8954ea4c4635f915","","Mozilla/5.0 (X11; CrOS x86_64 14541.0.0) AppleWebKit/537.36 (KHTML, like Gecko) Chrome/134.0.0.0 Safari/537.36","WebKit","Chrome","134.0.0.0","ChromeOS","14541.0.0","https://hz8g1ckzuq.cognition.run/","en-US,en;q=0.9","ye3jehyxga7unal","68","[""White""]","No","Female","1099066.5999999996","6684","","","{""product_choice"":""A""}","choice","bww","catch","null","washing machines","70","65","35","50","30","30","2","null","null","null","null","null","null","Average lifespan","Energy savings","",""
"","","","","","choice_trial_setup","html-keyboard-response","96","806895","0.0-5.0-0.6","55","1","2025-04-11 14:20:36","bb671e3ae32f654b8954ea4c4635f915","","Mozilla/5.0 (X11; CrOS x86_64 14541.0.0) AppleWebKit/537.36 (KHTML, like Gecko) Chrome/134.0.0.0 Safari/537.36","WebKit","Chrome","134.0.0.0","ChromeOS","14541.0.0","https://hz8g1ckzuq.cognition.run/","en-US,en;q=0.9","ye3jehyxga7unal","68","[""White""]","No","Female","1099066.5999999996","null","","<p></p>","null","choice","tdc","repulsion_1","2","televisions","null","null","null","null","null","null","2","","","","","","","","","",""
"","","","","","choice_trial","survey-html-form","97","813214","0.0-5.0-1.6","55","1","2025-04-11 14:20:36","bb671e3ae32f654b8954ea4c4635f915","","Mozilla/5.0 (X11; CrOS x86_64 14541.0.0) AppleWebKit/537.36 (KHTML, like Gecko) Chrome/134.0.0.0 Safari/537.36","WebKit","Chrome","134.0.0.0","ChromeOS","14541.0.0","https://hz8g1ckzuq.cognition.run/","en-US,en;q=0.9","ye3jehyxga7unal","68","[""White""]","No","Female","1099066.5999999996","6306","","","{""product_choice"":""C""}","choice","tdc","repulsion_1","2","televisions","null","null","null","null","null","null","2","30","40","25","100","90","100","Screen size","Average lifespan","",""
"","","","","","choice_trial_setup","html-keyboard-response","98","813525","0.0-5.0-0.7","55","1","2025-04-11 14:20:36","bb671e3ae32f654b8954ea4c4635f915","","Mozilla/5.0 (X11; CrOS x86_64 14541.0.0) AppleWebKit/537.36 (KHTML, like Gecko) Chrome/134.0.0.0 Safari/537.36","WebKit","Chrome","134.0.0.0","ChromeOS","14541.0.0","https://hz8g1ckzuq.cognition.run/","en-US,en;q=0.9","ye3jehyxga7unal","68","[""White""]","No","Female","1099066.5999999996","null","","<p></p>","null","choice","ctd","repulsion_1","1","televisions","null","null","null","null","null","null","2","","","","","","","","","",""
"","","","","","choice_trial","survey-html-form","99","818112","0.0-5.0-1.7","55","1","2025-04-11 14:20:36","bb671e3ae32f654b8954ea4c4635f915","","Mozilla/5.0 (X11; CrOS x86_64 14541.0.0) AppleWebKit/537.36 (KHTML, like Gecko) Chrome/134.0.0.0 Safari/537.36","WebKit","Chrome","134.0.0.0","ChromeOS","14541.0.0","https://hz8g1ckzuq.cognition.run/","en-US,en;q=0.9","ye3jehyxga7unal","68","[""White""]","No","Female","1099066.5999999996","4575","","","{""product_choice"":""B""}","choice","ctd","repulsion_1","1","televisions","null","null","null","null","null","null","2","100","90","100","30","40","25","Screen size","Average lifespan","",""
"","","","","","choice_trial_setup","html-keyboard-response","100","818424","0.0-5.0-0.8","55","1","2025-04-11 14:20:36","bb671e3ae32f654b8954ea4c4635f915","","Mozilla/5.0 (X11; CrOS x86_64 14541.0.0) AppleWebKit/537.36 (KHTML, like Gecko) Chrome/134.0.0.0 Safari/537.36","WebKit","Chrome","134.0.0.0","ChromeOS","14541.0.0","https://hz8g1ckzuq.cognition.run/","en-US,en;q=0.9","ye3jehyxga7unal","68","[""White""]","No","Female","1099066.5999999996","null","","<p></p>","null","choice","tdc","repulsion_1","2","washing machines","null","null","null","null","null","null","2","","","","","","","","","",""
"","","","","","choice_trial","survey-html-form","101","828410","0.0-5.0-1.8","55","1","2025-04-11 14:20:36","bb671e3ae32f654b8954ea4c4635f915","","Mozilla/5.0 (X11; CrOS x86_64 14541.0.0) AppleWebKit/537.36 (KHTML, like Gecko) Chrome/134.0.0.0 Safari/537.36","WebKit","Chrome","134.0.0.0","ChromeOS","14541.0.0","https://hz8g1ckzuq.cognition.run/","en-US,en;q=0.9","ye3jehyxga7unal","68","[""White""]","No","Female","1099066.5999999996","9973","","","{""product_choice"":""C""}","choice","tdc","repulsion_1","2","washing machines","null","null","null","null","null","null","2","30","40","25","100","90","100","Average lifespan","Energy savings","",""
"","","","","","choice_trial_setup","html-keyboard-response","102","828722","0.0-5.0-0.9","55","1","2025-04-11 14:20:36","bb671e3ae32f654b8954ea4c4635f915","","Mozilla/5.0 (X11; CrOS x86_64 14541.0.0) AppleWebKit/537.36 (KHTML, like Gecko) Chrome/134.0.0.0 Safari/537.36","WebKit","Chrome","134.0.0.0","ChromeOS","14541.0.0","https://hz8g1ckzuq.cognition.run/","en-US,en;q=0.9","ye3jehyxga7unal","68","[""White""]","No","Female","1099066.5999999996","null","","<p></p>","null","choice","wbw","catch","null","laptops","60","75","50","20","15","50","2","","","","","","","","","",""
"","","","","","choice_trial","survey-html-form","103","835254","0.0-5.0-1.9","55","1","2025-04-11 14:20:36","bb671e3ae32f654b8954ea4c4635f915","","Mozilla/5.0 (X11; CrOS x86_64 14541.0.0) AppleWebKit/537.36 (KHTML, like Gecko) Chrome/134.0.0.0 Safari/537.36","WebKit","Chrome","134.0.0.0","ChromeOS","14541.0.0","https://hz8g1ckzuq.cognition.run/","en-US,en;q=0.9","ye3jehyxga7unal","68","[""White""]","No","Female","1099066.5999999996","6519","","","{""product_choice"":""B""}","choice","wbw","catch","null","laptops","60","75","50","20","15","50","2","null","null","null","null","null","null","Processing speed","Memory (RAM)","",""
"","","","","","choice_trial_setup","html-keyboard-response","104","835566","0.0-5.0-0.10","55","1","2025-04-11 14:20:36","bb671e3ae32f654b8954ea4c4635f915","","Mozilla/5.0 (X11; CrOS x86_64 14541.0.0) AppleWebKit/537.36 (KHTML, like Gecko) Chrome/134.0.0.0 Safari/537.36","WebKit","Chrome","134.0.0.0","ChromeOS","14541.0.0","https://hz8g1ckzuq.cognition.run/","en-US,en;q=0.9","ye3jehyxga7unal","68","[""White""]","No","Female","1099066.5999999996","null","","<p></p>","null","choice","wwb","catch","null","televisions","75","65","20","15","45","50","1","","","","","","","","","",""
"","","","","","choice_trial","survey-html-form","105","839964","0.0-5.0-1.10","55","1","2025-04-11 14:20:36","bb671e3ae32f654b8954ea4c4635f915","","Mozilla/5.0 (X11; CrOS x86_64 14541.0.0) AppleWebKit/537.36 (KHTML, like Gecko) Chrome/134.0.0.0 Safari/537.36","WebKit","Chrome","134.0.0.0","ChromeOS","14541.0.0","https://hz8g1ckzuq.cognition.run/","en-US,en;q=0.9","ye3jehyxga7unal","68","[""White""]","No","Female","1099066.5999999996","4384","","","{""product_choice"":""C""}","choice","wwb","catch","null","televisions","75","65","20","15","45","50","1","null","null","null","null","null","null","Screen size","Average lifespan","",""
"","","","","","choice_trial_setup","html-keyboard-response","106","840276","0.0-5.0-0.11","55","1","2025-04-11 14:20:36","bb671e3ae32f654b8954ea4c4635f915","","Mozilla/5.0 (X11; CrOS x86_64 14541.0.0) AppleWebKit/537.36 (KHTML, like Gecko) Chrome/134.0.0.0 Safari/537.36","WebKit","Chrome","134.0.0.0","ChromeOS","14541.0.0","https://hz8g1ckzuq.cognition.run/","en-US,en;q=0.9","ye3jehyxga7unal","68","[""White""]","No","Female","1099066.5999999996","null","","<p></p>","null","choice","tcd","attraction_2","2","televisions","null","null","null","null","null","null","2","","","","","","","","","",""
"","","","","","choice_trial","survey-html-form","107","848284","0.0-5.0-1.11","55","1","2025-04-11 14:20:36","bb671e3ae32f654b8954ea4c4635f915","","Mozilla/5.0 (X11; CrOS x86_64 14541.0.0) AppleWebKit/537.36 (KHTML, like Gecko) Chrome/134.0.0.0 Safari/537.36","WebKit","Chrome","134.0.0.0","ChromeOS","14541.0.0","https://hz8g1ckzuq.cognition.run/","en-US,en;q=0.9","ye3jehyxga7unal","68","[""White""]","No","Female","1099066.5999999996","7995","","","{""product_choice"":""B""}","choice","tcd","attraction_2","2","televisions","null","null","null","null","null","null","2","50","60","40","60","50","60","Screen size","Average lifespan","",""
"","","","","","choice_trial_setup","html-keyboard-response","108","848596","0.0-5.0-0.12","55","1","2025-04-11 14:20:36","bb671e3ae32f654b8954ea4c4635f915","","Mozilla/5.0 (X11; CrOS x86_64 14541.0.0) AppleWebKit/537.36 (KHTML, like Gecko) Chrome/134.0.0.0 Safari/537.36","WebKit","Chrome","134.0.0.0","ChromeOS","14541.0.0","https://hz8g1ckzuq.cognition.run/","en-US,en;q=0.9","ye3jehyxga7unal","68","[""White""]","No","Female","1099066.5999999996","null","","<p></p>","null","choice","cdt","attraction_1","1","laptops","null","null","null","null","null","null","1","","","","","","","","","",""
"","","","","","choice_trial","survey-html-form","109","855136","0.0-5.0-1.12","55","1","2025-04-11 14:20:36","bb671e3ae32f654b8954ea4c4635f915","","Mozilla/5.0 (X11; CrOS x86_64 14541.0.0) AppleWebKit/537.36 (KHTML, like Gecko) Chrome/134.0.0.0 Safari/537.36","WebKit","Chrome","134.0.0.0","ChromeOS","14541.0.0","https://hz8g1ckzuq.cognition.run/","en-US,en;q=0.9","ye3jehyxga7unal","68","[""White""]","No","Female","1099066.5999999996","6525","","","{""product_choice"":""C""}","choice","cdt","attraction_1","1","laptops","null","null","null","null","null","null","1","60","50","60","50","60","45","Processing speed","Memory (RAM)","",""
"","","","","","choice_trial_setup","html-keyboard-response","110","855458","0.0-5.0-0.13","55","1","2025-04-11 14:20:36","bb671e3ae32f654b8954ea4c4635f915","","Mozilla/5.0 (X11; CrOS x86_64 14541.0.0) AppleWebKit/537.36 (KHTML, like Gecko) Chrome/134.0.0.0 Safari/537.36","WebKit","Chrome","134.0.0.0","ChromeOS","14541.0.0","https://hz8g1ckzuq.cognition.run/","en-US,en;q=0.9","ye3jehyxga7unal","68","[""White""]","No","Female","1099066.5999999996","null","","<p></p>","null","choice","ctd","repulsion_1","2","laptops","null","null","null","null","null","null","2","","","","","","","","","",""
"","","","","","choice_trial","survey-html-form","111","861150","0.0-5.0-1.13","55","1","2025-04-11 14:20:36","bb671e3ae32f654b8954ea4c4635f915","","Mozilla/5.0 (X11; CrOS x86_64 14541.0.0) AppleWebKit/537.36 (KHTML, like Gecko) Chrome/134.0.0.0 Safari/537.36","WebKit","Chrome","134.0.0.0","ChromeOS","14541.0.0","https://hz8g1ckzuq.cognition.run/","en-US,en;q=0.9","ye3jehyxga7unal","68","[""White""]","No","Female","1099066.5999999996","5678","","","{""product_choice"":""A""}","choice","ctd","repulsion_1","2","laptops","null","null","null","null","null","null","2","30","40","25","100","90","100","Processing speed","Memory (RAM)","",""
"","","","","","choice_trial_setup","html-keyboard-response","112","861463","0.0-5.0-0.14","55","1","2025-04-11 14:20:36","bb671e3ae32f654b8954ea4c4635f915","","Mozilla/5.0 (X11; CrOS x86_64 14541.0.0) AppleWebKit/537.36 (KHTML, like Gecko) Chrome/134.0.0.0 Safari/537.36","WebKit","Chrome","134.0.0.0","ChromeOS","14541.0.0","https://hz8g1ckzuq.cognition.run/","en-US,en;q=0.9","ye3jehyxga7unal","68","[""White""]","No","Female","1099066.5999999996","null","","<p></p>","null","choice","dtc","attraction_1","2","microwave ovens","null","null","null","null","null","null","2","","","","","","","","","",""
"","","","","","choice_trial","survey-html-form","113","866683","0.0-5.0-1.14","55","1","2025-04-11 14:20:36","bb671e3ae32f654b8954ea4c4635f915","","Mozilla/5.0 (X11; CrOS x86_64 14541.0.0) AppleWebKit/537.36 (KHTML, like Gecko) Chrome/134.0.0.0 Safari/537.36","WebKit","Chrome","134.0.0.0","ChromeOS","14541.0.0","https://hz8g1ckzuq.cognition.run/","en-US,en;q=0.9","ye3jehyxga7unal","68","[""White""]","No","Female","1099066.5999999996","5206","","","{""product_choice"":""B""}","choice","dtc","attraction_1","2","microwave ovens","null","null","null","null","null","null","2","50","60","45","60","50","60","Warranty","Cooking power","",""
"","","","","","choice_trial_setup","html-keyboard-response","114","866997","0.0-5.0-0.15","55","1","2025-04-11 14:20:36","bb671e3ae32f654b8954ea4c4635f915","","Mozilla/5.0 (X11; CrOS x86_64 14541.0.0) AppleWebKit/537.36 (KHTML, like Gecko) Chrome/134.0.0.0 Safari/537.36","WebKit","Chrome","134.0.0.0","ChromeOS","14541.0.0","https://hz8g1ckzuq.cognition.run/","en-US,en;q=0.9","ye3jehyxga7unal","68","[""White""]","No","Female","1099066.5999999996","null","","<p></p>","null","choice","tdc","repulsion_1","1","washing machines","null","null","null","null","null","null","1","","","","","","","","","",""
"","","","","","choice_trial","survey-html-form","115","874642","0.0-5.0-1.15","55","1","2025-04-11 14:20:36","bb671e3ae32f654b8954ea4c4635f915","","Mozilla/5.0 (X11; CrOS x86_64 14541.0.0) AppleWebKit/537.36 (KHTML, like Gecko) Chrome/134.0.0.0 Safari/537.36","WebKit","Chrome","134.0.0.0","ChromeOS","14541.0.0","https://hz8g1ckzuq.cognition.run/","en-US,en;q=0.9","ye3jehyxga7unal","68","[""White""]","No","Female","1099066.5999999996","7632","","","{""product_choice"":""C""}","choice","tdc","repulsion_1","1","washing machines","null","null","null","null","null","null","1","100","90","100","30","40","25","Average lifespan","Energy savings","",""
"","","","","","choice_trial_setup","html-keyboard-response","116","874955","0.0-5.0-0.16","55","1","2025-04-11 14:20:36","bb671e3ae32f654b8954ea4c4635f915","","Mozilla/5.0 (X11; CrOS x86_64 14541.0.0) AppleWebKit/537.36 (KHTML, like Gecko) Chrome/134.0.0.0 Safari/537.36","WebKit","Chrome","134.0.0.0","ChromeOS","14541.0.0","https://hz8g1ckzuq.cognition.run/","en-US,en;q=0.9","ye3jehyxga7unal","68","[""White""]","No","Female","1099066.5999999996","null","","<p></p>","null","choice","wbw","catch","null","microwave ovens","75","75","50","50","15","45","2","","","","","","","","","",""
"","","","","","choice_trial","survey-html-form","117","879715","0.0-5.0-1.16","55","1","2025-04-11 14:20:36","bb671e3ae32f654b8954ea4c4635f915","","Mozilla/5.0 (X11; CrOS x86_64 14541.0.0) AppleWebKit/537.36 (KHTML, like Gecko) Chrome/134.0.0.0 Safari/537.36","WebKit","Chrome","134.0.0.0","ChromeOS","14541.0.0","https://hz8g1ckzuq.cognition.run/","en-US,en;q=0.9","ye3jehyxga7unal","68","[""White""]","No","Female","1099066.5999999996","4745","","","{""product_choice"":""B""}","choice","wbw","catch","null","microwave ovens","75","75","50","50","15","45","2","null","null","null","null","null","null","Warranty","Cooking power","",""
"","","","","","choice_trial_setup","html-keyboard-response","118","880028","0.0-5.0-0.17","55","1","2025-04-11 14:20:36","bb671e3ae32f654b8954ea4c4635f915","","Mozilla/5.0 (X11; CrOS x86_64 14541.0.0) AppleWebKit/537.36 (KHTML, like Gecko) Chrome/134.0.0.0 Safari/537.36","WebKit","Chrome","134.0.0.0","ChromeOS","14541.0.0","https://hz8g1ckzuq.cognition.run/","en-US,en;q=0.9","ye3jehyxga7unal","68","[""White""]","No","Female","1099066.5999999996","null","","<p></p>","null","choice","ctd","attraction_1","2","laptops","null","null","null","null","null","null","1","","","","","","","","","",""
"","","","","","choice_trial","survey-html-form","119","886260","0.0-5.0-1.17","55","1","2025-04-11 14:20:36","bb671e3ae32f654b8954ea4c4635f915","","Mozilla/5.0 (X11; CrOS x86_64 14541.0.0) AppleWebKit/537.36 (KHTML, like Gecko) Chrome/134.0.0.0 Safari/537.36","WebKit","Chrome","134.0.0.0","ChromeOS","14541.0.0","https://hz8g1ckzuq.cognition.run/","en-US,en;q=0.9","ye3jehyxga7unal","68","[""White""]","No","Female","1099066.5999999996","6217","","","{""product_choice"":""A""}","choice","ctd","attraction_1","2","laptops","null","null","null","null","null","null","1","50","60","45","60","50","60","Processing speed","Memory (RAM)","",""
"","","","","","choice_trial_setup","html-keyboard-response","120","886574","0.0-5.0-0.18","55","1","2025-04-11 14:20:36","bb671e3ae32f654b8954ea4c4635f915","","Mozilla/5.0 (X11; CrOS x86_64 14541.0.0) AppleWebKit/537.36 (KHTML, like Gecko) Chrome/134.0.0.0 Safari/537.36","WebKit","Chrome","134.0.0.0","ChromeOS","14541.0.0","https://hz8g1ckzuq.cognition.run/","en-US,en;q=0.9","ye3jehyxga7unal","68","[""White""]","No","Female","1099066.5999999996","null","","<p></p>","null","choice","ctd","repulsion_2","2","laptops","null","null","null","null","null","null","1","","","","","","","","","",""
"","","","","","choice_trial","survey-html-form","121","892134","0.0-5.0-1.18","55","1","2025-04-11 14:20:36","bb671e3ae32f654b8954ea4c4635f915","","Mozilla/5.0 (X11; CrOS x86_64 14541.0.0) AppleWebKit/537.36 (KHTML, like Gecko) Chrome/134.0.0.0 Safari/537.36","WebKit","Chrome","134.0.0.0","ChromeOS","14541.0.0","https://hz8g1ckzuq.cognition.run/","en-US,en;q=0.9","ye3jehyxga7unal","68","[""White""]","No","Female","1099066.5999999996","5545","","","{""product_choice"":""A""}","choice","ctd","repulsion_2","2","laptops","null","null","null","null","null","null","1","30","40","20","100","90","100","Processing speed","Memory (RAM)","",""
"","","","","","choice_trial_setup","html-keyboard-response","122","892448","0.0-5.0-0.19","55","1","2025-04-11 14:20:36","bb671e3ae32f654b8954ea4c4635f915","","Mozilla/5.0 (X11; CrOS x86_64 14541.0.0) AppleWebKit/537.36 (KHTML, like Gecko) Chrome/134.0.0.0 Safari/537.36","WebKit","Chrome","134.0.0.0","ChromeOS","14541.0.0","https://hz8g1ckzuq.cognition.run/","en-US,en;q=0.9","ye3jehyxga7unal","68","[""White""]","No","Female","1099066.5999999996","null","","<p></p>","null","choice","dtc","attraction_1","2","washing machines","null","null","null","null","null","null","1","","","","","","","","","",""
"","","","","","choice_trial","survey-html-form","123","902682","0.0-5.0-1.19","55","1","2025-04-11 14:20:36","bb671e3ae32f654b8954ea4c4635f915","","Mozilla/5.0 (X11; CrOS x86_64 14541.0.0) AppleWebKit/537.36 (KHTML, like Gecko) Chrome/134.0.0.0 Safari/537.36","WebKit","Chrome","134.0.0.0","ChromeOS","14541.0.0","https://hz8g1ckzuq.cognition.run/","en-US,en;q=0.9","ye3jehyxga7unal","68","[""White""]","No","Female","1099066.5999999996","10220","","","{""product_choice"":""B""}","choice","dtc","attraction_1","2","washing machines","null","null","null","null","null","null","1","50","60","45","60","50","60","Average lifespan","Energy savings","",""
"","","","","","choice_trial_setup","html-keyboard-response","124","902997","0.0-5.0-0.20","55","1","2025-04-11 14:20:36","bb671e3ae32f654b8954ea4c4635f915","","Mozilla/5.0 (X11; CrOS x86_64 14541.0.0) AppleWebKit/537.36 (KHTML, like Gecko) Chrome/134.0.0.0 Safari/537.36","WebKit","Chrome","134.0.0.0","ChromeOS","14541.0.0","https://hz8g1ckzuq.cognition.run/","en-US,en;q=0.9","ye3jehyxga7unal","68","[""White""]","No","Female","1099066.5999999996","null","","<p></p>","null","choice","dtc","repulsion_2","2","washing machines","null","null","null","null","null","null","2","","","","","","","","","",""
"","","","","","choice_trial","survey-html-form","125","909245","0.0-5.0-1.20","55","1","2025-04-11 14:20:36","bb671e3ae32f654b8954ea4c4635f915","","Mozilla/5.0 (X11; CrOS x86_64 14541.0.0) AppleWebKit/537.36 (KHTML, like Gecko) Chrome/134.0.0.0 Safari/537.36","WebKit","Chrome","134.0.0.0","ChromeOS","14541.0.0","https://hz8g1ckzuq.cognition.run/","en-US,en;q=0.9","ye3jehyxga7unal","68","[""White""]","No","Female","1099066.5999999996","6232","","","{""product_choice"":""C""}","choice","dtc","repulsion_2","2","washing machines","null","null","null","null","null","null","2","30","40","20","100","90","100","Average lifespan","Energy savings","",""
"","","","","","choice_trial_setup","html-keyboard-response","126","909560","0.0-5.0-0.21","55","1","2025-04-11 14:20:36","bb671e3ae32f654b8954ea4c4635f915","","Mozilla/5.0 (X11; CrOS x86_64 14541.0.0) AppleWebKit/537.36 (KHTML, like Gecko) Chrome/134.0.0.0 Safari/537.36","WebKit","Chrome","134.0.0.0","ChromeOS","14541.0.0","https://hz8g1ckzuq.cognition.run/","en-US,en;q=0.9","ye3jehyxga7unal","68","[""White""]","No","Female","1099066.5999999996","null","","<p></p>","null","choice","cdt","attraction_2","1","microwave ovens","null","null","null","null","null","null","1","","","","","","","","","",""
"","","","","","choice_trial","survey-html-form","127","914204","0.0-5.0-1.21","55","1","2025-04-11 14:20:36","bb671e3ae32f654b8954ea4c4635f915","","Mozilla/5.0 (X11; CrOS x86_64 14541.0.0) AppleWebKit/537.36 (KHTML, like Gecko) Chrome/134.0.0.0 Safari/537.36","WebKit","Chrome","134.0.0.0","ChromeOS","14541.0.0","https://hz8g1ckzuq.cognition.run/","en-US,en;q=0.9","ye3jehyxga7unal","68","[""White""]","No","Female","1099066.5999999996","4629","","","{""product_choice"":""A""}","choice","cdt","attraction_2","1","microwave ovens","null","null","null","null","null","null","1","60","50","60","50","60","40","Warranty","Cooking power","",""
"","","","","","choice_trial_setup","html-keyboard-response","128","914518","0.0-5.0-0.22","55","1","2025-04-11 14:20:36","bb671e3ae32f654b8954ea4c4635f915","","Mozilla/5.0 (X11; CrOS x86_64 14541.0.0) AppleWebKit/537.36 (KHTML, like Gecko) Chrome/134.0.0.0 Safari/537.36","WebKit","Chrome","134.0.0.0","ChromeOS","14541.0.0","https://hz8g1ckzuq.cognition.run/","en-US,en;q=0.9","ye3jehyxga7unal","68","[""White""]","No","Female","1099066.5999999996","null","","<p></p>","null","choice","ctd","repulsion_1","2","microwave ovens","null","null","null","null","null","null","2","","","","","","","","","",""
"","","","","","choice_trial","survey-html-form","129","918610","0.0-5.0-1.22","55","1","2025-04-11 14:20:36","bb671e3ae32f654b8954ea4c4635f915","","Mozilla/5.0 (X11; CrOS x86_64 14541.0.0) AppleWebKit/537.36 (KHTML, like Gecko) Chrome/134.0.0.0 Safari/537.36","WebKit","Chrome","134.0.0.0","ChromeOS","14541.0.0","https://hz8g1ckzuq.cognition.run/","en-US,en;q=0.9","ye3jehyxga7unal","68","[""White""]","No","Female","1099066.5999999996","4077","","","{""product_choice"":""B""}","choice","ctd","repulsion_1","2","microwave ovens","null","null","null","null","null","null","2","30","40","25","100","90","100","Warranty","Cooking power","",""
"","","","","","choice_trial_setup","html-keyboard-response","130","918925","0.0-5.0-0.23","55","1","2025-04-11 14:20:36","bb671e3ae32f654b8954ea4c4635f915","","Mozilla/5.0 (X11; CrOS x86_64 14541.0.0) AppleWebKit/537.36 (KHTML, like Gecko) Chrome/134.0.0.0 Safari/537.36","WebKit","Chrome","134.0.0.0","ChromeOS","14541.0.0","https://hz8g1ckzuq.cognition.run/","en-US,en;q=0.9","ye3jehyxga7unal","68","[""White""]","No","Female","1099066.5999999996","null","","<p></p>","null","choice","ctd","repulsion_2","1","microwave ovens","null","null","null","null","null","null","1","","","","","","","","","",""
"","","","","","choice_trial","survey-html-form","131","923228","0.0-5.0-1.23","55","1","2025-04-11 14:20:36","bb671e3ae32f654b8954ea4c4635f915","","Mozilla/5.0 (X11; CrOS x86_64 14541.0.0) AppleWebKit/537.36 (KHTML, like Gecko) Chrome/134.0.0.0 Safari/537.36","WebKit","Chrome","134.0.0.0","ChromeOS","14541.0.0","https://hz8g1ckzuq.cognition.run/","en-US,en;q=0.9","ye3jehyxga7unal","68","[""White""]","No","Female","1099066.5999999996","4287","","","{""product_choice"":""A""}","choice","ctd","repulsion_2","1","microwave ovens","null","null","null","null","null","null","1","100","90","100","30","40","20","Warranty","Cooking power","",""
"","","","","","choice_trial_setup","html-keyboard-response","132","923543","0.0-5.0-0.24","55","1","2025-04-11 14:20:36","bb671e3ae32f654b8954ea4c4635f915","","Mozilla/5.0 (X11; CrOS x86_64 14541.0.0) AppleWebKit/537.36 (KHTML, like Gecko) Chrome/134.0.0.0 Safari/537.36","WebKit","Chrome","134.0.0.0","ChromeOS","14541.0.0","https://hz8g1ckzuq.cognition.run/","en-US,en;q=0.9","ye3jehyxga7unal","68","[""White""]","No","Female","1099066.5999999996","null","","<p></p>","null","choice","tdc","attraction_2","2","laptops","null","null","null","null","null","null","2","","","","","","","","","",""
"","","","","","choice_trial","survey-html-form","133","929143","0.0-5.0-1.24","55","1","2025-04-11 14:20:36","bb671e3ae32f654b8954ea4c4635f915","","Mozilla/5.0 (X11; CrOS x86_64 14541.0.0) AppleWebKit/537.36 (KHTML, like Gecko) Chrome/134.0.0.0 Safari/537.36","WebKit","Chrome","134.0.0.0","ChromeOS","14541.0.0","https://hz8g1ckzuq.cognition.run/","en-US,en;q=0.9","ye3jehyxga7unal","68","[""White""]","No","Female","1099066.5999999996","5584","","","{""product_choice"":""C""}","choice","tdc","attraction_2","2","laptops","null","null","null","null","null","null","2","50","60","40","60","50","60","Processing speed","Memory (RAM)","",""
"","","","","","choice_trial_setup","html-keyboard-response","134","929457","0.0-5.0-0.25","55","1","2025-04-11 14:20:36","bb671e3ae32f654b8954ea4c4635f915","","Mozilla/5.0 (X11; CrOS x86_64 14541.0.0) AppleWebKit/537.36 (KHTML, like Gecko) Chrome/134.0.0.0 Safari/537.36","WebKit","Chrome","134.0.0.0","ChromeOS","14541.0.0","https://hz8g1ckzuq.cognition.run/","en-US,en;q=0.9","ye3jehyxga7unal","68","[""White""]","No","Female","1099066.5999999996","null","","<p></p>","null","choice","tcd","attraction_1","1","washing machines","null","null","null","null","null","null","1","","","","","","","","","",""
"","","","","","choice_trial","survey-html-form","135","934102","0.0-5.0-1.25","55","1","2025-04-11 14:20:36","bb671e3ae32f654b8954ea4c4635f915","","Mozilla/5.0 (X11; CrOS x86_64 14541.0.0) AppleWebKit/537.36 (KHTML, like Gecko) Chrome/134.0.0.0 Safari/537.36","WebKit","Chrome","134.0.0.0","ChromeOS","14541.0.0","https://hz8g1ckzuq.cognition.run/","en-US,en;q=0.9","ye3jehyxga7unal","68","[""White""]","No","Female","1099066.5999999996","4629","","","{""product_choice"":""B""}","choice","tcd","attraction_1","1","washing machines","null","null","null","null","null","null","1","60","50","60","50","60","45","Average lifespan","Energy savings","",""
"","","","","","choice_trial_setup","html-keyboard-response","136","934417","0.0-5.0-0.26","55","1","2025-04-11 14:20:36","bb671e3ae32f654b8954ea4c4635f915","","Mozilla/5.0 (X11; CrOS x86_64 14541.0.0) AppleWebKit/537.36 (KHTML, like Gecko) Chrome/134.0.0.0 Safari/537.36","WebKit","Chrome","134.0.0.0","ChromeOS","14541.0.0","https://hz8g1ckzuq.cognition.run/","en-US,en;q=0.9","ye3jehyxga7unal","68","[""White""]","No","Female","1099066.5999999996","null","","<p></p>","null","choice","tcd","repulsion_2","2","microwave ovens","null","null","null","null","null","null","1","","","","","","","","","",""
"","","","","","choice_trial","survey-html-form","137","938500","0.0-5.0-1.26","55","1","2025-04-11 14:20:36","bb671e3ae32f654b8954ea4c4635f915","","Mozilla/5.0 (X11; CrOS x86_64 14541.0.0) AppleWebKit/537.36 (KHTML, like Gecko) Chrome/134.0.0.0 Safari/537.36","WebKit","Chrome","134.0.0.0","ChromeOS","14541.0.0","https://hz8g1ckzuq.cognition.run/","en-US,en;q=0.9","ye3jehyxga7unal","68","[""White""]","No","Female","1099066.5999999996","4069","","","{""product_choice"":""A""}","choice","tcd","repulsion_2","2","microwave ovens","null","null","null","null","null","null","1","30","40","20","100","90","100","Warranty","Cooking power","",""
"","","","","","choice_trial_setup","html-keyboard-response","138","938818","0.0-5.0-0.27","55","1","2025-04-11 14:20:36","bb671e3ae32f654b8954ea4c4635f915","","Mozilla/5.0 (X11; CrOS x86_64 14541.0.0) AppleWebKit/537.36 (KHTML, like Gecko) Chrome/134.0.0.0 Safari/537.36","WebKit","Chrome","134.0.0.0","ChromeOS","14541.0.0","https://hz8g1ckzuq.cognition.run/","en-US,en;q=0.9","ye3jehyxga7unal","68","[""White""]","No","Female","1099066.5999999996","null","","<p></p>","null","choice","wbw","catch","null","televisions","85","80","5","20","10","45","1","","","","","","","","","",""
"","","","","","choice_trial","survey-html-form","139","946195","0.0-5.0-1.27","55","1","2025-04-11 14:20:36","bb671e3ae32f654b8954ea4c4635f915","","Mozilla/5.0 (X11; CrOS x86_64 14541.0.0) AppleWebKit/537.36 (KHTML, like Gecko) Chrome/134.0.0.0 Safari/537.36","WebKit","Chrome","134.0.0.0","ChromeOS","14541.0.0","https://hz8g1ckzuq.cognition.run/","en-US,en;q=0.9","ye3jehyxga7unal","68","[""White""]","No","Female","1099066.5999999996","7361","","","{""product_choice"":""B""}","choice","wbw","catch","null","televisions","85","80","5","20","10","45","1","null","null","null","null","null","null","Screen size","Average lifespan","",""
"","","","","","choice_trial_setup","html-keyboard-response","140","946510","0.0-5.0-0.28","55","1","2025-04-11 14:20:36","bb671e3ae32f654b8954ea4c4635f915","","Mozilla/5.0 (X11; CrOS x86_64 14541.0.0) AppleWebKit/537.36 (KHTML, like Gecko) Chrome/134.0.0.0 Safari/537.36","WebKit","Chrome","134.0.0.0","ChromeOS","14541.0.0","https://hz8g1ckzuq.cognition.run/","en-US,en;q=0.9","ye3jehyxga7unal","68","[""White""]","No","Female","1099066.5999999996","null","","<p></p>","null","choice","ctd","repulsion_1","1","laptops","null","null","null","null","null","null","1","","","","","","","","","",""
"","","","","","choice_trial","survey-html-form","141","954015","0.0-5.0-1.28","55","1","2025-04-11 14:20:36","bb671e3ae32f654b8954ea4c4635f915","","Mozilla/5.0 (X11; CrOS x86_64 14541.0.0) AppleWebKit/537.36 (KHTML, like Gecko) Chrome/134.0.0.0 Safari/537.36","WebKit","Chrome","134.0.0.0","ChromeOS","14541.0.0","https://hz8g1ckzuq.cognition.run/","en-US,en;q=0.9","ye3jehyxga7unal","68","[""White""]","No","Female","1099066.5999999996","7490","","","{""product_choice"":""B""}","choice","ctd","repulsion_1","1","laptops","null","null","null","null","null","null","1","100","90","100","30","40","25","Processing speed","Memory (RAM)","",""
"","","","","","choice_trial_setup","html-keyboard-response","142","954330","0.0-5.0-0.29","55","1","2025-04-11 14:20:36","bb671e3ae32f654b8954ea4c4635f915","","Mozilla/5.0 (X11; CrOS x86_64 14541.0.0) AppleWebKit/537.36 (KHTML, like Gecko) Chrome/134.0.0.0 Safari/537.36","WebKit","Chrome","134.0.0.0","ChromeOS","14541.0.0","https://hz8g1ckzuq.cognition.run/","en-US,en;q=0.9","ye3jehyxga7unal","68","[""White""]","No","Female","1099066.5999999996","null","","<p></p>","null","choice","tcd","attraction_2","1","laptops","null","null","null","null","null","null","2","","","","","","","","","",""
"","","","","","choice_trial","survey-html-form","143","958594","0.0-5.0-1.29","55","1","2025-04-11 14:20:36","bb671e3ae32f654b8954ea4c4635f915","","Mozilla/5.0 (X11; CrOS x86_64 14541.0.0) AppleWebKit/537.36 (KHTML, like Gecko) Chrome/134.0.0.0 Safari/537.36","WebKit","Chrome","134.0.0.0","ChromeOS","14541.0.0","https://hz8g1ckzuq.cognition.run/","en-US,en;q=0.9","ye3jehyxga7unal","68","[""White""]","No","Female","1099066.5999999996","4246","","","{""product_choice"":""A""}","choice","tcd","attraction_2","1","laptops","null","null","null","null","null","null","2","60","50","60","50","60","40","Processing speed","Memory (RAM)","",""
"","","","","","choice_trial_setup","html-keyboard-response","144","958910","0.0-5.0-0.30","55","1","2025-04-11 14:20:36","bb671e3ae32f654b8954ea4c4635f915","","Mozilla/5.0 (X11; CrOS x86_64 14541.0.0) AppleWebKit/537.36 (KHTML, like Gecko) Chrome/134.0.0.0 Safari/537.36","WebKit","Chrome","134.0.0.0","ChromeOS","14541.0.0","https://hz8g1ckzuq.cognition.run/","en-US,en;q=0.9","ye3jehyxga7unal","68","[""White""]","No","Female","1099066.5999999996","null","","<p></p>","null","choice","ctd","repulsion_2","1","washing machines","null","null","null","null","null","null","2","","","","","","","","","",""
"","","","","","choice_trial","survey-html-form","145","965728","0.0-5.0-1.30","55","1","2025-04-11 14:20:36","bb671e3ae32f654b8954ea4c4635f915","","Mozilla/5.0 (X11; CrOS x86_64 14541.0.0) AppleWebKit/537.36 (KHTML, like Gecko) Chrome/134.0.0.0 Safari/537.36","WebKit","Chrome","134.0.0.0","ChromeOS","14541.0.0","https://hz8g1ckzuq.cognition.run/","en-US,en;q=0.9","ye3jehyxga7unal","68","[""White""]","No","Female","1099066.5999999996","6800","","","{""product_choice"":""A""}","choice","ctd","repulsion_2","1","washing machines","null","null","null","null","null","null","2","100","90","100","30","40","20","Average lifespan","Energy savings","",""
"","","","","","choice_trial_setup","html-keyboard-response","146","966045","0.0-5.0-0.31","55","1","2025-04-11 14:20:36","bb671e3ae32f654b8954ea4c4635f915","","Mozilla/5.0 (X11; CrOS x86_64 14541.0.0) AppleWebKit/537.36 (KHTML, like Gecko) Chrome/134.0.0.0 Safari/537.36","WebKit","Chrome","134.0.0.0","ChromeOS","14541.0.0","https://hz8g1ckzuq.cognition.run/","en-US,en;q=0.9","ye3jehyxga7unal","68","[""White""]","No","Female","1099066.5999999996","null","","<p></p>","null","choice","dtc","attraction_1","2","televisions","null","null","null","null","null","null","1","","","","","","","","","",""
"","","","","","choice_trial","survey-html-form","147","970360","0.0-5.0-1.31","55","1","2025-04-11 14:20:36","bb671e3ae32f654b8954ea4c4635f915","","Mozilla/5.0 (X11; CrOS x86_64 14541.0.0) AppleWebKit/537.36 (KHTML, like Gecko) Chrome/134.0.0.0 Safari/537.36","WebKit","Chrome","134.0.0.0","ChromeOS","14541.0.0","https://hz8g1ckzuq.cognition.run/","en-US,en;q=0.9","ye3jehyxga7unal","68","[""White""]","No","Female","1099066.5999999996","4299","","","{""product_choice"":""C""}","choice","dtc","attraction_1","2","televisions","null","null","null","null","null","null","1","50","60","45","60","50","60","Screen size","Average lifespan","",""
"","","","","","choice_trial_setup","html-keyboard-response","148","970676","0.0-5.0-0.32","55","1","2025-04-11 14:20:36","bb671e3ae32f654b8954ea4c4635f915","","Mozilla/5.0 (X11; CrOS x86_64 14541.0.0) AppleWebKit/537.36 (KHTML, like Gecko) Chrome/134.0.0.0 Safari/537.36","WebKit","Chrome","134.0.0.0","ChromeOS","14541.0.0","https://hz8g1ckzuq.cognition.run/","en-US,en;q=0.9","ye3jehyxga7unal","68","[""White""]","No","Female","1099066.5999999996","null","","<p></p>","null","choice","tdc","attraction_1","1","televisions","null","null","null","null","null","null","2","","","","","","","","","",""
"","","","","","choice_trial","survey-html-form","149","975743","0.0-5.0-1.32","55","1","2025-04-11 14:20:36","bb671e3ae32f654b8954ea4c4635f915","","Mozilla/5.0 (X11; CrOS x86_64 14541.0.0) AppleWebKit/537.36 (KHTML, like Gecko) Chrome/134.0.0.0 Safari/537.36","WebKit","Chrome","134.0.0.0","ChromeOS","14541.0.0","https://hz8g1ckzuq.cognition.run/","en-US,en;q=0.9","ye3jehyxga7unal","68","[""White""]","No","Female","1099066.5999999996","5049","","","{""product_choice"":""A""}","choice","tdc","attraction_1","1","televisions","null","null","null","null","null","null","2","60","50","60","50","60","45","Screen size","Average lifespan","",""
"","","","","","choice_trial_setup","html-keyboard-response","150","976058","0.0-5.0-0.33","55","1","2025-04-11 14:20:36","bb671e3ae32f654b8954ea4c4635f915","","Mozilla/5.0 (X11; CrOS x86_64 14541.0.0) AppleWebKit/537.36 (KHTML, like Gecko) Chrome/134.0.0.0 Safari/537.36","WebKit","Chrome","134.0.0.0","ChromeOS","14541.0.0","https://hz8g1ckzuq.cognition.run/","en-US,en;q=0.9","ye3jehyxga7unal","68","[""White""]","No","Female","1099066.5999999996","null","","<p></p>","null","choice","bww","catch","null","microwave ovens","60","70","15","30","50","30","1","","","","","","","","","",""
"","","","","","choice_trial","survey-html-form","151","980182","0.0-5.0-1.33","55","1","2025-04-11 14:20:36","bb671e3ae32f654b8954ea4c4635f915","","Mozilla/5.0 (X11; CrOS x86_64 14541.0.0) AppleWebKit/537.36 (KHTML, like Gecko) Chrome/134.0.0.0 Safari/537.36","WebKit","Chrome","134.0.0.0","ChromeOS","14541.0.0","https://hz8g1ckzuq.cognition.run/","en-US,en;q=0.9","ye3jehyxga7unal","68","[""White""]","No","Female","1099066.5999999996","4105","","","{""product_choice"":""A""}","choice","bww","catch","null","microwave ovens","60","70","15","30","50","30","1","null","null","null","null","null","null","Warranty","Cooking power","",""
"","","","","","choice_trial_setup","html-keyboard-response","152","980499","0.0-5.0-0.34","55","1","2025-04-11 14:20:36","bb671e3ae32f654b8954ea4c4635f915","","Mozilla/5.0 (X11; CrOS x86_64 14541.0.0) AppleWebKit/537.36 (KHTML, like Gecko) Chrome/134.0.0.0 Safari/537.36","WebKit","Chrome","134.0.0.0","ChromeOS","14541.0.0","https://hz8g1ckzuq.cognition.run/","en-US,en;q=0.9","ye3jehyxga7unal","68","[""White""]","No","Female","1099066.5999999996","null","","<p></p>","null","choice","wwb","catch","null","washing machines","75","80","10","25","15","30","1","","","","","","","","","",""
"","","","","","choice_trial","survey-html-form","153","987468","0.0-5.0-1.34","55","1","2025-04-11 14:20:36","bb671e3ae32f654b8954ea4c4635f915","","Mozilla/5.0 (X11; CrOS x86_64 14541.0.0) AppleWebKit/537.36 (KHTML, like Gecko) Chrome/134.0.0.0 Safari/537.36","WebKit","Chrome","134.0.0.0","ChromeOS","14541.0.0","https://hz8g1ckzuq.cognition.run/","en-US,en;q=0.9","ye3jehyxga7unal","68","[""White""]","No","Female","1099066.5999999996","6952","","","{""product_choice"":""C""}","choice","wwb","catch","null","washing machines","75","80","10","25","15","30","1","null","null","null","null","null","null","Average lifespan","Energy savings","",""
"","","","","","choice_trial_setup","html-keyboard-response","154","987783","0.0-5.0-0.35","55","1","2025-04-11 14:20:36","bb671e3ae32f654b8954ea4c4635f915","","Mozilla/5.0 (X11; CrOS x86_64 14541.0.0) AppleWebKit/537.36 (KHTML, like Gecko) Chrome/134.0.0.0 Safari/537.36","WebKit","Chrome","134.0.0.0","ChromeOS","14541.0.0","https://hz8g1ckzuq.cognition.run/","en-US,en;q=0.9","ye3jehyxga7unal","68","[""White""]","No","Female","1099066.5999999996","null","","<p></p>","null","choice","tdc","attraction_2","1","washing machines","null","null","null","null","null","null","1","","","","","","","","","",""
"","","","","","choice_trial","survey-html-form","155","993024","0.0-5.0-1.35","55","1","2025-04-11 14:20:36","bb671e3ae32f654b8954ea4c4635f915","","Mozilla/5.0 (X11; CrOS x86_64 14541.0.0) AppleWebKit/537.36 (KHTML, like Gecko) Chrome/134.0.0.0 Safari/537.36","WebKit","Chrome","134.0.0.0","ChromeOS","14541.0.0","https://hz8g1ckzuq.cognition.run/","en-US,en;q=0.9","ye3jehyxga7unal","68","[""White""]","No","Female","1099066.5999999996","5224","","","{""product_choice"":""C""}","choice","tdc","attraction_2","1","washing machines","null","null","null","null","null","null","1","60","50","60","50","60","40","Average lifespan","Energy savings","",""
"","","","","","choice_trial_setup","html-keyboard-response","156","993341","0.0-5.0-0.36","55","1","2025-04-11 14:20:36","bb671e3ae32f654b8954ea4c4635f915","","Mozilla/5.0 (X11; CrOS x86_64 14541.0.0) AppleWebKit/537.36 (KHTML, like Gecko) Chrome/134.0.0.0 Safari/537.36","WebKit","Chrome","134.0.0.0","ChromeOS","14541.0.0","https://hz8g1ckzuq.cognition.run/","en-US,en;q=0.9","ye3jehyxga7unal","68","[""White""]","No","Female","1099066.5999999996","null","","<p></p>","null","choice","dct","repulsion_2","1","televisions","null","null","null","null","null","null","1","","","","","","","","","",""
