"success","timeout","failed_images","failed_audio","failed_video","screen_id","trial_type","trial_index","time_elapsed","internal_node_id","run_id","condition","recorded_at","source_code_version","ip","user_agent","device","browser","browser_version","platform","platform_version","referer","accept_language","ppt_id","age","race","ethnicity","gender","exp_duration","rt","view_history","stimulus","response","phase","order","effect","t_high","category","d1_best","d2_best","d1_worst1","d2_worst1","d1_worst2","d2_worst2","first_dim","d1_t","d1_c","d1_d","d2_t","d2_c","d2_d","d1_name","d2_name","strategy_response","question_order"
"true","false","[]","[]","[]","img preload","preload","0","11815","0.0-0.0","57","1","2025-04-11 14:22:31","bb671e3ae32f654b8954ea4c4635f915","","Mozilla/5.0 (Windows NT 10.0; Win64; x64) AppleWebKit/537.36 (KHTML, like Gecko) Chrome/134.0.0.0 Safari/537.36","WebKit","Chrome","134.0.0.0","Windows","10.0","https://hz8g1ckzuq.cognition.run/","en-US,en;q=0.9","xolr70sq7nn9bgu","32","[""White""]","No","Male","2211537.299999237","","","","","","","","","","","","","","","","","","","","","","","","","",""
"true","","","","","","fullscreen","1","39629","0.0-1.0","57","1","2025-04-11 14:22:31","bb671e3ae32f654b8954ea4c4635f915","","Mozilla/5.0 (Windows NT 10.0; Win64; x64) AppleWebKit/537.36 (KHTML, like Gecko) Chrome/134.0.0.0 Safari/537.36","WebKit","Chrome","134.0.0.0","Windows","10.0","https://hz8g1ckzuq.cognition.run/","en-US,en;q=0.9","xolr70sq7nn9bgu","32","[""White""]","No","Male","2211537.299999237","26810","","","","","","","","","","","","","","","","","","","","","","","","",""
"","","","","","","instructions","2","97776","0.0-2.0","57","1","2025-04-11 14:22:31","bb671e3ae32f654b8954ea4c4635f915","","Mozilla/5.0 (Windows NT 10.0; Win64; x64) AppleWebKit/537.36 (KHTML, like Gecko) Chrome/134.0.0.0 Safari/537.36","WebKit","Chrome","134.0.0.0","Windows","10.0","https://hz8g1ckzuq.cognition.run/","en-US,en;q=0.9","xolr70sq7nn9bgu","32","[""White""]","No","Male","2211537.299999237","58147","[{""page_index"":0,""viewing_time"":20845},{""page_index"":1,""viewing_time"":3671},{""page_index"":2,""viewing_time"":24680},{""page_index"":3,""viewing_time"":1236},{""page_index"":4,""viewing_time"":1037},{""page_index"":5,""viewing_time"":1138},{""page_index"":6,""viewing_time"":1024},{""page_index"":7,""viewing_time"":1780},{""page_index"":8,""viewing_time"":1460},{""page_index"":9,""viewing_time"":1275}]","","","","","","","","","","","","","","","","","","","","","","","",""
"","","","","","rating_trial_setup","html-keyboard-response","3","98078","0.0-3.0-0.0","57","1","2025-04-11 14:22:31","bb671e3ae32f654b8954ea4c4635f915","","Mozilla/5.0 (Windows NT 10.0; Win64; x64) AppleWebKit/537.36 (KHTML, like Gecko) Chrome/134.0.0.0 Safari/537.36","WebKit","Chrome","134.0.0.0","Windows","10.0","https://hz8g1ckzuq.cognition.run/","en-US,en;q=0.9","xolr70sq7nn9bgu","32","[""White""]","No","Male","2211537.299999237","null","","<p></p>","null","rating","tdc","repulsion_2","2","microwave ovens","null","null","null","null","null","null","1","","","","","","","","","",""
"","","","","","rating_trial","survey-html-form","4","142448","0.0-3.0-1.0","57","1","2025-04-11 14:22:31","bb671e3ae32f654b8954ea4c4635f915","","Mozilla/5.0 (Windows NT 10.0; Win64; x64) AppleWebKit/537.36 (KHTML, like Gecko) Chrome/134.0.0.0 Safari/537.36","WebKit","Chrome","134.0.0.0","Windows","10.0","https://hz8g1ckzuq.cognition.run/","en-US,en;q=0.9","xolr70sq7nn9bgu","32","[""White""]","No","Male","2211537.299999237","44367","","","{""price_1"":""170"",""price_2"":""200"",""price_3"":""190""}","rating","tdc","repulsion_2","2","microwave ovens","null","null","null","null","null","null","1","30","40","20","100","90","100","Warranty","Cooking power","",""
"","","","","","rating_trial_setup","html-keyboard-response","5","142749","0.0-3.0-0.1","57","1","2025-04-11 14:22:31","bb671e3ae32f654b8954ea4c4635f915","","Mozilla/5.0 (Windows NT 10.0; Win64; x64) AppleWebKit/537.36 (KHTML, like Gecko) Chrome/134.0.0.0 Safari/537.36","WebKit","Chrome","134.0.0.0","Windows","10.0","https://hz8g1ckzuq.cognition.run/","en-US,en;q=0.9","xolr70sq7nn9bgu","32","[""White""]","No","Male","2211537.299999237","null","","<p></p>","null","rating","tcd","attraction_2","1","washing machines","null","null","null","null","null","null","1","","","","","","","","","",""
"","","","","","rating_trial","survey-html-form","6","167709","0.0-3.0-1.1","57","1","2025-04-11 14:22:31","bb671e3ae32f654b8954ea4c4635f915","","Mozilla/5.0 (Windows NT 10.0; Win64; x64) AppleWebKit/537.36 (KHTML, like Gecko) Chrome/134.0.0.0 Safari/537.36","WebKit","Chrome","134.0.0.0","Windows","10.0","https://hz8g1ckzuq.cognition.run/","en-US,en;q=0.9","xolr70sq7nn9bgu","32","[""White""]","No","Male","2211537.299999237","24958","","","{""price_1"":""180"",""price_2"":""200"",""price_3"":""250""}","rating","tcd","attraction_2","1","washing machines","null","null","null","null","null","null","1","60","50","60","50","60","40","Average lifespan","Energy savings","",""
"","","","","","rating_trial_setup","html-keyboard-response","7","168011","0.0-3.0-0.2","57","1","2025-04-11 14:22:31","bb671e3ae32f654b8954ea4c4635f915","","Mozilla/5.0 (Windows NT 10.0; Win64; x64) AppleWebKit/537.36 (KHTML, like Gecko) Chrome/134.0.0.0 Safari/537.36","WebKit","Chrome","134.0.0.0","Windows","10.0","https://hz8g1ckzuq.cognition.run/","en-US,en;q=0.9","xolr70sq7nn9bgu","32","[""White""]","No","Male","2211537.299999237","null","","<p></p>","null","rating","tdc","repulsion_1","2","televisions","null","null","null","null","null","null","2","","","","","","","","","",""
"","","","","","rating_trial","survey-html-form","8","192834","0.0-3.0-1.2","57","1","2025-04-11 14:22:31","bb671e3ae32f654b8954ea4c4635f915","","Mozilla/5.0 (Windows NT 10.0; Win64; x64) AppleWebKit/537.36 (KHTML, like Gecko) Chrome/134.0.0.0 Safari/537.36","WebKit","Chrome","134.0.0.0","Windows","10.0","https://hz8g1ckzuq.cognition.run/","en-US,en;q=0.9","xolr70sq7nn9bgu","32","[""White""]","No","Male","2211537.299999237","24821","","","{""price_1"":""10"",""price_2"":""11"",""price_3"":""13""}","rating","tdc","repulsion_1","2","televisions","null","null","null","null","null","null","2","30","40","25","100","90","100","Screen size","Average lifespan","",""
"","","","","","rating_trial_setup","html-keyboard-response","9","193137","0.0-3.0-0.3","57","1","2025-04-11 14:22:31","bb671e3ae32f654b8954ea4c4635f915","","Mozilla/5.0 (Windows NT 10.0; Win64; x64) AppleWebKit/537.36 (KHTML, like Gecko) Chrome/134.0.0.0 Safari/537.36","WebKit","Chrome","134.0.0.0","Windows","10.0","https://hz8g1ckzuq.cognition.run/","en-US,en;q=0.9","xolr70sq7nn9bgu","32","[""White""]","No","Male","2211537.299999237","null","","<p></p>","null","rating","cdt","attraction_2","2","televisions","null","null","null","null","null","null","2","","","","","","","","","",""
"","","","","","rating_trial","survey-html-form","10","208708","0.0-3.0-1.3","57","1","2025-04-11 14:22:31","bb671e3ae32f654b8954ea4c4635f915","","Mozilla/5.0 (Windows NT 10.0; Win64; x64) AppleWebKit/537.36 (KHTML, like Gecko) Chrome/134.0.0.0 Safari/537.36","WebKit","Chrome","134.0.0.0","Windows","10.0","https://hz8g1ckzuq.cognition.run/","en-US,en;q=0.9","xolr70sq7nn9bgu","32","[""White""]","No","Male","2211537.299999237","15570","","","{""price_1"":""45"",""price_2"":""36"",""price_3"":""50""}","rating","cdt","attraction_2","2","televisions","null","null","null","null","null","null","2","50","60","40","60","50","60","Screen size","Average lifespan","",""
"","","","","","rating_trial_setup","html-keyboard-response","11","209010","0.0-3.0-0.4","57","1","2025-04-11 14:22:31","bb671e3ae32f654b8954ea4c4635f915","","Mozilla/5.0 (Windows NT 10.0; Win64; x64) AppleWebKit/537.36 (KHTML, like Gecko) Chrome/134.0.0.0 Safari/537.36","WebKit","Chrome","134.0.0.0","Windows","10.0","https://hz8g1ckzuq.cognition.run/","en-US,en;q=0.9","xolr70sq7nn9bgu","32","[""White""]","No","Male","2211537.299999237","null","","<p></p>","null","rating","cdt","repulsion_1","2","washing machines","null","null","null","null","null","null","1","","","","","","","","","",""
"","","","","","rating_trial","survey-html-form","12","257517","0.0-3.0-1.4","57","1","2025-04-11 14:22:31","bb671e3ae32f654b8954ea4c4635f915","","Mozilla/5.0 (Windows NT 10.0; Win64; x64) AppleWebKit/537.36 (KHTML, like Gecko) Chrome/134.0.0.0 Safari/537.36","WebKit","Chrome","134.0.0.0","Windows","10.0","https://hz8g1ckzuq.cognition.run/","en-US,en;q=0.9","xolr70sq7nn9bgu","32","[""White""]","No","Male","2211537.299999237","48506","","","{""price_1"":""35"",""price_2"":""50"",""price_3"":""44""}","rating","cdt","repulsion_1","2","washing machines","null","null","null","null","null","null","1","30","40","25","100","90","100","Average lifespan","Energy savings","",""
"","","","","","rating_trial_setup","html-keyboard-response","13","257823","0.0-3.0-0.5","57","1","2025-04-11 14:22:31","bb671e3ae32f654b8954ea4c4635f915","","Mozilla/5.0 (Windows NT 10.0; Win64; x64) AppleWebKit/537.36 (KHTML, like Gecko) Chrome/134.0.0.0 Safari/537.36","WebKit","Chrome","134.0.0.0","Windows","10.0","https://hz8g1ckzuq.cognition.run/","en-US,en;q=0.9","xolr70sq7nn9bgu","32","[""White""]","No","Male","2211537.299999237","null","","<p></p>","null","rating","ctd","attraction_1","2","laptops","null","null","null","null","null","null","1","","","","","","","","","",""
"","","","","","rating_trial","survey-html-form","14","487010","0.0-3.0-1.5","57","1","2025-04-11 14:22:31","bb671e3ae32f654b8954ea4c4635f915","","Mozilla/5.0 (Windows NT 10.0; Win64; x64) AppleWebKit/537.36 (KHTML, like Gecko) Chrome/134.0.0.0 Safari/537.36","WebKit","Chrome","134.0.0.0","Windows","10.0","https://hz8g1ckzuq.cognition.run/","en-US,en;q=0.9","xolr70sq7nn9bgu","32","[""White""]","No","Male","2211537.299999237","229189","","","{""price_1"":""34"",""price_2"":""45"",""price_3"":""180""}","rating","ctd","attraction_1","2","laptops","null","null","null","null","null","null","1","50","60","45","60","50","60","Processing speed","Memory (RAM)","",""
"","","","","","rating_trial_setup","html-keyboard-response","15","487311","0.0-3.0-0.6","57","1","2025-04-11 14:22:31","bb671e3ae32f654b8954ea4c4635f915","","Mozilla/5.0 (Windows NT 10.0; Win64; x64) AppleWebKit/537.36 (KHTML, like Gecko) Chrome/134.0.0.0 Safari/537.36","WebKit","Chrome","134.0.0.0","Windows","10.0","https://hz8g1ckzuq.cognition.run/","en-US,en;q=0.9","xolr70sq7nn9bgu","32","[""White""]","No","Male","2211537.299999237","null","","<p></p>","null","rating","ctd","repulsion_2","2","washing machines","null","null","null","null","null","null","1","","","","","","","","","",""
"","","","","","rating_trial","survey-html-form","16","585059","0.0-3.0-1.6","57","1","2025-04-11 14:22:31","bb671e3ae32f654b8954ea4c4635f915","","Mozilla/5.0 (Windows NT 10.0; Win64; x64) AppleWebKit/537.36 (KHTML, like Gecko) Chrome/134.0.0.0 Safari/537.36","WebKit","Chrome","134.0.0.0","Windows","10.0","https://hz8g1ckzuq.cognition.run/","en-US,en;q=0.9","xolr70sq7nn9bgu","32","[""White""]","No","Male","2211537.299999237","97748","","","{""price_1"":""44"",""price_2"":""54"",""price_3"":""45""}","rating","ctd","repulsion_2","2","washing machines","null","null","null","null","null","null","1","30","40","20","100","90","100","Average lifespan","Energy savings","",""
"","","","","","rating_trial_setup","html-keyboard-response","17","585361","0.0-3.0-0.7","57","1","2025-04-11 14:22:31","bb671e3ae32f654b8954ea4c4635f915","","Mozilla/5.0 (Windows NT 10.0; Win64; x64) AppleWebKit/537.36 (KHTML, like Gecko) Chrome/134.0.0.0 Safari/537.36","WebKit","Chrome","134.0.0.0","Windows","10.0","https://hz8g1ckzuq.cognition.run/","en-US,en;q=0.9","xolr70sq7nn9bgu","32","[""White""]","No","Male","2211537.299999237","null","","<p></p>","null","rating","dtc","repulsion_1","2","laptops","null","null","null","null","null","null","2","","","","","","","","","",""
"","","","","","rating_trial","survey-html-form","18","621933","0.0-3.0-1.7","57","1","2025-04-11 14:22:31","bb671e3ae32f654b8954ea4c4635f915","","Mozilla/5.0 (Windows NT 10.0; Win64; x64) AppleWebKit/537.36 (KHTML, like Gecko) Chrome/134.0.0.0 Safari/537.36","WebKit","Chrome","134.0.0.0","Windows","10.0","https://hz8g1ckzuq.cognition.run/","en-US,en;q=0.9","xolr70sq7nn9bgu","32","[""White""]","No","Male","2211537.299999237","36569","","","{""price_1"":""15"",""price_2"":""28"",""price_3"":""44""}","rating","dtc","repulsion_1","2","laptops","null","null","null","null","null","null","2","30","40","25","100","90","100","Processing speed","Memory (RAM)","",""
"","","","","","rating_trial_setup","html-keyboard-response","19","622234","0.0-3.0-0.8","57","1","2025-04-11 14:22:31","bb671e3ae32f654b8954ea4c4635f915","","Mozilla/5.0 (Windows NT 10.0; Win64; x64) AppleWebKit/537.36 (KHTML, like Gecko) Chrome/134.0.0.0 Safari/537.36","WebKit","Chrome","134.0.0.0","Windows","10.0","https://hz8g1ckzuq.cognition.run/","en-US,en;q=0.9","xolr70sq7nn9bgu","32","[""White""]","No","Male","2211537.299999237","null","","<p></p>","null","rating","dtc","repulsion_1","1","laptops","null","null","null","null","null","null","2","","","","","","","","","",""
"","","","","","rating_trial","survey-html-form","20","642878","0.0-3.0-1.8","57","1","2025-04-11 14:22:31","bb671e3ae32f654b8954ea4c4635f915","","Mozilla/5.0 (Windows NT 10.0; Win64; x64) AppleWebKit/537.36 (KHTML, like Gecko) Chrome/134.0.0.0 Safari/537.36","WebKit","Chrome","134.0.0.0","Windows","10.0","https://hz8g1ckzuq.cognition.run/","en-US,en;q=0.9","xolr70sq7nn9bgu","32","[""White""]","No","Male","2211537.299999237","20643","","","{""price_1"":""245"",""price_2"":""355"",""price_3"":""485""}","rating","dtc","repulsion_1","1","laptops","null","null","null","null","null","null","2","100","90","100","30","40","25","Processing speed","Memory (RAM)","",""
"","","","","","rating_trial_setup","html-keyboard-response","21","643181","0.0-3.0-0.9","57","1","2025-04-11 14:22:31","bb671e3ae32f654b8954ea4c4635f915","","Mozilla/5.0 (Windows NT 10.0; Win64; x64) AppleWebKit/537.36 (KHTML, like Gecko) Chrome/134.0.0.0 Safari/537.36","WebKit","Chrome","134.0.0.0","Windows","10.0","https://hz8g1ckzuq.cognition.run/","en-US,en;q=0.9","xolr70sq7nn9bgu","32","[""White""]","No","Male","2211537.299999237","null","","<p></p>","null","rating","dct","attraction_1","1","televisions","null","null","null","null","null","null","1","","","","","","","","","",""
"","","","","","rating_trial","survey-html-form","22","750851","0.0-3.0-1.9","57","1","2025-04-11 14:22:31","bb671e3ae32f654b8954ea4c4635f915","","Mozilla/5.0 (Windows NT 10.0; Win64; x64) AppleWebKit/537.36 (KHTML, like Gecko) Chrome/134.0.0.0 Safari/537.36","WebKit","Chrome","134.0.0.0","Windows","10.0","https://hz8g1ckzuq.cognition.run/","en-US,en;q=0.9","xolr70sq7nn9bgu","32","[""White""]","No","Male","2211537.299999237","107671","","","{""price_1"":""124"",""price_2"":""234"",""price_3"":""345""}","rating","dct","attraction_1","1","televisions","null","null","null","null","null","null","1","60","50","60","50","60","45","Screen size","Average lifespan","",""
"","","","","","rating_trial_setup","html-keyboard-response","23","751153","0.0-3.0-0.10","57","1","2025-04-11 14:22:31","bb671e3ae32f654b8954ea4c4635f915","","Mozilla/5.0 (Windows NT 10.0; Win64; x64) AppleWebKit/537.36 (KHTML, like Gecko) Chrome/134.0.0.0 Safari/537.36","WebKit","Chrome","134.0.0.0","Windows","10.0","https://hz8g1ckzuq.cognition.run/","en-US,en;q=0.9","xolr70sq7nn9bgu","32","[""White""]","No","Male","2211537.299999237","null","","<p></p>","null","rating","wwb","catch","null","televisions","90","70","30","10","35","40","1","","","","","","","","","",""
"","","","","","rating_trial","survey-html-form","24","763301","0.0-3.0-1.10","57","1","2025-04-11 14:22:31","bb671e3ae32f654b8954ea4c4635f915","","Mozilla/5.0 (Windows NT 10.0; Win64; x64) AppleWebKit/537.36 (KHTML, like Gecko) Chrome/134.0.0.0 Safari/537.36","WebKit","Chrome","134.0.0.0","Windows","10.0","https://hz8g1ckzuq.cognition.run/","en-US,en;q=0.9","xolr70sq7nn9bgu","32","[""White""]","No","Male","2211537.299999237","12146","","","{""price_1"":""222"",""price_2"":""345"",""price_3"":""432""}","rating","wwb","catch","null","televisions","90","70","30","10","35","40","1","null","null","null","null","null","null","Screen size","Average lifespan","",""
"","","","","","rating_trial_setup","html-keyboard-response","25","763603","0.0-3.0-0.11","57","1","2025-04-11 14:22:31","bb671e3ae32f654b8954ea4c4635f915","","Mozilla/5.0 (Windows NT 10.0; Win64; x64) AppleWebKit/537.36 (KHTML, like Gecko) Chrome/134.0.0.0 Safari/537.36","WebKit","Chrome","134.0.0.0","Windows","10.0","https://hz8g1ckzuq.cognition.run/","en-US,en;q=0.9","xolr70sq7nn9bgu","32","[""White""]","No","Male","2211537.299999237","null","","<p></p>","null","rating","wwb","catch","null","washing machines","85","70","5","5","25","35","2","","","","","","","","","",""
"","","","","","rating_trial","survey-html-form","26","776159","0.0-3.0-1.11","57","1","2025-04-11 14:22:31","bb671e3ae32f654b8954ea4c4635f915","","Mozilla/5.0 (Windows NT 10.0; Win64; x64) AppleWebKit/537.36 (KHTML, like Gecko) Chrome/134.0.0.0 Safari/537.36","WebKit","Chrome","134.0.0.0","Windows","10.0","https://hz8g1ckzuq.cognition.run/","en-US,en;q=0.9","xolr70sq7nn9bgu","32","[""White""]","No","Male","2211537.299999237","12553","","","{""price_1"":""245"",""price_2"":""123"",""price_3"":""234""}","rating","wwb","catch","null","washing machines","85","70","5","5","25","35","2","null","null","null","null","null","null","Average lifespan","Energy savings","",""
"","","","","","rating_trial_setup","html-keyboard-response","27","776461","0.0-3.0-0.12","57","1","2025-04-11 14:22:31","bb671e3ae32f654b8954ea4c4635f915","","Mozilla/5.0 (Windows NT 10.0; Win64; x64) AppleWebKit/537.36 (KHTML, like Gecko) Chrome/134.0.0.0 Safari/537.36","WebKit","Chrome","134.0.0.0","Windows","10.0","https://hz8g1ckzuq.cognition.run/","en-US,en;q=0.9","xolr70sq7nn9bgu","32","[""White""]","No","Male","2211537.299999237","null","","<p></p>","null","rating","tcd","attraction_2","2","microwave ovens","null","null","null","null","null","null","1","","","","","","","","","",""
"","","","","","rating_trial","survey-html-form","28","786508","0.0-3.0-1.12","57","1","2025-04-11 14:22:31","bb671e3ae32f654b8954ea4c4635f915","","Mozilla/5.0 (Windows NT 10.0; Win64; x64) AppleWebKit/537.36 (KHTML, like Gecko) Chrome/134.0.0.0 Safari/537.36","WebKit","Chrome","134.0.0.0","Windows","10.0","https://hz8g1ckzuq.cognition.run/","en-US,en;q=0.9","xolr70sq7nn9bgu","32","[""White""]","No","Male","2211537.299999237","10045","","","{""price_1"":""124"",""price_2"":""245"",""price_3"":""324""}","rating","tcd","attraction_2","2","microwave ovens","null","null","null","null","null","null","1","50","60","40","60","50","60","Warranty","Cooking power","",""
"","","","","","rating_trial_setup","html-keyboard-response","29","786810","0.0-3.0-0.13","57","1","2025-04-11 14:22:31","bb671e3ae32f654b8954ea4c4635f915","","Mozilla/5.0 (Windows NT 10.0; Win64; x64) AppleWebKit/537.36 (KHTML, like Gecko) Chrome/134.0.0.0 Safari/537.36","WebKit","Chrome","134.0.0.0","Windows","10.0","https://hz8g1ckzuq.cognition.run/","en-US,en;q=0.9","xolr70sq7nn9bgu","32","[""White""]","No","Male","2211537.299999237","null","","<p></p>","null","rating","bww","catch","null","microwave ovens","75","55","50","20","30","40","1","","","","","","","","","",""
"","","","","","rating_trial","survey-html-form","30","798002","0.0-3.0-1.13","57","1","2025-04-11 14:22:31","bb671e3ae32f654b8954ea4c4635f915","","Mozilla/5.0 (Windows NT 10.0; Win64; x64) AppleWebKit/537.36 (KHTML, like Gecko) Chrome/134.0.0.0 Safari/537.36","WebKit","Chrome","134.0.0.0","Windows","10.0","https://hz8g1ckzuq.cognition.run/","en-US,en;q=0.9","xolr70sq7nn9bgu","32","[""White""]","No","Male","2211537.299999237","11190","","","{""price_1"":""123"",""price_2"":""80"",""price_3"":""80""}","rating","bww","catch","null","microwave ovens","75","55","50","20","30","40","1","null","null","null","null","null","null","Warranty","Cooking power","",""
"","","","","","rating_trial_setup","html-keyboard-response","31","798303","0.0-3.0-0.14","57","1","2025-04-11 14:22:31","bb671e3ae32f654b8954ea4c4635f915","","Mozilla/5.0 (Windows NT 10.0; Win64; x64) AppleWebKit/537.36 (KHTML, like Gecko) Chrome/134.0.0.0 Safari/537.36","WebKit","Chrome","134.0.0.0","Windows","10.0","https://hz8g1ckzuq.cognition.run/","en-US,en;q=0.9","xolr70sq7nn9bgu","32","[""White""]","No","Male","2211537.299999237","null","","<p></p>","null","rating","ctd","attraction_2","2","laptops","null","null","null","null","null","null","1","","","","","","","","","",""
"","","","","","rating_trial","survey-html-form","32","823551","0.0-3.0-1.14","57","1","2025-04-11 14:22:31","bb671e3ae32f654b8954ea4c4635f915","","Mozilla/5.0 (Windows NT 10.0; Win64; x64) AppleWebKit/537.36 (KHTML, like Gecko) Chrome/134.0.0.0 Safari/537.36","WebKit","Chrome","134.0.0.0","Windows","10.0","https://hz8g1ckzuq.cognition.run/","en-US,en;q=0.9","xolr70sq7nn9bgu","32","[""White""]","No","Male","2211537.299999237","25247","","","{""price_1"":""320"",""price_2"":""234"",""price_3"":""124""}","rating","ctd","attraction_2","2","laptops","null","null","null","null","null","null","1","50","60","40","60","50","60","Processing speed","Memory (RAM)","",""
"","","","","","rating_trial_setup","html-keyboard-response","33","823854","0.0-3.0-0.15","57","1","2025-04-11 14:22:31","bb671e3ae32f654b8954ea4c4635f915","","Mozilla/5.0 (Windows NT 10.0; Win64; x64) AppleWebKit/537.36 (KHTML, like Gecko) Chrome/134.0.0.0 Safari/537.36","WebKit","Chrome","134.0.0.0","Windows","10.0","https://hz8g1ckzuq.cognition.run/","en-US,en;q=0.9","xolr70sq7nn9bgu","32","[""White""]","No","Male","2211537.299999237","null","","<p></p>","null","rating","bww","catch","null","laptops","55","75","10","45","50","30","2","","","","","","","","","",""
"","","","","","rating_trial","survey-html-form","34","836484","0.0-3.0-1.15","57","1","2025-04-11 14:22:31","bb671e3ae32f654b8954ea4c4635f915","","Mozilla/5.0 (Windows NT 10.0; Win64; x64) AppleWebKit/537.36 (KHTML, like Gecko) Chrome/134.0.0.0 Safari/537.36","WebKit","Chrome","134.0.0.0","Windows","10.0","https://hz8g1ckzuq.cognition.run/","en-US,en;q=0.9","xolr70sq7nn9bgu","32","[""White""]","No","Male","2211537.299999237","12628","","","{""price_1"":""214"",""price_2"":""189"",""price_3"":""257""}","rating","bww","catch","null","laptops","55","75","10","45","50","30","2","null","null","null","null","null","null","Processing speed","Memory (RAM)","",""
"","","","","","rating_trial_setup","html-keyboard-response","35","836786","0.0-3.0-0.16","57","1","2025-04-11 14:22:31","bb671e3ae32f654b8954ea4c4635f915","","Mozilla/5.0 (Windows NT 10.0; Win64; x64) AppleWebKit/537.36 (KHTML, like Gecko) Chrome/134.0.0.0 Safari/537.36","WebKit","Chrome","134.0.0.0","Windows","10.0","https://hz8g1ckzuq.cognition.run/","en-US,en;q=0.9","xolr70sq7nn9bgu","32","[""White""]","No","Male","2211537.299999237","null","","<p></p>","null","rating","dct","repulsion_2","1","laptops","null","null","null","null","null","null","2","","","","","","","","","",""
"","","","","","rating_trial","survey-html-form","36","849652","0.0-3.0-1.16","57","1","2025-04-11 14:22:31","bb671e3ae32f654b8954ea4c4635f915","","Mozilla/5.0 (Windows NT 10.0; Win64; x64) AppleWebKit/537.36 (KHTML, like Gecko) Chrome/134.0.0.0 Safari/537.36","WebKit","Chrome","134.0.0.0","Windows","10.0","https://hz8g1ckzuq.cognition.run/","en-US,en;q=0.9","xolr70sq7nn9bgu","32","[""White""]","No","Male","2211537.299999237","12864","","","{""price_1"":""178"",""price_2"":""198"",""price_3"":""233""}","rating","dct","repulsion_2","1","laptops","null","null","null","null","null","null","2","100","90","100","30","40","20","Processing speed","Memory (RAM)","",""
"","","","","","rating_trial_setup","html-keyboard-response","37","849954","0.0-3.0-0.17","57","1","2025-04-11 14:22:31","bb671e3ae32f654b8954ea4c4635f915","","Mozilla/5.0 (Windows NT 10.0; Win64; x64) AppleWebKit/537.36 (KHTML, like Gecko) Chrome/134.0.0.0 Safari/537.36","WebKit","Chrome","134.0.0.0","Windows","10.0","https://hz8g1ckzuq.cognition.run/","en-US,en;q=0.9","xolr70sq7nn9bgu","32","[""White""]","No","Male","2211537.299999237","null","","<p></p>","null","rating","bww","catch","null","televisions","60","60","40","10","50","40","1","","","","","","","","","",""
"","","","","","rating_trial","survey-html-form","38","872612","0.0-3.0-1.17","57","1","2025-04-11 14:22:31","bb671e3ae32f654b8954ea4c4635f915","","Mozilla/5.0 (Windows NT 10.0; Win64; x64) AppleWebKit/537.36 (KHTML, like Gecko) Chrome/134.0.0.0 Safari/537.36","WebKit","Chrome","134.0.0.0","Windows","10.0","https://hz8g1ckzuq.cognition.run/","en-US,en;q=0.9","xolr70sq7nn9bgu","32","[""White""]","No","Male","2211537.299999237","22657","","","{""price_1"":""167"",""price_2"":""175"",""price_3"":""22""}","rating","bww","catch","null","televisions","60","60","40","10","50","40","1","null","null","null","null","null","null","Screen size","Average lifespan","",""
"","","","","","rating_trial_setup","html-keyboard-response","39","872916","0.0-3.0-0.18","57","1","2025-04-11 14:22:31","bb671e3ae32f654b8954ea4c4635f915","","Mozilla/5.0 (Windows NT 10.0; Win64; x64) AppleWebKit/537.36 (KHTML, like Gecko) Chrome/134.0.0.0 Safari/537.36","WebKit","Chrome","134.0.0.0","Windows","10.0","https://hz8g1ckzuq.cognition.run/","en-US,en;q=0.9","xolr70sq7nn9bgu","32","[""White""]","No","Male","2211537.299999237","null","","<p></p>","null","rating","cdt","repulsion_1","1","washing machines","null","null","null","null","null","null","2","","","","","","","","","",""
"","","","","","rating_trial","survey-html-form","40","1500868","0.0-3.0-1.18","57","1","2025-04-11 14:22:31","bb671e3ae32f654b8954ea4c4635f915","","Mozilla/5.0 (Windows NT 10.0; Win64; x64) AppleWebKit/537.36 (KHTML, like Gecko) Chrome/134.0.0.0 Safari/537.36","WebKit","Chrome","134.0.0.0","Windows","10.0","https://hz8g1ckzuq.cognition.run/","en-US,en;q=0.9","xolr70sq7nn9bgu","32","[""White""]","No","Male","2211537.299999237","627963","","","{""price_1"":""180"",""price_2"":""175"",""price_3"":""190""}","rating","cdt","repulsion_1","1","washing machines","null","null","null","null","null","null","2","100","90","100","30","40","25","Average lifespan","Energy savings","",""
"","","","","","rating_trial_setup","html-keyboard-response","41","1501171","0.0-3.0-0.19","57","1","2025-04-11 14:22:31","bb671e3ae32f654b8954ea4c4635f915","","Mozilla/5.0 (Windows NT 10.0; Win64; x64) AppleWebKit/537.36 (KHTML, like Gecko) Chrome/134.0.0.0 Safari/537.36","WebKit","Chrome","134.0.0.0","Windows","10.0","https://hz8g1ckzuq.cognition.run/","en-US,en;q=0.9","xolr70sq7nn9bgu","32","[""White""]","No","Male","2211537.299999237","null","","<p></p>","null","rating","dct","repulsion_1","1","televisions","null","null","null","null","null","null","1","","","","","","","","","",""
"","","","","","rating_trial","survey-html-form","42","1515317","0.0-3.0-1.19","57","1","2025-04-11 14:22:31","bb671e3ae32f654b8954ea4c4635f915","","Mozilla/5.0 (Windows NT 10.0; Win64; x64) AppleWebKit/537.36 (KHTML, like Gecko) Chrome/134.0.0.0 Safari/537.36","WebKit","Chrome","134.0.0.0","Windows","10.0","https://hz8g1ckzuq.cognition.run/","en-US,en;q=0.9","xolr70sq7nn9bgu","32","[""White""]","No","Male","2211537.299999237","14143","","","{""price_1"":""187"",""price_2"":""185"",""price_3"":""175""}","rating","dct","repulsion_1","1","televisions","null","null","null","null","null","null","1","100","90","100","30","40","25","Screen size","Average lifespan","",""
"","","","","","rating_trial_setup","html-keyboard-response","43","1515621","0.0-3.0-0.20","57","1","2025-04-11 14:22:31","bb671e3ae32f654b8954ea4c4635f915","","Mozilla/5.0 (Windows NT 10.0; Win64; x64) AppleWebKit/537.36 (KHTML, like Gecko) Chrome/134.0.0.0 Safari/537.36","WebKit","Chrome","134.0.0.0","Windows","10.0","https://hz8g1ckzuq.cognition.run/","en-US,en;q=0.9","xolr70sq7nn9bgu","32","[""White""]","No","Male","2211537.299999237","null","","<p></p>","null","rating","dct","attraction_1","2","televisions","null","null","null","null","null","null","2","","","","","","","","","",""
"","","","","","rating_trial","survey-html-form","44","1528382","0.0-3.0-1.20","57","1","2025-04-11 14:22:31","bb671e3ae32f654b8954ea4c4635f915","","Mozilla/5.0 (Windows NT 10.0; Win64; x64) AppleWebKit/537.36 (KHTML, like Gecko) Chrome/134.0.0.0 Safari/537.36","WebKit","Chrome","134.0.0.0","Windows","10.0","https://hz8g1ckzuq.cognition.run/","en-US,en;q=0.9","xolr70sq7nn9bgu","32","[""White""]","No","Male","2211537.299999237","12759","","","{""price_1"":""195"",""price_2"":""200"",""price_3"":""175""}","rating","dct","attraction_1","2","televisions","null","null","null","null","null","null","2","50","60","45","60","50","60","Screen size","Average lifespan","",""
"","","","","","rating_trial_setup","html-keyboard-response","45","1528686","0.0-3.0-0.21","57","1","2025-04-11 14:22:31","bb671e3ae32f654b8954ea4c4635f915","","Mozilla/5.0 (Windows NT 10.0; Win64; x64) AppleWebKit/537.36 (KHTML, like Gecko) Chrome/134.0.0.0 Safari/537.36","WebKit","Chrome","134.0.0.0","Windows","10.0","https://hz8g1ckzuq.cognition.run/","en-US,en;q=0.9","xolr70sq7nn9bgu","32","[""White""]","No","Male","2211537.299999237","null","","<p></p>","null","rating","tdc","repulsion_2","1","microwave ovens","null","null","null","null","null","null","2","","","","","","","","","",""
"","","","","","rating_trial","survey-html-form","46","1540311","0.0-3.0-1.21","57","1","2025-04-11 14:22:31","bb671e3ae32f654b8954ea4c4635f915","","Mozilla/5.0 (Windows NT 10.0; Win64; x64) AppleWebKit/537.36 (KHTML, like Gecko) Chrome/134.0.0.0 Safari/537.36","WebKit","Chrome","134.0.0.0","Windows","10.0","https://hz8g1ckzuq.cognition.run/","en-US,en;q=0.9","xolr70sq7nn9bgu","32","[""White""]","No","Male","2211537.299999237","11623","","","{""price_1"":""177"",""price_2"":""159"",""price_3"":""200""}","rating","tdc","repulsion_2","1","microwave ovens","null","null","null","null","null","null","2","100","90","100","30","40","20","Warranty","Cooking power","",""
"","","","","","rating_trial_setup","html-keyboard-response","47","1540616","0.0-3.0-0.22","57","1","2025-04-11 14:22:31","bb671e3ae32f654b8954ea4c4635f915","","Mozilla/5.0 (Windows NT 10.0; Win64; x64) AppleWebKit/537.36 (KHTML, like Gecko) Chrome/134.0.0.0 Safari/537.36","WebKit","Chrome","134.0.0.0","Windows","10.0","https://hz8g1ckzuq.cognition.run/","en-US,en;q=0.9","xolr70sq7nn9bgu","32","[""White""]","No","Male","2211537.299999237","null","","<p></p>","null","rating","tdc","attraction_1","2","washing machines","null","null","null","null","null","null","2","","","","","","","","","",""
"","","","","","rating_trial","survey-html-form","48","1553141","0.0-3.0-1.22","57","1","2025-04-11 14:22:31","bb671e3ae32f654b8954ea4c4635f915","","Mozilla/5.0 (Windows NT 10.0; Win64; x64) AppleWebKit/537.36 (KHTML, like Gecko) Chrome/134.0.0.0 Safari/537.36","WebKit","Chrome","134.0.0.0","Windows","10.0","https://hz8g1ckzuq.cognition.run/","en-US,en;q=0.9","xolr70sq7nn9bgu","32","[""White""]","No","Male","2211537.299999237","12524","","","{""price_1"":""175"",""price_2"":""178"",""price_3"":""200""}","rating","tdc","attraction_1","2","washing machines","null","null","null","null","null","null","2","50","60","45","60","50","60","Average lifespan","Energy savings","",""
"","","","","","rating_trial_setup","html-keyboard-response","49","1553443","0.0-3.0-0.23","57","1","2025-04-11 14:22:31","bb671e3ae32f654b8954ea4c4635f915","","Mozilla/5.0 (Windows NT 10.0; Win64; x64) AppleWebKit/537.36 (KHTML, like Gecko) Chrome/134.0.0.0 Safari/537.36","WebKit","Chrome","134.0.0.0","Windows","10.0","https://hz8g1ckzuq.cognition.run/","en-US,en;q=0.9","xolr70sq7nn9bgu","32","[""White""]","No","Male","2211537.299999237","null","","<p></p>","null","rating","bww","catch","null","laptops","80","95","40","10","30","15","1","","","","","","","","","",""
"","","","","","rating_trial","survey-html-form","50","1586459","0.0-3.0-1.23","57","1","2025-04-11 14:22:31","bb671e3ae32f654b8954ea4c4635f915","","Mozilla/5.0 (Windows NT 10.0; Win64; x64) AppleWebKit/537.36 (KHTML, like Gecko) Chrome/134.0.0.0 Safari/537.36","WebKit","Chrome","134.0.0.0","Windows","10.0","https://hz8g1ckzuq.cognition.run/","en-US,en;q=0.9","xolr70sq7nn9bgu","32","[""White""]","No","Male","2211537.299999237","33014","","","{""price_1"":""174"",""price_2"":""180"",""price_3"":""175""}","rating","bww","catch","null","laptops","80","95","40","10","30","15","1","null","null","null","null","null","null","Processing speed","Memory (RAM)","",""
"","","","","","rating_trial_setup","html-keyboard-response","51","1586763","0.0-3.0-0.24","57","1","2025-04-11 14:22:31","bb671e3ae32f654b8954ea4c4635f915","","Mozilla/5.0 (Windows NT 10.0; Win64; x64) AppleWebKit/537.36 (KHTML, like Gecko) Chrome/134.0.0.0 Safari/537.36","WebKit","Chrome","134.0.0.0","Windows","10.0","https://hz8g1ckzuq.cognition.run/","en-US,en;q=0.9","xolr70sq7nn9bgu","32","[""White""]","No","Male","2211537.299999237","null","","<p></p>","null","rating","dtc","repulsion_1","2","microwave ovens","null","null","null","null","null","null","2","","","","","","","","","",""
"","","","","","rating_trial","survey-html-form","52","1813167","0.0-3.0-1.24","57","1","2025-04-11 14:22:31","bb671e3ae32f654b8954ea4c4635f915","","Mozilla/5.0 (Windows NT 10.0; Win64; x64) AppleWebKit/537.36 (KHTML, like Gecko) Chrome/134.0.0.0 Safari/537.36","WebKit","Chrome","134.0.0.0","Windows","10.0","https://hz8g1ckzuq.cognition.run/","en-US,en;q=0.9","xolr70sq7nn9bgu","32","[""White""]","No","Male","2211537.299999237","226406","","","{""price_1"":""156"",""price_2"":""234"",""price_3"":""345""}","rating","dtc","repulsion_1","2","microwave ovens","null","null","null","null","null","null","2","30","40","25","100","90","100","Warranty","Cooking power","",""
"","","","","","rating_trial_setup","html-keyboard-response","53","1813470","0.0-3.0-0.25","57","1","2025-04-11 14:22:31","bb671e3ae32f654b8954ea4c4635f915","","Mozilla/5.0 (Windows NT 10.0; Win64; x64) AppleWebKit/537.36 (KHTML, like Gecko) Chrome/134.0.0.0 Safari/537.36","WebKit","Chrome","134.0.0.0","Windows","10.0","https://hz8g1ckzuq.cognition.run/","en-US,en;q=0.9","xolr70sq7nn9bgu","32","[""White""]","No","Male","2211537.299999237","null","","<p></p>","null","rating","dtc","attraction_1","2","microwave ovens","null","null","null","null","null","null","2","","","","","","","","","",""
"","","","","","rating_trial","survey-html-form","54","1834135","0.0-3.0-1.25","57","1","2025-04-11 14:22:31","bb671e3ae32f654b8954ea4c4635f915","","Mozilla/5.0 (Windows NT 10.0; Win64; x64) AppleWebKit/537.36 (KHTML, like Gecko) Chrome/134.0.0.0 Safari/537.36","WebKit","Chrome","134.0.0.0","Windows","10.0","https://hz8g1ckzuq.cognition.run/","en-US,en;q=0.9","xolr70sq7nn9bgu","32","[""White""]","No","Male","2211537.299999237","20663","","","{""price_1"":""234"",""price_2"":""123"",""price_3"":""145""}","rating","dtc","attraction_1","2","microwave ovens","null","null","null","null","null","null","2","50","60","45","60","50","60","Warranty","Cooking power","",""
"","","","","","rating_trial_setup","html-keyboard-response","55","1834440","0.0-3.0-0.26","57","1","2025-04-11 14:22:31","bb671e3ae32f654b8954ea4c4635f915","","Mozilla/5.0 (Windows NT 10.0; Win64; x64) AppleWebKit/537.36 (KHTML, like Gecko) Chrome/134.0.0.0 Safari/537.36","WebKit","Chrome","134.0.0.0","Windows","10.0","https://hz8g1ckzuq.cognition.run/","en-US,en;q=0.9","xolr70sq7nn9bgu","32","[""White""]","No","Male","2211537.299999237","null","","<p></p>","null","rating","dct","repulsion_2","1","washing machines","null","null","null","null","null","null","2","","","","","","","","","",""
"","","","","","rating_trial","survey-html-form","56","1844035","0.0-3.0-1.26","57","1","2025-04-11 14:22:31","bb671e3ae32f654b8954ea4c4635f915","","Mozilla/5.0 (Windows NT 10.0; Win64; x64) AppleWebKit/537.36 (KHTML, like Gecko) Chrome/134.0.0.0 Safari/537.36","WebKit","Chrome","134.0.0.0","Windows","10.0","https://hz8g1ckzuq.cognition.run/","en-US,en;q=0.9","xolr70sq7nn9bgu","32","[""White""]","No","Male","2211537.299999237","9594","","","{""price_1"":""133"",""price_2"":""213"",""price_3"":""89""}","rating","dct","repulsion_2","1","washing machines","null","null","null","null","null","null","2","100","90","100","30","40","20","Average lifespan","Energy savings","",""
"","","","","","rating_trial_setup","html-keyboard-response","57","1844338","0.0-3.0-0.27","57","1","2025-04-11 14:22:31","bb671e3ae32f654b8954ea4c4635f915","","Mozilla/5.0 (Windows NT 10.0; Win64; x64) AppleWebKit/537.36 (KHTML, like Gecko) Chrome/134.0.0.0 Safari/537.36","WebKit","Chrome","134.0.0.0","Windows","10.0","https://hz8g1ckzuq.cognition.run/","en-US,en;q=0.9","xolr70sq7nn9bgu","32","[""White""]","No","Male","2211537.299999237","null","","<p></p>","null","rating","dtc","attraction_2","1","microwave ovens","null","null","null","null","null","null","2","","","","","","","","","",""
"","","","","","rating_trial","survey-html-form","58","1857091","0.0-3.0-1.27","57","1","2025-04-11 14:22:31","bb671e3ae32f654b8954ea4c4635f915","","Mozilla/5.0 (Windows NT 10.0; Win64; x64) AppleWebKit/537.36 (KHTML, like Gecko) Chrome/134.0.0.0 Safari/537.36","WebKit","Chrome","134.0.0.0","Windows","10.0","https://hz8g1ckzuq.cognition.run/","en-US,en;q=0.9","xolr70sq7nn9bgu","32","[""White""]","No","Male","2211537.299999237","12750","","","{""price_1"":""123"",""price_2"":""98"",""price_3"":""87""}","rating","dtc","attraction_2","1","microwave ovens","null","null","null","null","null","null","2","60","50","60","50","60","40","Warranty","Cooking power","",""
"","","","","","rating_trial_setup","html-keyboard-response","59","1857394","0.0-3.0-0.28","57","1","2025-04-11 14:22:31","bb671e3ae32f654b8954ea4c4635f915","","Mozilla/5.0 (Windows NT 10.0; Win64; x64) AppleWebKit/537.36 (KHTML, like Gecko) Chrome/134.0.0.0 Safari/537.36","WebKit","Chrome","134.0.0.0","Windows","10.0","https://hz8g1ckzuq.cognition.run/","en-US,en;q=0.9","xolr70sq7nn9bgu","32","[""White""]","No","Male","2211537.299999237","null","","<p></p>","null","rating","dct","attraction_2","1","laptops","null","null","null","null","null","null","2","","","","","","","","","",""
"","","","","","rating_trial","survey-html-form","60","1878261","0.0-3.0-1.28","57","1","2025-04-11 14:22:31","bb671e3ae32f654b8954ea4c4635f915","","Mozilla/5.0 (Windows NT 10.0; Win64; x64) AppleWebKit/537.36 (KHTML, like Gecko) Chrome/134.0.0.0 Safari/537.36","WebKit","Chrome","134.0.0.0","Windows","10.0","https://hz8g1ckzuq.cognition.run/","en-US,en;q=0.9","xolr70sq7nn9bgu","32","[""White""]","No","Male","2211537.299999237","20864","","","{""price_1"":""167"",""price_2"":""156"",""price_3"":""176""}","rating","dct","attraction_2","1","laptops","null","null","null","null","null","null","2","60","50","60","50","60","40","Processing speed","Memory (RAM)","",""
"","","","","","rating_trial_setup","html-keyboard-response","61","1878565","0.0-3.0-0.29","57","1","2025-04-11 14:22:31","bb671e3ae32f654b8954ea4c4635f915","","Mozilla/5.0 (Windows NT 10.0; Win64; x64) AppleWebKit/537.36 (KHTML, like Gecko) Chrome/134.0.0.0 Safari/537.36","WebKit","Chrome","134.0.0.0","Windows","10.0","https://hz8g1ckzuq.cognition.run/","en-US,en;q=0.9","xolr70sq7nn9bgu","32","[""White""]","No","Male","2211537.299999237","null","","<p></p>","null","rating","tcd","attraction_2","2","washing machines","null","null","null","null","null","null","2","","","","","","","","","",""
"","","","","","rating_trial","survey-html-form","62","1895866","0.0-3.0-1.29","57","1","2025-04-11 14:22:31","bb671e3ae32f654b8954ea4c4635f915","","Mozilla/5.0 (Windows NT 10.0; Win64; x64) AppleWebKit/537.36 (KHTML, like Gecko) Chrome/134.0.0.0 Safari/537.36","WebKit","Chrome","134.0.0.0","Windows","10.0","https://hz8g1ckzuq.cognition.run/","en-US,en;q=0.9","xolr70sq7nn9bgu","32","[""White""]","No","Male","2211537.299999237","17298","","","{""price_1"":""156"",""price_2"":""165"",""price_3"":""176""}","rating","tcd","attraction_2","2","washing machines","null","null","null","null","null","null","2","50","60","40","60","50","60","Average lifespan","Energy savings","",""
"","","","","","rating_trial_setup","html-keyboard-response","63","1896169","0.0-3.0-0.30","57","1","2025-04-11 14:22:31","bb671e3ae32f654b8954ea4c4635f915","","Mozilla/5.0 (Windows NT 10.0; Win64; x64) AppleWebKit/537.36 (KHTML, like Gecko) Chrome/134.0.0.0 Safari/537.36","WebKit","Chrome","134.0.0.0","Windows","10.0","https://hz8g1ckzuq.cognition.run/","en-US,en;q=0.9","xolr70sq7nn9bgu","32","[""White""]","No","Male","2211537.299999237","null","","<p></p>","null","rating","dtc","attraction_2","1","televisions","null","null","null","null","null","null","2","","","","","","","","","",""
"","","","","","rating_trial","survey-html-form","64","1912927","0.0-3.0-1.30","57","1","2025-04-11 14:22:31","bb671e3ae32f654b8954ea4c4635f915","","Mozilla/5.0 (Windows NT 10.0; Win64; x64) AppleWebKit/537.36 (KHTML, like Gecko) Chrome/134.0.0.0 Safari/537.36","WebKit","Chrome","134.0.0.0","Windows","10.0","https://hz8g1ckzuq.cognition.run/","en-US,en;q=0.9","xolr70sq7nn9bgu","32","[""White""]","No","Male","2211537.299999237","16756","","","{""price_1"":""250"",""price_2"":""241"",""price_3"":""285""}","rating","dtc","attraction_2","1","televisions","null","null","null","null","null","null","2","60","50","60","50","60","40","Screen size","Average lifespan","",""
"","","","","","rating_trial_setup","html-keyboard-response","65","1913229","0.0-3.0-0.31","57","1","2025-04-11 14:22:31","bb671e3ae32f654b8954ea4c4635f915","","Mozilla/5.0 (Windows NT 10.0; Win64; x64) AppleWebKit/537.36 (KHTML, like Gecko) Chrome/134.0.0.0 Safari/537.36","WebKit","Chrome","134.0.0.0","Windows","10.0","https://hz8g1ckzuq.cognition.run/","en-US,en;q=0.9","xolr70sq7nn9bgu","32","[""White""]","No","Male","2211537.299999237","null","","<p></p>","null","rating","dtc","repulsion_1","1","microwave ovens","null","null","null","null","null","null","2","","","","","","","","","",""
"","","","","","rating_trial","survey-html-form","66","1924552","0.0-3.0-1.31","57","1","2025-04-11 14:22:31","bb671e3ae32f654b8954ea4c4635f915","","Mozilla/5.0 (Windows NT 10.0; Win64; x64) AppleWebKit/537.36 (KHTML, like Gecko) Chrome/134.0.0.0 Safari/537.36","WebKit","Chrome","134.0.0.0","Windows","10.0","https://hz8g1ckzuq.cognition.run/","en-US,en;q=0.9","xolr70sq7nn9bgu","32","[""White""]","No","Male","2211537.299999237","11319","","","{""price_1"":""78"",""price_2"":""98"",""price_3"":""86""}","rating","dtc","repulsion_1","1","microwave ovens","null","null","null","null","null","null","2","100","90","100","30","40","25","Warranty","Cooking power","",""
"","","","","","rating_trial_setup","html-keyboard-response","67","1924854","0.0-3.0-0.32","57","1","2025-04-11 14:22:31","bb671e3ae32f654b8954ea4c4635f915","","Mozilla/5.0 (Windows NT 10.0; Win64; x64) AppleWebKit/537.36 (KHTML, like Gecko) Chrome/134.0.0.0 Safari/537.36","WebKit","Chrome","134.0.0.0","Windows","10.0","https://hz8g1ckzuq.cognition.run/","en-US,en;q=0.9","xolr70sq7nn9bgu","32","[""White""]","No","Male","2211537.299999237","null","","<p></p>","null","rating","bww","catch","null","washing machines","60","70","50","15","10","10","2","","","","","","","","","",""
"","","","","","rating_trial","survey-html-form","68","1937296","0.0-3.0-1.32","57","1","2025-04-11 14:22:31","bb671e3ae32f654b8954ea4c4635f915","","Mozilla/5.0 (Windows NT 10.0; Win64; x64) AppleWebKit/537.36 (KHTML, like Gecko) Chrome/134.0.0.0 Safari/537.36","WebKit","Chrome","134.0.0.0","Windows","10.0","https://hz8g1ckzuq.cognition.run/","en-US,en;q=0.9","xolr70sq7nn9bgu","32","[""White""]","No","Male","2211537.299999237","12439","","","{""price_1"":""125"",""price_2"":""125"",""price_3"":""125""}","rating","bww","catch","null","washing machines","60","70","50","15","10","10","2","null","null","null","null","null","null","Average lifespan","Energy savings","",""
"","","","","","rating_trial_setup","html-keyboard-response","69","1937599","0.0-3.0-0.33","57","1","2025-04-11 14:22:31","bb671e3ae32f654b8954ea4c4635f915","","Mozilla/5.0 (Windows NT 10.0; Win64; x64) AppleWebKit/537.36 (KHTML, like Gecko) Chrome/134.0.0.0 Safari/537.36","WebKit","Chrome","134.0.0.0","Windows","10.0","https://hz8g1ckzuq.cognition.run/","en-US,en;q=0.9","xolr70sq7nn9bgu","32","[""White""]","No","Male","2211537.299999237","null","","<p></p>","null","rating","wwb","catch","null","microwave ovens","80","55","25","30","15","20","1","","","","","","","","","",""
"","","","","","rating_trial","survey-html-form","70","1950511","0.0-3.0-1.33","57","1","2025-04-11 14:22:31","bb671e3ae32f654b8954ea4c4635f915","","Mozilla/5.0 (Windows NT 10.0; Win64; x64) AppleWebKit/537.36 (KHTML, like Gecko) Chrome/134.0.0.0 Safari/537.36","WebKit","Chrome","134.0.0.0","Windows","10.0","https://hz8g1ckzuq.cognition.run/","en-US,en;q=0.9","xolr70sq7nn9bgu","32","[""White""]","No","Male","2211537.299999237","12910","","","{""price_1"":""135"",""price_2"":""135"",""price_3"":""135""}","rating","wwb","catch","null","microwave ovens","80","55","25","30","15","20","1","null","null","null","null","null","null","Warranty","Cooking power","",""
"","","","","","rating_trial_setup","html-keyboard-response","71","1950815","0.0-3.0-0.34","57","1","2025-04-11 14:22:31","bb671e3ae32f654b8954ea4c4635f915","","Mozilla/5.0 (Windows NT 10.0; Win64; x64) AppleWebKit/537.36 (KHTML, like Gecko) Chrome/134.0.0.0 Safari/537.36","WebKit","Chrome","134.0.0.0","Windows","10.0","https://hz8g1ckzuq.cognition.run/","en-US,en;q=0.9","xolr70sq7nn9bgu","32","[""White""]","No","Male","2211537.299999237","null","","<p></p>","null","rating","tcd","attraction_1","1","washing machines","null","null","null","null","null","null","1","","","","","","","","","",""
"","","","","","rating_trial","survey-html-form","72","1961340","0.0-3.0-1.34","57","1","2025-04-11 14:22:31","bb671e3ae32f654b8954ea4c4635f915","","Mozilla/5.0 (Windows NT 10.0; Win64; x64) AppleWebKit/537.36 (KHTML, like Gecko) Chrome/134.0.0.0 Safari/537.36","WebKit","Chrome","134.0.0.0","Windows","10.0","https://hz8g1ckzuq.cognition.run/","en-US,en;q=0.9","xolr70sq7nn9bgu","32","[""White""]","No","Male","2211537.299999237","10524","","","{""price_1"":""135"",""price_2"":""185"",""price_3"":""185""}","rating","tcd","attraction_1","1","washing machines","null","null","null","null","null","null","1","60","50","60","50","60","45","Average lifespan","Energy savings","",""
"","","","","","rating_trial_setup","html-keyboard-response","73","1961642","0.0-3.0-0.35","57","1","2025-04-11 14:22:31","bb671e3ae32f654b8954ea4c4635f915","","Mozilla/5.0 (Windows NT 10.0; Win64; x64) AppleWebKit/537.36 (KHTML, like Gecko) Chrome/134.0.0.0 Safari/537.36","WebKit","Chrome","134.0.0.0","Windows","10.0","https://hz8g1ckzuq.cognition.run/","en-US,en;q=0.9","xolr70sq7nn9bgu","32","[""White""]","No","Male","2211537.299999237","null","","<p></p>","null","rating","cdt","attraction_1","1","microwave ovens","null","null","null","null","null","null","1","","","","","","","","","",""
"","","","","","rating_trial","survey-html-form","74","1972705","0.0-3.0-1.35","57","1","2025-04-11 14:22:31","bb671e3ae32f654b8954ea4c4635f915","","Mozilla/5.0 (Windows NT 10.0; Win64; x64) AppleWebKit/537.36 (KHTML, like Gecko) Chrome/134.0.0.0 Safari/537.36","WebKit","Chrome","134.0.0.0","Windows","10.0","https://hz8g1ckzuq.cognition.run/","en-US,en;q=0.9","xolr70sq7nn9bgu","32","[""White""]","No","Male","2211537.299999237","11060","","","{""price_1"":""99"",""price_2"":""185"",""price_3"":""98""}","rating","cdt","attraction_1","1","microwave ovens","null","null","null","null","null","null","1","60","50","60","50","60","45","Warranty","Cooking power","",""
"","","","","","rating_trial_setup","html-keyboard-response","75","1973009","0.0-3.0-0.36","57","1","2025-04-11 14:22:31","bb671e3ae32f654b8954ea4c4635f915","","Mozilla/5.0 (Windows NT 10.0; Win64; x64) AppleWebKit/537.36 (KHTML, like Gecko) Chrome/134.0.0.0 Safari/537.36","WebKit","Chrome","134.0.0.0","Windows","10.0","https://hz8g1ckzuq.cognition.run/","en-US,en;q=0.9","xolr70sq7nn9bgu","32","[""White""]","No","Male","2211537.299999237","null","","<p></p>","null","rating","tcd","attraction_1","1","laptops","null","null","null","null","null","null","1","","","","","","","","","",""
"","","","","","rating_trial","survey-html-form","76","1986786","0.0-3.0-1.36","57","1","2025-04-11 14:22:31","bb671e3ae32f654b8954ea4c4635f915","","Mozilla/5.0 (Windows NT 10.0; Win64; x64) AppleWebKit/537.36 (KHTML, like Gecko) Chrome/134.0.0.0 Safari/537.36","WebKit","Chrome","134.0.0.0","Windows","10.0","https://hz8g1ckzuq.cognition.run/","en-US,en;q=0.9","xolr70sq7nn9bgu","32","[""White""]","No","Male","2211537.299999237","13774","","","{""price_1"":""185"",""price_2"":""98"",""price_3"":""89""}","rating","tcd","attraction_1","1","laptops","null","null","null","null","null","null","1","60","50","60","50","60","45","Processing speed","Memory (RAM)","",""
"","","","","","rating_trial_setup","html-keyboard-response","77","1987089","0.0-3.0-0.37","57","1","2025-04-11 14:22:31","bb671e3ae32f654b8954ea4c4635f915","","Mozilla/5.0 (Windows NT 10.0; Win64; x64) AppleWebKit/537.36 (KHTML, like Gecko) Chrome/134.0.0.0 Safari/537.36","WebKit","Chrome","134.0.0.0","Windows","10.0","https://hz8g1ckzuq.cognition.run/","en-US,en;q=0.9","xolr70sq7nn9bgu","32","[""White""]","No","Male","2211537.299999237","null","","<p></p>","null","rating","tdc","repulsion_2","1","televisions","null","null","null","null","null","null","2","","","","","","","","","",""
"","","","","","rating_trial","survey-html-form","78","2003078","0.0-3.0-1.37","57","1","2025-04-11 14:22:31","bb671e3ae32f654b8954ea4c4635f915","","Mozilla/5.0 (Windows NT 10.0; Win64; x64) AppleWebKit/537.36 (KHTML, like Gecko) Chrome/134.0.0.0 Safari/537.36","WebKit","Chrome","134.0.0.0","Windows","10.0","https://hz8g1ckzuq.cognition.run/","en-US,en;q=0.9","xolr70sq7nn9bgu","32","[""White""]","No","Male","2211537.299999237","15986","","","{""price_1"":""185"",""price_2"":""99"",""price_3"":""185""}","rating","tdc","repulsion_2","1","televisions","null","null","null","null","null","null","2","100","90","100","30","40","20","Screen size","Average lifespan","",""
"","","","","","rating_trial_setup","html-keyboard-response","79","2003381","0.0-3.0-0.38","57","1","2025-04-11 14:22:31","bb671e3ae32f654b8954ea4c4635f915","","Mozilla/5.0 (Windows NT 10.0; Win64; x64) AppleWebKit/537.36 (KHTML, like Gecko) Chrome/134.0.0.0 Safari/537.36","WebKit","Chrome","134.0.0.0","Windows","10.0","https://hz8g1ckzuq.cognition.run/","en-US,en;q=0.9","xolr70sq7nn9bgu","32","[""White""]","No","Male","2211537.299999237","null","","<p></p>","null","rating","dct","repulsion_2","2","televisions","null","null","null","null","null","null","1","","","","","","","","","",""
"","","","","","rating_trial","survey-html-form","80","2013731","0.0-3.0-1.38","57","1","2025-04-11 14:22:31","bb671e3ae32f654b8954ea4c4635f915","","Mozilla/5.0 (Windows NT 10.0; Win64; x64) AppleWebKit/537.36 (KHTML, like Gecko) Chrome/134.0.0.0 Safari/537.36","WebKit","Chrome","134.0.0.0","Windows","10.0","https://hz8g1ckzuq.cognition.run/","en-US,en;q=0.9","xolr70sq7nn9bgu","32","[""White""]","No","Male","2211537.299999237","10345","","","{""price_1"":""99"",""price_2"":""125"",""price_3"":""99""}","rating","dct","repulsion_2","2","televisions","null","null","null","null","null","null","1","30","40","20","100","90","100","Screen size","Average lifespan","",""
"","","","","","rating_trial_setup","html-keyboard-response","81","2014035","0.0-3.0-0.39","57","1","2025-04-11 14:22:31","bb671e3ae32f654b8954ea4c4635f915","","Mozilla/5.0 (Windows NT 10.0; Win64; x64) AppleWebKit/537.36 (KHTML, like Gecko) Chrome/134.0.0.0 Safari/537.36","WebKit","Chrome","134.0.0.0","Windows","10.0","https://hz8g1ckzuq.cognition.run/","en-US,en;q=0.9","xolr70sq7nn9bgu","32","[""White""]","No","Male","2211537.299999237","null","","<p></p>","null","rating","dct","repulsion_2","2","laptops","null","null","null","null","null","null","1","","","","","","","","","",""
"","","","","","rating_trial","survey-html-form","82","2025166","0.0-3.0-1.39","57","1","2025-04-11 14:22:31","bb671e3ae32f654b8954ea4c4635f915","","Mozilla/5.0 (Windows NT 10.0; Win64; x64) AppleWebKit/537.36 (KHTML, like Gecko) Chrome/134.0.0.0 Safari/537.36","WebKit","Chrome","134.0.0.0","Windows","10.0","https://hz8g1ckzuq.cognition.run/","en-US,en;q=0.9","xolr70sq7nn9bgu","32","[""White""]","No","Male","2211537.299999237","11129","","","{""price_1"":""175"",""price_2"":""145"",""price_3"":""185""}","rating","dct","repulsion_2","2","laptops","null","null","null","null","null","null","1","30","40","20","100","90","100","Processing speed","Memory (RAM)","",""
"","","","","","","instructions","83","2040960","0.0-4.0","57","1","2025-04-11 14:22:31","bb671e3ae32f654b8954ea4c4635f915","","Mozilla/5.0 (Windows NT 10.0; Win64; x64) AppleWebKit/537.36 (KHTML, like Gecko) Chrome/134.0.0.0 Safari/537.36","WebKit","Chrome","134.0.0.0","Windows","10.0","https://hz8g1ckzuq.cognition.run/","en-US,en;q=0.9","xolr70sq7nn9bgu","32","[""White""]","No","Male","2211537.299999237","15792","[{""page_index"":0,""viewing_time"":2442},{""page_index"":1,""viewing_time"":1269},{""page_index"":2,""viewing_time"":1042},{""page_index"":3,""viewing_time"":1004},{""page_index"":4,""viewing_time"":1221},{""page_index"":5,""viewing_time"":1090},{""page_index"":6,""viewing_time"":5790},{""page_index"":7,""viewing_time"":1934}]","","","","","","","","","","","","","","","","","","","","","","","",""
"","","","","","choice_trial_setup","html-keyboard-response","84","2041265","0.0-5.0-0.0","57","1","2025-04-11 14:22:31","bb671e3ae32f654b8954ea4c4635f915","","Mozilla/5.0 (Windows NT 10.0; Win64; x64) AppleWebKit/537.36 (KHTML, like Gecko) Chrome/134.0.0.0 Safari/537.36","WebKit","Chrome","134.0.0.0","Windows","10.0","https://hz8g1ckzuq.cognition.run/","en-US,en;q=0.9","xolr70sq7nn9bgu","32","[""White""]","No","Male","2211537.299999237","null","","<p></p>","null","choice","dtc","attraction_2","1","televisions","null","null","null","null","null","null","2","","","","","","","","","",""
"","","","","","choice_trial","survey-html-form","85","2043960","0.0-5.0-1.0","57","1","2025-04-11 14:22:31","bb671e3ae32f654b8954ea4c4635f915","","Mozilla/5.0 (Windows NT 10.0; Win64; x64) AppleWebKit/537.36 (KHTML, like Gecko) Chrome/134.0.0.0 Safari/537.36","WebKit","Chrome","134.0.0.0","Windows","10.0","https://hz8g1ckzuq.cognition.run/","en-US,en;q=0.9","xolr70sq7nn9bgu","32","[""White""]","No","Male","2211537.299999237","2691","","","{""product_choice"":""A""}","choice","dtc","attraction_2","1","televisions","null","null","null","null","null","null","2","60","50","60","50","60","40","Screen size","Average lifespan","",""
"","","","","","choice_trial_setup","html-keyboard-response","86","2044263","0.0-5.0-0.1","57","1","2025-04-11 14:22:31","bb671e3ae32f654b8954ea4c4635f915","","Mozilla/5.0 (Windows NT 10.0; Win64; x64) AppleWebKit/537.36 (KHTML, like Gecko) Chrome/134.0.0.0 Safari/537.36","WebKit","Chrome","134.0.0.0","Windows","10.0","https://hz8g1ckzuq.cognition.run/","en-US,en;q=0.9","xolr70sq7nn9bgu","32","[""White""]","No","Male","2211537.299999237","null","","<p></p>","null","choice","cdt","attraction_1","2","washing machines","null","null","null","null","null","null","2","","","","","","","","","",""
"","","","","","choice_trial","survey-html-form","87","2046240","0.0-5.0-1.1","57","1","2025-04-11 14:22:31","bb671e3ae32f654b8954ea4c4635f915","","Mozilla/5.0 (Windows NT 10.0; Win64; x64) AppleWebKit/537.36 (KHTML, like Gecko) Chrome/134.0.0.0 Safari/537.36","WebKit","Chrome","134.0.0.0","Windows","10.0","https://hz8g1ckzuq.cognition.run/","en-US,en;q=0.9","xolr70sq7nn9bgu","32","[""White""]","No","Male","2211537.299999237","1976","","","{""product_choice"":""B""}","choice","cdt","attraction_1","2","washing machines","null","null","null","null","null","null","2","50","60","45","60","50","60","Average lifespan","Energy savings","",""
"","","","","","choice_trial_setup","html-keyboard-response","88","2046544","0.0-5.0-0.2","57","1","2025-04-11 14:22:31","bb671e3ae32f654b8954ea4c4635f915","","Mozilla/5.0 (Windows NT 10.0; Win64; x64) AppleWebKit/537.36 (KHTML, like Gecko) Chrome/134.0.0.0 Safari/537.36","WebKit","Chrome","134.0.0.0","Windows","10.0","https://hz8g1ckzuq.cognition.run/","en-US,en;q=0.9","xolr70sq7nn9bgu","32","[""White""]","No","Male","2211537.299999237","null","","<p></p>","null","choice","cdt","attraction_2","2","washing machines","null","null","null","null","null","null","1","","","","","","","","","",""
"","","","","","choice_trial","survey-html-form","89","2048319","0.0-5.0-1.2","57","1","2025-04-11 14:22:31","bb671e3ae32f654b8954ea4c4635f915","","Mozilla/5.0 (Windows NT 10.0; Win64; x64) AppleWebKit/537.36 (KHTML, like Gecko) Chrome/134.0.0.0 Safari/537.36","WebKit","Chrome","134.0.0.0","Windows","10.0","https://hz8g1ckzuq.cognition.run/","en-US,en;q=0.9","xolr70sq7nn9bgu","32","[""White""]","No","Male","2211537.299999237","1773","","","{""product_choice"":""C""}","choice","cdt","attraction_2","2","washing machines","null","null","null","null","null","null","1","50","60","40","60","50","60","Average lifespan","Energy savings","",""
"","","","","","choice_trial_setup","html-keyboard-response","90","2048622","0.0-5.0-0.3","57","1","2025-04-11 14:22:31","bb671e3ae32f654b8954ea4c4635f915","","Mozilla/5.0 (Windows NT 10.0; Win64; x64) AppleWebKit/537.36 (KHTML, like Gecko) Chrome/134.0.0.0 Safari/537.36","WebKit","Chrome","134.0.0.0","Windows","10.0","https://hz8g1ckzuq.cognition.run/","en-US,en;q=0.9","xolr70sq7nn9bgu","32","[""White""]","No","Male","2211537.299999237","null","","<p></p>","null","choice","tcd","attraction_1","1","washing machines","null","null","null","null","null","null","1","","","","","","","","","",""
"","","","","","choice_trial","survey-html-form","91","2052365","0.0-5.0-1.3","57","1","2025-04-11 14:22:31","bb671e3ae32f654b8954ea4c4635f915","","Mozilla/5.0 (Windows NT 10.0; Win64; x64) AppleWebKit/537.36 (KHTML, like Gecko) Chrome/134.0.0.0 Safari/537.36","WebKit","Chrome","134.0.0.0","Windows","10.0","https://hz8g1ckzuq.cognition.run/","en-US,en;q=0.9","xolr70sq7nn9bgu","32","[""White""]","No","Male","2211537.299999237","3741","","","{""product_choice"":""A""}","choice","tcd","attraction_1","1","washing machines","null","null","null","null","null","null","1","60","50","60","50","60","45","Average lifespan","Energy savings","",""
"","","","","","choice_trial_setup","html-keyboard-response","92","2052669","0.0-5.0-0.4","57","1","2025-04-11 14:22:31","bb671e3ae32f654b8954ea4c4635f915","","Mozilla/5.0 (Windows NT 10.0; Win64; x64) AppleWebKit/537.36 (KHTML, like Gecko) Chrome/134.0.0.0 Safari/537.36","WebKit","Chrome","134.0.0.0","Windows","10.0","https://hz8g1ckzuq.cognition.run/","en-US,en;q=0.9","xolr70sq7nn9bgu","32","[""White""]","No","Male","2211537.299999237","null","","<p></p>","null","choice","cdt","repulsion_1","2","washing machines","null","null","null","null","null","null","2","","","","","","","","","",""
"","","","","","choice_trial","survey-html-form","93","2055275","0.0-5.0-1.4","57","1","2025-04-11 14:22:31","bb671e3ae32f654b8954ea4c4635f915","","Mozilla/5.0 (Windows NT 10.0; Win64; x64) AppleWebKit/537.36 (KHTML, like Gecko) Chrome/134.0.0.0 Safari/537.36","WebKit","Chrome","134.0.0.0","Windows","10.0","https://hz8g1ckzuq.cognition.run/","en-US,en;q=0.9","xolr70sq7nn9bgu","32","[""White""]","No","Male","2211537.299999237","2603","","","{""product_choice"":""B""}","choice","cdt","repulsion_1","2","washing machines","null","null","null","null","null","null","2","30","40","25","100","90","100","Average lifespan","Energy savings","",""
"","","","","","choice_trial_setup","html-keyboard-response","94","2055579","0.0-5.0-0.5","57","1","2025-04-11 14:22:31","bb671e3ae32f654b8954ea4c4635f915","","Mozilla/5.0 (Windows NT 10.0; Win64; x64) AppleWebKit/537.36 (KHTML, like Gecko) Chrome/134.0.0.0 Safari/537.36","WebKit","Chrome","134.0.0.0","Windows","10.0","https://hz8g1ckzuq.cognition.run/","en-US,en;q=0.9","xolr70sq7nn9bgu","32","[""White""]","No","Male","2211537.299999237","null","","<p></p>","null","choice","dct","repulsion_2","2","laptops","null","null","null","null","null","null","2","","","","","","","","","",""
"","","","","","choice_trial","survey-html-form","95","2057825","0.0-5.0-1.5","57","1","2025-04-11 14:22:31","bb671e3ae32f654b8954ea4c4635f915","","Mozilla/5.0 (Windows NT 10.0; Win64; x64) AppleWebKit/537.36 (KHTML, like Gecko) Chrome/134.0.0.0 Safari/537.36","WebKit","Chrome","134.0.0.0","Windows","10.0","https://hz8g1ckzuq.cognition.run/","en-US,en;q=0.9","xolr70sq7nn9bgu","32","[""White""]","No","Male","2211537.299999237","2244","","","{""product_choice"":""A""}","choice","dct","repulsion_2","2","laptops","null","null","null","null","null","null","2","30","40","20","100","90","100","Processing speed","Memory (RAM)","",""
"","","","","","choice_trial_setup","html-keyboard-response","96","2058129","0.0-5.0-0.6","57","1","2025-04-11 14:22:31","bb671e3ae32f654b8954ea4c4635f915","","Mozilla/5.0 (Windows NT 10.0; Win64; x64) AppleWebKit/537.36 (KHTML, like Gecko) Chrome/134.0.0.0 Safari/537.36","WebKit","Chrome","134.0.0.0","Windows","10.0","https://hz8g1ckzuq.cognition.run/","en-US,en;q=0.9","xolr70sq7nn9bgu","32","[""White""]","No","Male","2211537.299999237","null","","<p></p>","null","choice","wbw","catch","null","laptops","65","55","45","20","25","10","1","","","","","","","","","",""
"","","","","","choice_trial","survey-html-form","97","2060580","0.0-5.0-1.6","57","1","2025-04-11 14:22:31","bb671e3ae32f654b8954ea4c4635f915","","Mozilla/5.0 (Windows NT 10.0; Win64; x64) AppleWebKit/537.36 (KHTML, like Gecko) Chrome/134.0.0.0 Safari/537.36","WebKit","Chrome","134.0.0.0","Windows","10.0","https://hz8g1ckzuq.cognition.run/","en-US,en;q=0.9","xolr70sq7nn9bgu","32","[""White""]","No","Male","2211537.299999237","2448","","","{""product_choice"":""B""}","choice","wbw","catch","null","laptops","65","55","45","20","25","10","1","null","null","null","null","null","null","Processing speed","Memory (RAM)","",""
"","","","","","choice_trial_setup","html-keyboard-response","98","2060883","0.0-5.0-0.7","57","1","2025-04-11 14:22:31","bb671e3ae32f654b8954ea4c4635f915","","Mozilla/5.0 (Windows NT 10.0; Win64; x64) AppleWebKit/537.36 (KHTML, like Gecko) Chrome/134.0.0.0 Safari/537.36","WebKit","Chrome","134.0.0.0","Windows","10.0","https://hz8g1ckzuq.cognition.run/","en-US,en;q=0.9","xolr70sq7nn9bgu","32","[""White""]","No","Male","2211537.299999237","null","","<p></p>","null","choice","dct","attraction_1","2","laptops","null","null","null","null","null","null","2","","","","","","","","","",""
"","","","","","choice_trial","survey-html-form","99","2064240","0.0-5.0-1.7","57","1","2025-04-11 14:22:31","bb671e3ae32f654b8954ea4c4635f915","","Mozilla/5.0 (Windows NT 10.0; Win64; x64) AppleWebKit/537.36 (KHTML, like Gecko) Chrome/134.0.0.0 Safari/537.36","WebKit","Chrome","134.0.0.0","Windows","10.0","https://hz8g1ckzuq.cognition.run/","en-US,en;q=0.9","xolr70sq7nn9bgu","32","[""White""]","No","Male","2211537.299999237","3355","","","{""product_choice"":""B""}","choice","dct","attraction_1","2","laptops","null","null","null","null","null","null","2","50","60","45","60","50","60","Processing speed","Memory (RAM)","",""
"","","","","","choice_trial_setup","html-keyboard-response","100","2064543","0.0-5.0-0.8","57","1","2025-04-11 14:22:31","bb671e3ae32f654b8954ea4c4635f915","","Mozilla/5.0 (Windows NT 10.0; Win64; x64) AppleWebKit/537.36 (KHTML, like Gecko) Chrome/134.0.0.0 Safari/537.36","WebKit","Chrome","134.0.0.0","Windows","10.0","https://hz8g1ckzuq.cognition.run/","en-US,en;q=0.9","xolr70sq7nn9bgu","32","[""White""]","No","Male","2211537.299999237","null","","<p></p>","null","choice","tcd","attraction_2","2","microwave ovens","null","null","null","null","null","null","2","","","","","","","","","",""
"","","","","","choice_trial","survey-html-form","101","2066681","0.0-5.0-1.8","57","1","2025-04-11 14:22:31","bb671e3ae32f654b8954ea4c4635f915","","Mozilla/5.0 (Windows NT 10.0; Win64; x64) AppleWebKit/537.36 (KHTML, like Gecko) Chrome/134.0.0.0 Safari/537.36","WebKit","Chrome","134.0.0.0","Windows","10.0","https://hz8g1ckzuq.cognition.run/","en-US,en;q=0.9","xolr70sq7nn9bgu","32","[""White""]","No","Male","2211537.299999237","2134","","","{""product_choice"":""A""}","choice","tcd","attraction_2","2","microwave ovens","null","null","null","null","null","null","2","50","60","40","60","50","60","Warranty","Cooking power","",""
"","","","","","choice_trial_setup","html-keyboard-response","102","2066985","0.0-5.0-0.9","57","1","2025-04-11 14:22:31","bb671e3ae32f654b8954ea4c4635f915","","Mozilla/5.0 (Windows NT 10.0; Win64; x64) AppleWebKit/537.36 (KHTML, like Gecko) Chrome/134.0.0.0 Safari/537.36","WebKit","Chrome","134.0.0.0","Windows","10.0","https://hz8g1ckzuq.cognition.run/","en-US,en;q=0.9","xolr70sq7nn9bgu","32","[""White""]","No","Male","2211537.299999237","null","","<p></p>","null","choice","wbw","catch","null","laptops","55","65","20","30","25","30","1","","","","","","","","","",""
"","","","","","choice_trial","survey-html-form","103","2068815","0.0-5.0-1.9","57","1","2025-04-11 14:22:31","bb671e3ae32f654b8954ea4c4635f915","","Mozilla/5.0 (Windows NT 10.0; Win64; x64) AppleWebKit/537.36 (KHTML, like Gecko) Chrome/134.0.0.0 Safari/537.36","WebKit","Chrome","134.0.0.0","Windows","10.0","https://hz8g1ckzuq.cognition.run/","en-US,en;q=0.9","xolr70sq7nn9bgu","32","[""White""]","No","Male","2211537.299999237","1827","","","{""product_choice"":""B""}","choice","wbw","catch","null","laptops","55","65","20","30","25","30","1","null","null","null","null","null","null","Processing speed","Memory (RAM)","",""
"","","","","","choice_trial_setup","html-keyboard-response","104","2069119","0.0-5.0-0.10","57","1","2025-04-11 14:22:31","bb671e3ae32f654b8954ea4c4635f915","","Mozilla/5.0 (Windows NT 10.0; Win64; x64) AppleWebKit/537.36 (KHTML, like Gecko) Chrome/134.0.0.0 Safari/537.36","WebKit","Chrome","134.0.0.0","Windows","10.0","https://hz8g1ckzuq.cognition.run/","en-US,en;q=0.9","xolr70sq7nn9bgu","32","[""White""]","No","Male","2211537.299999237","null","","<p></p>","null","choice","ctd","repulsion_1","2","microwave ovens","null","null","null","null","null","null","2","","","","","","","","","",""
"","","","","","choice_trial","survey-html-form","105","2070885","0.0-5.0-1.10","57","1","2025-04-11 14:22:31","bb671e3ae32f654b8954ea4c4635f915","","Mozilla/5.0 (Windows NT 10.0; Win64; x64) AppleWebKit/537.36 (KHTML, like Gecko) Chrome/134.0.0.0 Safari/537.36","WebKit","Chrome","134.0.0.0","Windows","10.0","https://hz8g1ckzuq.cognition.run/","en-US,en;q=0.9","xolr70sq7nn9bgu","32","[""White""]","No","Male","2211537.299999237","1762","","","{""product_choice"":""A""}","choice","ctd","repulsion_1","2","microwave ovens","null","null","null","null","null","null","2","30","40","25","100","90","100","Warranty","Cooking power","",""
"","","","","","choice_trial_setup","html-keyboard-response","106","2071189","0.0-5.0-0.11","57","1","2025-04-11 14:22:31","bb671e3ae32f654b8954ea4c4635f915","","Mozilla/5.0 (Windows NT 10.0; Win64; x64) AppleWebKit/537.36 (KHTML, like Gecko) Chrome/134.0.0.0 Safari/537.36","WebKit","Chrome","134.0.0.0","Windows","10.0","https://hz8g1ckzuq.cognition.run/","en-US,en;q=0.9","xolr70sq7nn9bgu","32","[""White""]","No","Male","2211537.299999237","null","","<p></p>","null","choice","cdt","attraction_2","1","washing machines","null","null","null","null","null","null","1","","","","","","","","","",""
"","","","","","choice_trial","survey-html-form","107","2072976","0.0-5.0-1.11","57","1","2025-04-11 14:22:31","bb671e3ae32f654b8954ea4c4635f915","","Mozilla/5.0 (Windows NT 10.0; Win64; x64) AppleWebKit/537.36 (KHTML, like Gecko) Chrome/134.0.0.0 Safari/537.36","WebKit","Chrome","134.0.0.0","Windows","10.0","https://hz8g1ckzuq.cognition.run/","en-US,en;q=0.9","xolr70sq7nn9bgu","32","[""White""]","No","Male","2211537.299999237","1784","","","{""product_choice"":""B""}","choice","cdt","attraction_2","1","washing machines","null","null","null","null","null","null","1","60","50","60","50","60","40","Average lifespan","Energy savings","",""
"","","","","","choice_trial_setup","html-keyboard-response","108","2073279","0.0-5.0-0.12","57","1","2025-04-11 14:22:31","bb671e3ae32f654b8954ea4c4635f915","","Mozilla/5.0 (Windows NT 10.0; Win64; x64) AppleWebKit/537.36 (KHTML, like Gecko) Chrome/134.0.0.0 Safari/537.36","WebKit","Chrome","134.0.0.0","Windows","10.0","https://hz8g1ckzuq.cognition.run/","en-US,en;q=0.9","xolr70sq7nn9bgu","32","[""White""]","No","Male","2211537.299999237","null","","<p></p>","null","choice","dtc","repulsion_1","1","washing machines","null","null","null","null","null","null","2","","","","","","","","","",""
"","","","","","choice_trial","survey-html-form","109","2075481","0.0-5.0-1.12","57","1","2025-04-11 14:22:31","bb671e3ae32f654b8954ea4c4635f915","","Mozilla/5.0 (Windows NT 10.0; Win64; x64) AppleWebKit/537.36 (KHTML, like Gecko) Chrome/134.0.0.0 Safari/537.36","WebKit","Chrome","134.0.0.0","Windows","10.0","https://hz8g1ckzuq.cognition.run/","en-US,en;q=0.9","xolr70sq7nn9bgu","32","[""White""]","No","Male","2211537.299999237","2199","","","{""product_choice"":""A""}","choice","dtc","repulsion_1","1","washing machines","null","null","null","null","null","null","2","100","90","100","30","40","25","Average lifespan","Energy savings","",""
"","","","","","choice_trial_setup","html-keyboard-response","110","2075785","0.0-5.0-0.13","57","1","2025-04-11 14:22:31","bb671e3ae32f654b8954ea4c4635f915","","Mozilla/5.0 (Windows NT 10.0; Win64; x64) AppleWebKit/537.36 (KHTML, like Gecko) Chrome/134.0.0.0 Safari/537.36","WebKit","Chrome","134.0.0.0","Windows","10.0","https://hz8g1ckzuq.cognition.run/","en-US,en;q=0.9","xolr70sq7nn9bgu","32","[""White""]","No","Male","2211537.299999237","null","","<p></p>","null","choice","cdt","attraction_1","2","microwave ovens","null","null","null","null","null","null","1","","","","","","","","","",""
"","","","","","choice_trial","survey-html-form","111","2077941","0.0-5.0-1.13","57","1","2025-04-11 14:22:31","bb671e3ae32f654b8954ea4c4635f915","","Mozilla/5.0 (Windows NT 10.0; Win64; x64) AppleWebKit/537.36 (KHTML, like Gecko) Chrome/134.0.0.0 Safari/537.36","WebKit","Chrome","134.0.0.0","Windows","10.0","https://hz8g1ckzuq.cognition.run/","en-US,en;q=0.9","xolr70sq7nn9bgu","32","[""White""]","No","Male","2211537.299999237","2153","","","{""product_choice"":""B""}","choice","cdt","attraction_1","2","microwave ovens","null","null","null","null","null","null","1","50","60","45","60","50","60","Warranty","Cooking power","",""
"","","","","","choice_trial_setup","html-keyboard-response","112","2078244","0.0-5.0-0.14","57","1","2025-04-11 14:22:31","bb671e3ae32f654b8954ea4c4635f915","","Mozilla/5.0 (Windows NT 10.0; Win64; x64) AppleWebKit/537.36 (KHTML, like Gecko) Chrome/134.0.0.0 Safari/537.36","WebKit","Chrome","134.0.0.0","Windows","10.0","https://hz8g1ckzuq.cognition.run/","en-US,en;q=0.9","xolr70sq7nn9bgu","32","[""White""]","No","Male","2211537.299999237","null","","<p></p>","null","choice","wwb","catch","null","microwave ovens","80","65","5","30","25","45","2","","","","","","","","","",""
"","","","","","choice_trial","survey-html-form","113","2079860","0.0-5.0-1.14","57","1","2025-04-11 14:22:31","bb671e3ae32f654b8954ea4c4635f915","","Mozilla/5.0 (Windows NT 10.0; Win64; x64) AppleWebKit/537.36 (KHTML, like Gecko) Chrome/134.0.0.0 Safari/537.36","WebKit","Chrome","134.0.0.0","Windows","10.0","https://hz8g1ckzuq.cognition.run/","en-US,en;q=0.9","xolr70sq7nn9bgu","32","[""White""]","No","Male","2211537.299999237","1614","","","{""product_choice"":""A""}","choice","wwb","catch","null","microwave ovens","80","65","5","30","25","45","2","null","null","null","null","null","null","Warranty","Cooking power","",""
"","","","","","choice_trial_setup","html-keyboard-response","114","2080163","0.0-5.0-0.15","57","1","2025-04-11 14:22:31","bb671e3ae32f654b8954ea4c4635f915","","Mozilla/5.0 (Windows NT 10.0; Win64; x64) AppleWebKit/537.36 (KHTML, like Gecko) Chrome/134.0.0.0 Safari/537.36","WebKit","Chrome","134.0.0.0","Windows","10.0","https://hz8g1ckzuq.cognition.run/","en-US,en;q=0.9","xolr70sq7nn9bgu","32","[""White""]","No","Male","2211537.299999237","null","","<p></p>","null","choice","tcd","repulsion_1","2","televisions","null","null","null","null","null","null","2","","","","","","","","","",""
"","","","","","choice_trial","survey-html-form","115","2083085","0.0-5.0-1.15","57","1","2025-04-11 14:22:31","bb671e3ae32f654b8954ea4c4635f915","","Mozilla/5.0 (Windows NT 10.0; Win64; x64) AppleWebKit/537.36 (KHTML, like Gecko) Chrome/134.0.0.0 Safari/537.36","WebKit","Chrome","134.0.0.0","Windows","10.0","https://hz8g1ckzuq.cognition.run/","en-US,en;q=0.9","xolr70sq7nn9bgu","32","[""White""]","No","Male","2211537.299999237","2919","","","{""product_choice"":""B""}","choice","tcd","repulsion_1","2","televisions","null","null","null","null","null","null","2","30","40","25","100","90","100","Screen size","Average lifespan","",""
"","","","","","choice_trial_setup","html-keyboard-response","116","2083387","0.0-5.0-0.16","57","1","2025-04-11 14:22:31","bb671e3ae32f654b8954ea4c4635f915","","Mozilla/5.0 (Windows NT 10.0; Win64; x64) AppleWebKit/537.36 (KHTML, like Gecko) Chrome/134.0.0.0 Safari/537.36","WebKit","Chrome","134.0.0.0","Windows","10.0","https://hz8g1ckzuq.cognition.run/","en-US,en;q=0.9","xolr70sq7nn9bgu","32","[""White""]","No","Male","2211537.299999237","null","","<p></p>","null","choice","tcd","repulsion_2","2","washing machines","null","null","null","null","null","null","1","","","","","","","","","",""
"","","","","","choice_trial","survey-html-form","117","2088780","0.0-5.0-1.16","57","1","2025-04-11 14:22:31","bb671e3ae32f654b8954ea4c4635f915","","Mozilla/5.0 (Windows NT 10.0; Win64; x64) AppleWebKit/537.36 (KHTML, like Gecko) Chrome/134.0.0.0 Safari/537.36","WebKit","Chrome","134.0.0.0","Windows","10.0","https://hz8g1ckzuq.cognition.run/","en-US,en;q=0.9","xolr70sq7nn9bgu","32","[""White""]","No","Male","2211537.299999237","5390","","","{""product_choice"":""B""}","choice","tcd","repulsion_2","2","washing machines","null","null","null","null","null","null","1","30","40","20","100","90","100","Average lifespan","Energy savings","",""
"","","","","","choice_trial_setup","html-keyboard-response","118","2089083","0.0-5.0-0.17","57","1","2025-04-11 14:22:31","bb671e3ae32f654b8954ea4c4635f915","","Mozilla/5.0 (Windows NT 10.0; Win64; x64) AppleWebKit/537.36 (KHTML, like Gecko) Chrome/134.0.0.0 Safari/537.36","WebKit","Chrome","134.0.0.0","Windows","10.0","https://hz8g1ckzuq.cognition.run/","en-US,en;q=0.9","xolr70sq7nn9bgu","32","[""White""]","No","Male","2211537.299999237","null","","<p></p>","null","choice","tdc","repulsion_1","1","microwave ovens","null","null","null","null","null","null","1","","","","","","","","","",""
"","","","","","choice_trial","survey-html-form","119","2091585","0.0-5.0-1.17","57","1","2025-04-11 14:22:31","bb671e3ae32f654b8954ea4c4635f915","","Mozilla/5.0 (Windows NT 10.0; Win64; x64) AppleWebKit/537.36 (KHTML, like Gecko) Chrome/134.0.0.0 Safari/537.36","WebKit","Chrome","134.0.0.0","Windows","10.0","https://hz8g1ckzuq.cognition.run/","en-US,en;q=0.9","xolr70sq7nn9bgu","32","[""White""]","No","Male","2211537.299999237","2498","","","{""product_choice"":""A""}","choice","tdc","repulsion_1","1","microwave ovens","null","null","null","null","null","null","1","100","90","100","30","40","25","Warranty","Cooking power","",""
"","","","","","choice_trial_setup","html-keyboard-response","120","2091889","0.0-5.0-0.18","57","1","2025-04-11 14:22:31","bb671e3ae32f654b8954ea4c4635f915","","Mozilla/5.0 (Windows NT 10.0; Win64; x64) AppleWebKit/537.36 (KHTML, like Gecko) Chrome/134.0.0.0 Safari/537.36","WebKit","Chrome","134.0.0.0","Windows","10.0","https://hz8g1ckzuq.cognition.run/","en-US,en;q=0.9","xolr70sq7nn9bgu","32","[""White""]","No","Male","2211537.299999237","null","","<p></p>","null","choice","dtc","attraction_2","1","microwave ovens","null","null","null","null","null","null","1","","","","","","","","","",""
"","","","","","choice_trial","survey-html-form","121","2094650","0.0-5.0-1.18","57","1","2025-04-11 14:22:31","bb671e3ae32f654b8954ea4c4635f915","","Mozilla/5.0 (Windows NT 10.0; Win64; x64) AppleWebKit/537.36 (KHTML, like Gecko) Chrome/134.0.0.0 Safari/537.36","WebKit","Chrome","134.0.0.0","Windows","10.0","https://hz8g1ckzuq.cognition.run/","en-US,en;q=0.9","xolr70sq7nn9bgu","32","[""White""]","No","Male","2211537.299999237","2758","","","{""product_choice"":""B""}","choice","dtc","attraction_2","1","microwave ovens","null","null","null","null","null","null","1","60","50","60","50","60","40","Warranty","Cooking power","",""
"","","","","","choice_trial_setup","html-keyboard-response","122","2094955","0.0-5.0-0.19","57","1","2025-04-11 14:22:31","bb671e3ae32f654b8954ea4c4635f915","","Mozilla/5.0 (Windows NT 10.0; Win64; x64) AppleWebKit/537.36 (KHTML, like Gecko) Chrome/134.0.0.0 Safari/537.36","WebKit","Chrome","134.0.0.0","Windows","10.0","https://hz8g1ckzuq.cognition.run/","en-US,en;q=0.9","xolr70sq7nn9bgu","32","[""White""]","No","Male","2211537.299999237","null","","<p></p>","null","choice","bww","catch","null","televisions","65","60","5","5","5","15","1","","","","","","","","","",""
"","","","","","choice_trial","survey-html-form","123","2096845","0.0-5.0-1.19","57","1","2025-04-11 14:22:31","bb671e3ae32f654b8954ea4c4635f915","","Mozilla/5.0 (Windows NT 10.0; Win64; x64) AppleWebKit/537.36 (KHTML, like Gecko) Chrome/134.0.0.0 Safari/537.36","WebKit","Chrome","134.0.0.0","Windows","10.0","https://hz8g1ckzuq.cognition.run/","en-US,en;q=0.9","xolr70sq7nn9bgu","32","[""White""]","No","Male","2211537.299999237","1887","","","{""product_choice"":""B""}","choice","bww","catch","null","televisions","65","60","5","5","5","15","1","null","null","null","null","null","null","Screen size","Average lifespan","",""
"","","","","","choice_trial_setup","html-keyboard-response","124","2097149","0.0-5.0-0.20","57","1","2025-04-11 14:22:31","bb671e3ae32f654b8954ea4c4635f915","","Mozilla/5.0 (Windows NT 10.0; Win64; x64) AppleWebKit/537.36 (KHTML, like Gecko) Chrome/134.0.0.0 Safari/537.36","WebKit","Chrome","134.0.0.0","Windows","10.0","https://hz8g1ckzuq.cognition.run/","en-US,en;q=0.9","xolr70sq7nn9bgu","32","[""White""]","No","Male","2211537.299999237","null","","<p></p>","null","choice","cdt","repulsion_2","1","televisions","null","null","null","null","null","null","2","","","","","","","","","",""
"","","","","","choice_trial","survey-html-form","125","2101046","0.0-5.0-1.20","57","1","2025-04-11 14:22:31","bb671e3ae32f654b8954ea4c4635f915","","Mozilla/5.0 (Windows NT 10.0; Win64; x64) AppleWebKit/537.36 (KHTML, like Gecko) Chrome/134.0.0.0 Safari/537.36","WebKit","Chrome","134.0.0.0","Windows","10.0","https://hz8g1ckzuq.cognition.run/","en-US,en;q=0.9","xolr70sq7nn9bgu","32","[""White""]","No","Male","2211537.299999237","3893","","","{""product_choice"":""A""}","choice","cdt","repulsion_2","1","televisions","null","null","null","null","null","null","2","100","90","100","30","40","20","Screen size","Average lifespan","",""
"","","","","","choice_trial_setup","html-keyboard-response","126","2101349","0.0-5.0-0.21","57","1","2025-04-11 14:22:31","bb671e3ae32f654b8954ea4c4635f915","","Mozilla/5.0 (Windows NT 10.0; Win64; x64) AppleWebKit/537.36 (KHTML, like Gecko) Chrome/134.0.0.0 Safari/537.36","WebKit","Chrome","134.0.0.0","Windows","10.0","https://hz8g1ckzuq.cognition.run/","en-US,en;q=0.9","xolr70sq7nn9bgu","32","[""White""]","No","Male","2211537.299999237","null","","<p></p>","null","choice","bww","catch","null","televisions","60","50","35","10","10","5","2","","","","","","","","","",""
"","","","","","choice_trial","survey-html-form","127","2108852","0.0-5.0-1.21","57","1","2025-04-11 14:22:31","bb671e3ae32f654b8954ea4c4635f915","","Mozilla/5.0 (Windows NT 10.0; Win64; x64) AppleWebKit/537.36 (KHTML, like Gecko) Chrome/134.0.0.0 Safari/537.36","WebKit","Chrome","134.0.0.0","Windows","10.0","https://hz8g1ckzuq.cognition.run/","en-US,en;q=0.9","xolr70sq7nn9bgu","32","[""White""]","No","Male","2211537.299999237","7500","","","{""product_choice"":""B""}","choice","bww","catch","null","televisions","60","50","35","10","10","5","2","null","null","null","null","null","null","Screen size","Average lifespan","",""
"","","","","","choice_trial_setup","html-keyboard-response","128","2109156","0.0-5.0-0.22","57","1","2025-04-11 14:22:31","bb671e3ae32f654b8954ea4c4635f915","","Mozilla/5.0 (Windows NT 10.0; Win64; x64) AppleWebKit/537.36 (KHTML, like Gecko) Chrome/134.0.0.0 Safari/537.36","WebKit","Chrome","134.0.0.0","Windows","10.0","https://hz8g1ckzuq.cognition.run/","en-US,en;q=0.9","xolr70sq7nn9bgu","32","[""White""]","No","Male","2211537.299999237","null","","<p></p>","null","choice","tcd","attraction_1","1","televisions","null","null","null","null","null","null","2","","","","","","","","","",""
"","","","","","choice_trial","survey-html-form","129","2113740","0.0-5.0-1.22","57","1","2025-04-11 14:22:31","bb671e3ae32f654b8954ea4c4635f915","","Mozilla/5.0 (Windows NT 10.0; Win64; x64) AppleWebKit/537.36 (KHTML, like Gecko) Chrome/134.0.0.0 Safari/537.36","WebKit","Chrome","134.0.0.0","Windows","10.0","https://hz8g1ckzuq.cognition.run/","en-US,en;q=0.9","xolr70sq7nn9bgu","32","[""White""]","No","Male","2211537.299999237","4580","","","{""product_choice"":""A""}","choice","tcd","attraction_1","1","televisions","null","null","null","null","null","null","2","60","50","60","50","60","45","Screen size","Average lifespan","",""
"","","","","","choice_trial_setup","html-keyboard-response","130","2114046","0.0-5.0-0.23","57","1","2025-04-11 14:22:31","bb671e3ae32f654b8954ea4c4635f915","","Mozilla/5.0 (Windows NT 10.0; Win64; x64) AppleWebKit/537.36 (KHTML, like Gecko) Chrome/134.0.0.0 Safari/537.36","WebKit","Chrome","134.0.0.0","Windows","10.0","https://hz8g1ckzuq.cognition.run/","en-US,en;q=0.9","xolr70sq7nn9bgu","32","[""White""]","No","Male","2211537.299999237","null","","<p></p>","null","choice","tdc","attraction_2","2","televisions","null","null","null","null","null","null","1","","","","","","","","","",""
"","","","","","choice_trial","survey-html-form","131","2116131","0.0-5.0-1.23","57","1","2025-04-11 14:22:31","bb671e3ae32f654b8954ea4c4635f915","","Mozilla/5.0 (Windows NT 10.0; Win64; x64) AppleWebKit/537.36 (KHTML, like Gecko) Chrome/134.0.0.0 Safari/537.36","WebKit","Chrome","134.0.0.0","Windows","10.0","https://hz8g1ckzuq.cognition.run/","en-US,en;q=0.9","xolr70sq7nn9bgu","32","[""White""]","No","Male","2211537.299999237","2082","","","{""product_choice"":""A""}","choice","tdc","attraction_2","2","televisions","null","null","null","null","null","null","1","50","60","40","60","50","60","Screen size","Average lifespan","",""
"","","","","","choice_trial_setup","html-keyboard-response","132","2116437","0.0-5.0-0.24","57","1","2025-04-11 14:22:31","bb671e3ae32f654b8954ea4c4635f915","","Mozilla/5.0 (Windows NT 10.0; Win64; x64) AppleWebKit/537.36 (KHTML, like Gecko) Chrome/134.0.0.0 Safari/537.36","WebKit","Chrome","134.0.0.0","Windows","10.0","https://hz8g1ckzuq.cognition.run/","en-US,en;q=0.9","xolr70sq7nn9bgu","32","[""White""]","No","Male","2211537.299999237","null","","<p></p>","null","choice","dtc","attraction_2","1","laptops","null","null","null","null","null","null","1","","","","","","","","","",""
"","","","","","choice_trial","survey-html-form","133","2118511","0.0-5.0-1.24","57","1","2025-04-11 14:22:31","bb671e3ae32f654b8954ea4c4635f915","","Mozilla/5.0 (Windows NT 10.0; Win64; x64) AppleWebKit/537.36 (KHTML, like Gecko) Chrome/134.0.0.0 Safari/537.36","WebKit","Chrome","134.0.0.0","Windows","10.0","https://hz8g1ckzuq.cognition.run/","en-US,en;q=0.9","xolr70sq7nn9bgu","32","[""White""]","No","Male","2211537.299999237","2070","","","{""product_choice"":""B""}","choice","dtc","attraction_2","1","laptops","null","null","null","null","null","null","1","60","50","60","50","60","40","Processing speed","Memory (RAM)","",""
"","","","","","choice_trial_setup","html-keyboard-response","134","2118815","0.0-5.0-0.25","57","1","2025-04-11 14:22:31","bb671e3ae32f654b8954ea4c4635f915","","Mozilla/5.0 (Windows NT 10.0; Win64; x64) AppleWebKit/537.36 (KHTML, like Gecko) Chrome/134.0.0.0 Safari/537.36","WebKit","Chrome","134.0.0.0","Windows","10.0","https://hz8g1ckzuq.cognition.run/","en-US,en;q=0.9","xolr70sq7nn9bgu","32","[""White""]","No","Male","2211537.299999237","null","","<p></p>","null","choice","cdt","repulsion_2","2","microwave ovens","null","null","null","null","null","null","2","","","","","","","","","",""
"","","","","","choice_trial","survey-html-form","135","2120766","0.0-5.0-1.25","57","1","2025-04-11 14:22:31","bb671e3ae32f654b8954ea4c4635f915","","Mozilla/5.0 (Windows NT 10.0; Win64; x64) AppleWebKit/537.36 (KHTML, like Gecko) Chrome/134.0.0.0 Safari/537.36","WebKit","Chrome","134.0.0.0","Windows","10.0","https://hz8g1ckzuq.cognition.run/","en-US,en;q=0.9","xolr70sq7nn9bgu","32","[""White""]","No","Male","2211537.299999237","1949","","","{""product_choice"":""A""}","choice","cdt","repulsion_2","2","microwave ovens","null","null","null","null","null","null","2","30","40","20","100","90","100","Warranty","Cooking power","",""
"","","","","","choice_trial_setup","html-keyboard-response","136","2121070","0.0-5.0-0.26","57","1","2025-04-11 14:22:31","bb671e3ae32f654b8954ea4c4635f915","","Mozilla/5.0 (Windows NT 10.0; Win64; x64) AppleWebKit/537.36 (KHTML, like Gecko) Chrome/134.0.0.0 Safari/537.36","WebKit","Chrome","134.0.0.0","Windows","10.0","https://hz8g1ckzuq.cognition.run/","en-US,en;q=0.9","xolr70sq7nn9bgu","32","[""White""]","No","Male","2211537.299999237","null","","<p></p>","null","choice","ctd","repulsion_1","1","laptops","null","null","null","null","null","null","1","","","","","","","","","",""
"","","","","","choice_trial","survey-html-form","137","2123413","0.0-5.0-1.26","57","1","2025-04-11 14:22:31","bb671e3ae32f654b8954ea4c4635f915","","Mozilla/5.0 (Windows NT 10.0; Win64; x64) AppleWebKit/537.36 (KHTML, like Gecko) Chrome/134.0.0.0 Safari/537.36","WebKit","Chrome","134.0.0.0","Windows","10.0","https://hz8g1ckzuq.cognition.run/","en-US,en;q=0.9","xolr70sq7nn9bgu","32","[""White""]","No","Male","2211537.299999237","2339","","","{""product_choice"":""B""}","choice","ctd","repulsion_1","1","laptops","null","null","null","null","null","null","1","100","90","100","30","40","25","Processing speed","Memory (RAM)","",""
"","","","","","choice_trial_setup","html-keyboard-response","138","2123718","0.0-5.0-0.27","57","1","2025-04-11 14:22:31","bb671e3ae32f654b8954ea4c4635f915","","Mozilla/5.0 (Windows NT 10.0; Win64; x64) AppleWebKit/537.36 (KHTML, like Gecko) Chrome/134.0.0.0 Safari/537.36","WebKit","Chrome","134.0.0.0","Windows","10.0","https://hz8g1ckzuq.cognition.run/","en-US,en;q=0.9","xolr70sq7nn9bgu","32","[""White""]","No","Male","2211537.299999237","null","","<p></p>","null","choice","tcd","repulsion_2","1","washing machines","null","null","null","null","null","null","1","","","","","","","","","",""
"","","","","","choice_trial","survey-html-form","139","2137597","0.0-5.0-1.27","57","1","2025-04-11 14:22:31","bb671e3ae32f654b8954ea4c4635f915","","Mozilla/5.0 (Windows NT 10.0; Win64; x64) AppleWebKit/537.36 (KHTML, like Gecko) Chrome/134.0.0.0 Safari/537.36","WebKit","Chrome","134.0.0.0","Windows","10.0","https://hz8g1ckzuq.cognition.run/","en-US,en;q=0.9","xolr70sq7nn9bgu","32","[""White""]","No","Male","2211537.299999237","13877","","","{""product_choice"":""B""}","choice","tcd","repulsion_2","1","washing machines","null","null","null","null","null","null","1","100","90","100","30","40","20","Average lifespan","Energy savings","",""
"","","","","","choice_trial_setup","html-keyboard-response","140","2137902","0.0-5.0-0.28","57","1","2025-04-11 14:22:31","bb671e3ae32f654b8954ea4c4635f915","","Mozilla/5.0 (Windows NT 10.0; Win64; x64) AppleWebKit/537.36 (KHTML, like Gecko) Chrome/134.0.0.0 Safari/537.36","WebKit","Chrome","134.0.0.0","Windows","10.0","https://hz8g1ckzuq.cognition.run/","en-US,en;q=0.9","xolr70sq7nn9bgu","32","[""White""]","No","Male","2211537.299999237","null","","<p></p>","null","choice","dct","attraction_1","1","microwave ovens","null","null","null","null","null","null","2","","","","","","","","","",""
"","","","","","choice_trial","survey-html-form","141","2140980","0.0-5.0-1.28","57","1","2025-04-11 14:22:31","bb671e3ae32f654b8954ea4c4635f915","","Mozilla/5.0 (Windows NT 10.0; Win64; x64) AppleWebKit/537.36 (KHTML, like Gecko) Chrome/134.0.0.0 Safari/537.36","WebKit","Chrome","134.0.0.0","Windows","10.0","https://hz8g1ckzuq.cognition.run/","en-US,en;q=0.9","xolr70sq7nn9bgu","32","[""White""]","No","Male","2211537.299999237","3074","","","{""product_choice"":""A""}","choice","dct","attraction_1","1","microwave ovens","null","null","null","null","null","null","2","60","50","60","50","60","45","Warranty","Cooking power","",""
"","","","","","choice_trial_setup","html-keyboard-response","142","2141285","0.0-5.0-0.29","57","1","2025-04-11 14:22:31","bb671e3ae32f654b8954ea4c4635f915","","Mozilla/5.0 (Windows NT 10.0; Win64; x64) AppleWebKit/537.36 (KHTML, like Gecko) Chrome/134.0.0.0 Safari/537.36","WebKit","Chrome","134.0.0.0","Windows","10.0","https://hz8g1ckzuq.cognition.run/","en-US,en;q=0.9","xolr70sq7nn9bgu","32","[""White""]","No","Male","2211537.299999237","null","","<p></p>","null","choice","tdc","attraction_2","2","laptops","null","null","null","null","null","null","1","","","","","","","","","",""
"","","","","","choice_trial","survey-html-form","143","2144350","0.0-5.0-1.29","57","1","2025-04-11 14:22:31","bb671e3ae32f654b8954ea4c4635f915","","Mozilla/5.0 (Windows NT 10.0; Win64; x64) AppleWebKit/537.36 (KHTML, like Gecko) Chrome/134.0.0.0 Safari/537.36","WebKit","Chrome","134.0.0.0","Windows","10.0","https://hz8g1ckzuq.cognition.run/","en-US,en;q=0.9","xolr70sq7nn9bgu","32","[""White""]","No","Male","2211537.299999237","3062","","","{""product_choice"":""A""}","choice","tdc","attraction_2","2","laptops","null","null","null","null","null","null","1","50","60","40","60","50","60","Processing speed","Memory (RAM)","",""
"","","","","","choice_trial_setup","html-keyboard-response","144","2144655","0.0-5.0-0.30","57","1","2025-04-11 14:22:31","bb671e3ae32f654b8954ea4c4635f915","","Mozilla/5.0 (Windows NT 10.0; Win64; x64) AppleWebKit/537.36 (KHTML, like Gecko) Chrome/134.0.0.0 Safari/537.36","WebKit","Chrome","134.0.0.0","Windows","10.0","https://hz8g1ckzuq.cognition.run/","en-US,en;q=0.9","xolr70sq7nn9bgu","32","[""White""]","No","Male","2211537.299999237","null","","<p></p>","null","choice","bww","catch","null","microwave ovens","65","85","45","10","50","10","2","","","","","","","","","",""
"","","","","","choice_trial","survey-html-form","145","2146350","0.0-5.0-1.30","57","1","2025-04-11 14:22:31","bb671e3ae32f654b8954ea4c4635f915","","Mozilla/5.0 (Windows NT 10.0; Win64; x64) AppleWebKit/537.36 (KHTML, like Gecko) Chrome/134.0.0.0 Safari/537.36","WebKit","Chrome","134.0.0.0","Windows","10.0","https://hz8g1ckzuq.cognition.run/","en-US,en;q=0.9","xolr70sq7nn9bgu","32","[""White""]","No","Male","2211537.299999237","1692","","","{""product_choice"":""B""}","choice","bww","catch","null","microwave ovens","65","85","45","10","50","10","2","null","null","null","null","null","null","Warranty","Cooking power","",""
"","","","","","choice_trial_setup","html-keyboard-response","146","2146655","0.0-5.0-0.31","57","1","2025-04-11 14:22:31","bb671e3ae32f654b8954ea4c4635f915","","Mozilla/5.0 (Windows NT 10.0; Win64; x64) AppleWebKit/537.36 (KHTML, like Gecko) Chrome/134.0.0.0 Safari/537.36","WebKit","Chrome","134.0.0.0","Windows","10.0","https://hz8g1ckzuq.cognition.run/","en-US,en;q=0.9","xolr70sq7nn9bgu","32","[""White""]","No","Male","2211537.299999237","null","","<p></p>","null","choice","ctd","repulsion_1","1","televisions","null","null","null","null","null","null","2","","","","","","","","","",""
"","","","","","choice_trial","survey-html-form","147","2148915","0.0-5.0-1.31","57","1","2025-04-11 14:22:31","bb671e3ae32f654b8954ea4c4635f915","","Mozilla/5.0 (Windows NT 10.0; Win64; x64) AppleWebKit/537.36 (KHTML, like Gecko) Chrome/134.0.0.0 Safari/537.36","WebKit","Chrome","134.0.0.0","Windows","10.0","https://hz8g1ckzuq.cognition.run/","en-US,en;q=0.9","xolr70sq7nn9bgu","32","[""White""]","No","Male","2211537.299999237","2257","","","{""product_choice"":""A""}","choice","ctd","repulsion_1","1","televisions","null","null","null","null","null","null","2","100","90","100","30","40","25","Screen size","Average lifespan","",""
"","","","","","choice_trial_setup","html-keyboard-response","148","2149219","0.0-5.0-0.32","57","1","2025-04-11 14:22:31","bb671e3ae32f654b8954ea4c4635f915","","Mozilla/5.0 (Windows NT 10.0; Win64; x64) AppleWebKit/537.36 (KHTML, like Gecko) Chrome/134.0.0.0 Safari/537.36","WebKit","Chrome","134.0.0.0","Windows","10.0","https://hz8g1ckzuq.cognition.run/","en-US,en;q=0.9","xolr70sq7nn9bgu","32","[""White""]","No","Male","2211537.299999237","null","","<p></p>","null","choice","dtc","attraction_1","1","laptops","null","null","null","null","null","null","2","","","","","","","","","",""
"","","","","","choice_trial","survey-html-form","149","2152560","0.0-5.0-1.32","57","1","2025-04-11 14:22:31","bb671e3ae32f654b8954ea4c4635f915","","Mozilla/5.0 (Windows NT 10.0; Win64; x64) AppleWebKit/537.36 (KHTML, like Gecko) Chrome/134.0.0.0 Safari/537.36","WebKit","Chrome","134.0.0.0","Windows","10.0","https://hz8g1ckzuq.cognition.run/","en-US,en;q=0.9","xolr70sq7nn9bgu","32","[""White""]","No","Male","2211537.299999237","3336","","","{""product_choice"":""B""}","choice","dtc","attraction_1","1","laptops","null","null","null","null","null","null","2","60","50","60","50","60","45","Processing speed","Memory (RAM)","",""
"","","","","","choice_trial_setup","html-keyboard-response","150","2152865","0.0-5.0-0.33","57","1","2025-04-11 14:22:31","bb671e3ae32f654b8954ea4c4635f915","","Mozilla/5.0 (Windows NT 10.0; Win64; x64) AppleWebKit/537.36 (KHTML, like Gecko) Chrome/134.0.0.0 Safari/537.36","WebKit","Chrome","134.0.0.0","Windows","10.0","https://hz8g1ckzuq.cognition.run/","en-US,en;q=0.9","xolr70sq7nn9bgu","32","[""White""]","No","Male","2211537.299999237","null","","<p></p>","null","choice","ctd","repulsion_2","1","microwave ovens","null","null","null","null","null","null","1","","","","","","","","","",""
"","","","","","choice_trial","survey-html-form","151","2155025","0.0-5.0-1.33","57","1","2025-04-11 14:22:31","bb671e3ae32f654b8954ea4c4635f915","","Mozilla/5.0 (Windows NT 10.0; Win64; x64) AppleWebKit/537.36 (KHTML, like Gecko) Chrome/134.0.0.0 Safari/537.36","WebKit","Chrome","134.0.0.0","Windows","10.0","https://hz8g1ckzuq.cognition.run/","en-US,en;q=0.9","xolr70sq7nn9bgu","32","[""White""]","No","Male","2211537.299999237","2156","","","{""product_choice"":""A""}","choice","ctd","repulsion_2","1","microwave ovens","null","null","null","null","null","null","1","100","90","100","30","40","20","Warranty","Cooking power","",""
"","","","","","choice_trial_setup","html-keyboard-response","152","2155329","0.0-5.0-0.34","57","1","2025-04-11 14:22:31","bb671e3ae32f654b8954ea4c4635f915","","Mozilla/5.0 (Windows NT 10.0; Win64; x64) AppleWebKit/537.36 (KHTML, like Gecko) Chrome/134.0.0.0 Safari/537.36","WebKit","Chrome","134.0.0.0","Windows","10.0","https://hz8g1ckzuq.cognition.run/","en-US,en;q=0.9","xolr70sq7nn9bgu","32","[""White""]","No","Male","2211537.299999237","null","","<p></p>","null","choice","wbw","catch","null","washing machines","90","80","25","10","35","45","2","","","","","","","","","",""
"","","","","","choice_trial","survey-html-form","153","2158000","0.0-5.0-1.34","57","1","2025-04-11 14:22:31","bb671e3ae32f654b8954ea4c4635f915","","Mozilla/5.0 (Windows NT 10.0; Win64; x64) AppleWebKit/537.36 (KHTML, like Gecko) Chrome/134.0.0.0 Safari/537.36","WebKit","Chrome","134.0.0.0","Windows","10.0","https://hz8g1ckzuq.cognition.run/","en-US,en;q=0.9","xolr70sq7nn9bgu","32","[""White""]","No","Male","2211537.299999237","2666","","","{""product_choice"":""B""}","choice","wbw","catch","null","washing machines","90","80","25","10","35","45","2","null","null","null","null","null","null","Average lifespan","Energy savings","",""
"","","","","","choice_trial_setup","html-keyboard-response","154","2158305","0.0-5.0-0.35","57","1","2025-04-11 14:22:31","bb671e3ae32f654b8954ea4c4635f915","","Mozilla/5.0 (Windows NT 10.0; Win64; x64) AppleWebKit/537.36 (KHTML, like Gecko) Chrome/134.0.0.0 Safari/537.36","WebKit","Chrome","134.0.0.0","Windows","10.0","https://hz8g1ckzuq.cognition.run/","en-US,en;q=0.9","xolr70sq7nn9bgu","32","[""White""]","No","Male","2211537.299999237","null","","<p></p>","null","choice","dtc","repulsion_1","2","laptops","null","null","null","null","null","null","2","","","","","","","","","",""
"","","","","","choice_trial","survey-html-form","155","2160760","0.0-5.0-1.35","57","1","2025-04-11 14:22:31","bb671e3ae32f654b8954ea4c4635f915","","Mozilla/5.0 (Windows NT 10.0; Win64; x64) AppleWebKit/537.36 (KHTML, like Gecko) Chrome/134.0.0.0 Safari/537.36","WebKit","Chrome","134.0.0.0","Windows","10.0","https://hz8g1ckzuq.cognition.run/","en-US,en;q=0.9","xolr70sq7nn9bgu","32","[""White""]","No","Male","2211537.299999237","2452","","","{""product_choice"":""A""}","choice","dtc","repulsion_1","2","laptops","null","null","null","null","null","null","2","30","40","25","100","90","100","Processing speed","Memory (RAM)","",""
"","","","","","choice_trial_setup","html-keyboard-response","156","2161065","0.0-5.0-0.36","57","1","2025-04-11 14:22:31","bb671e3ae32f654b8954ea4c4635f915","","Mozilla/5.0 (Windows NT 10.0; Win64; x64) AppleWebKit/537.36 (KHTML, like Gecko) Chrome/134.0.0.0 Safari/537.36","WebKit","Chrome","134.0.0.0","Windows","10.0","https://hz8g1ckzuq.cognition.run/","en-US,en;q=0.9","xolr70sq7nn9bgu","32","[""White""]","No","Male","2211537.299999237","null","","<p></p>","null","choice","dtc","repulsion_2","2","televisions","null","null","null","null","null","null","2","","","","","","","","","",""
"","","","","","choice_trial","survey-html-form","157","2162765","0.0-5.0-1.36","57","1","2025-04-11 14:22:31","bb671e3ae32f654b8954ea4c4635f915","","Mozilla/5.0 (Windows NT 10.0; Win64; x64) AppleWebKit/537.36 (KHTML, like Gecko) Chrome/134.0.0.0 Safari/537.36","WebKit","Chrome","134.0.0.0","Windows","10.0","https://hz8g1ckzuq.cognition.run/","en-US,en;q=0.9","xolr70sq7nn9bgu","32","[""White""]","No","Male","2211537.299999237","1696","","","{""product_choice"":""B""}","choice","dtc","repulsion_2","2","televisions","null","null","null","null","null","null","2","30","40","20","100","90","100","Screen size","Average lifespan","",""
