"success","timeout","failed_images","failed_audio","failed_video","screen_id","trial_type","trial_index","time_elapsed","internal_node_id","run_id","condition","recorded_at","source_code_version","ip","user_agent","device","browser","browser_version","platform","platform_version","referer","accept_language","ppt_id","age","race","ethnicity","gender","exp_duration","rt","view_history","stimulus","response","phase","order","effect","t_high","category","d1_best","d2_best","d1_worst1","d2_worst1","d1_worst2","d2_worst2","first_dim","d1_t","d1_c","d1_d","d2_t","d2_c","d2_d","d1_name","d2_name","strategy_response","question_order"
"true","false","[]","[]","[]","img preload","preload","0","396","0.0-0.0","58","1","2025-04-11 14:22:57","bb671e3ae32f654b8954ea4c4635f915","","Mozilla/5.0 (X11; CrOS x86_64 14541.0.0) AppleWebKit/537.36 (KHTML, like Gecko) Chrome/134.0.0.0 Safari/537.36","WebKit","Chrome","134.0.0.0","ChromeOS","14541.0.0","https://hz8g1ckzuq.cognition.run/","en-US,en;q=0.9","8e6qlbk2n92kckn","45","[""Black or African-American""]","No","Female","1894318.7000000011","","","","","","","","","","","","","","","","","","","","","","","","","",""
"true","","","","","","fullscreen","1","6396","0.0-1.0","58","1","2025-04-11 14:22:57","bb671e3ae32f654b8954ea4c4635f915","","Mozilla/5.0 (X11; CrOS x86_64 14541.0.0) AppleWebKit/537.36 (KHTML, like Gecko) Chrome/134.0.0.0 Safari/537.36","WebKit","Chrome","134.0.0.0","ChromeOS","14541.0.0","https://hz8g1ckzuq.cognition.run/","en-US,en;q=0.9","8e6qlbk2n92kckn","45","[""Black or African-American""]","No","Female","1894318.7000000011","4992","","","","","","","","","","","","","","","","","","","","","","","","",""
"","","","","","","instructions","2","126440","0.0-2.0","58","1","2025-04-11 14:22:57","bb671e3ae32f654b8954ea4c4635f915","","Mozilla/5.0 (X11; CrOS x86_64 14541.0.0) AppleWebKit/537.36 (KHTML, like Gecko) Chrome/134.0.0.0 Safari/537.36","WebKit","Chrome","134.0.0.0","ChromeOS","14541.0.0","https://hz8g1ckzuq.cognition.run/","en-US,en;q=0.9","8e6qlbk2n92kckn","45","[""Black or African-American""]","No","Female","1894318.7000000011","120042","[{""page_index"":0,""viewing_time"":5178},{""page_index"":1,""viewing_time"":7492},{""page_index"":2,""viewing_time"":8880},{""page_index"":3,""viewing_time"":9937},{""page_index"":4,""viewing_time"":12686},{""page_index"":5,""viewing_time"":8847},{""page_index"":6,""viewing_time"":18176},{""page_index"":7,""viewing_time"":25759},{""page_index"":8,""viewing_time"":13903},{""page_index"":9,""viewing_time"":9185}]","","","","","","","","","","","","","","","","","","","","","","","",""
"","","","","","rating_trial_setup","html-keyboard-response","3","126745","0.0-3.0-0.0","58","1","2025-04-11 14:22:57","bb671e3ae32f654b8954ea4c4635f915","","Mozilla/5.0 (X11; CrOS x86_64 14541.0.0) AppleWebKit/537.36 (KHTML, like Gecko) Chrome/134.0.0.0 Safari/537.36","WebKit","Chrome","134.0.0.0","ChromeOS","14541.0.0","https://hz8g1ckzuq.cognition.run/","en-US,en;q=0.9","8e6qlbk2n92kckn","45","[""Black or African-American""]","No","Female","1894318.7000000011","null","","<p></p>","null","rating","tdc","repulsion_1","2","laptops","null","null","null","null","null","null","1","","","","","","","","","",""
"","","","","","rating_trial","survey-html-form","4","184342","0.0-3.0-1.0","58","1","2025-04-11 14:22:57","bb671e3ae32f654b8954ea4c4635f915","","Mozilla/5.0 (X11; CrOS x86_64 14541.0.0) AppleWebKit/537.36 (KHTML, like Gecko) Chrome/134.0.0.0 Safari/537.36","WebKit","Chrome","134.0.0.0","ChromeOS","14541.0.0","https://hz8g1ckzuq.cognition.run/","en-US,en;q=0.9","8e6qlbk2n92kckn","45","[""Black or African-American""]","No","Female","1894318.7000000011","57591","","","{""price_1"":""250"",""price_2"":""150"",""price_3"":""100""}","rating","tdc","repulsion_1","2","laptops","null","null","null","null","null","null","1","30","40","25","100","90","100","Processing speed","Memory (RAM)","",""
"","","","","","rating_trial_setup","html-keyboard-response","5","184648","0.0-3.0-0.1","58","1","2025-04-11 14:22:57","bb671e3ae32f654b8954ea4c4635f915","","Mozilla/5.0 (X11; CrOS x86_64 14541.0.0) AppleWebKit/537.36 (KHTML, like Gecko) Chrome/134.0.0.0 Safari/537.36","WebKit","Chrome","134.0.0.0","ChromeOS","14541.0.0","https://hz8g1ckzuq.cognition.run/","en-US,en;q=0.9","8e6qlbk2n92kckn","45","[""Black or African-American""]","No","Female","1894318.7000000011","null","","<p></p>","null","rating","dtc","repulsion_1","1","laptops","null","null","null","null","null","null","1","","","","","","","","","",""
"","","","","","rating_trial","survey-html-form","6","217044","0.0-3.0-1.1","58","1","2025-04-11 14:22:57","bb671e3ae32f654b8954ea4c4635f915","","Mozilla/5.0 (X11; CrOS x86_64 14541.0.0) AppleWebKit/537.36 (KHTML, like Gecko) Chrome/134.0.0.0 Safari/537.36","WebKit","Chrome","134.0.0.0","ChromeOS","14541.0.0","https://hz8g1ckzuq.cognition.run/","en-US,en;q=0.9","8e6qlbk2n92kckn","45","[""Black or African-American""]","No","Female","1894318.7000000011","32392","","","{""price_1"":""200"",""price_2"":""250"",""price_3"":""100""}","rating","dtc","repulsion_1","1","laptops","null","null","null","null","null","null","1","100","90","100","30","40","25","Processing speed","Memory (RAM)","",""
"","","","","","rating_trial_setup","html-keyboard-response","7","217349","0.0-3.0-0.2","58","1","2025-04-11 14:22:57","bb671e3ae32f654b8954ea4c4635f915","","Mozilla/5.0 (X11; CrOS x86_64 14541.0.0) AppleWebKit/537.36 (KHTML, like Gecko) Chrome/134.0.0.0 Safari/537.36","WebKit","Chrome","134.0.0.0","ChromeOS","14541.0.0","https://hz8g1ckzuq.cognition.run/","en-US,en;q=0.9","8e6qlbk2n92kckn","45","[""Black or African-American""]","No","Female","1894318.7000000011","null","","<p></p>","null","rating","cdt","attraction_1","2","televisions","null","null","null","null","null","null","2","","","","","","","","","",""
"","","","","","rating_trial","survey-html-form","8","247038","0.0-3.0-1.2","58","1","2025-04-11 14:22:57","bb671e3ae32f654b8954ea4c4635f915","","Mozilla/5.0 (X11; CrOS x86_64 14541.0.0) AppleWebKit/537.36 (KHTML, like Gecko) Chrome/134.0.0.0 Safari/537.36","WebKit","Chrome","134.0.0.0","ChromeOS","14541.0.0","https://hz8g1ckzuq.cognition.run/","en-US,en;q=0.9","8e6qlbk2n92kckn","45","[""Black or African-American""]","No","Female","1894318.7000000011","29685","","","{""price_1"":""200"",""price_2"":""130"",""price_3"":""200""}","rating","cdt","attraction_1","2","televisions","null","null","null","null","null","null","2","50","60","45","60","50","60","Screen size","Average lifespan","",""
"","","","","","rating_trial_setup","html-keyboard-response","9","247343","0.0-3.0-0.3","58","1","2025-04-11 14:22:57","bb671e3ae32f654b8954ea4c4635f915","","Mozilla/5.0 (X11; CrOS x86_64 14541.0.0) AppleWebKit/537.36 (KHTML, like Gecko) Chrome/134.0.0.0 Safari/537.36","WebKit","Chrome","134.0.0.0","ChromeOS","14541.0.0","https://hz8g1ckzuq.cognition.run/","en-US,en;q=0.9","8e6qlbk2n92kckn","45","[""Black or African-American""]","No","Female","1894318.7000000011","null","","<p></p>","null","rating","dct","attraction_1","2","microwave ovens","null","null","null","null","null","null","1","","","","","","","","","",""
"","","","","","rating_trial","survey-html-form","10","286348","0.0-3.0-1.3","58","1","2025-04-11 14:22:57","bb671e3ae32f654b8954ea4c4635f915","","Mozilla/5.0 (X11; CrOS x86_64 14541.0.0) AppleWebKit/537.36 (KHTML, like Gecko) Chrome/134.0.0.0 Safari/537.36","WebKit","Chrome","134.0.0.0","ChromeOS","14541.0.0","https://hz8g1ckzuq.cognition.run/","en-US,en;q=0.9","8e6qlbk2n92kckn","45","[""Black or African-American""]","No","Female","1894318.7000000011","39001","","","{""price_1"":""50"",""price_2"":""80"",""price_3"":""85""}","rating","dct","attraction_1","2","microwave ovens","null","null","null","null","null","null","1","50","60","45","60","50","60","Warranty","Cooking power","",""
"","","","","","rating_trial_setup","html-keyboard-response","11","286653","0.0-3.0-0.4","58","1","2025-04-11 14:22:57","bb671e3ae32f654b8954ea4c4635f915","","Mozilla/5.0 (X11; CrOS x86_64 14541.0.0) AppleWebKit/537.36 (KHTML, like Gecko) Chrome/134.0.0.0 Safari/537.36","WebKit","Chrome","134.0.0.0","ChromeOS","14541.0.0","https://hz8g1ckzuq.cognition.run/","en-US,en;q=0.9","8e6qlbk2n92kckn","45","[""Black or African-American""]","No","Female","1894318.7000000011","null","","<p></p>","null","rating","ctd","repulsion_2","1","televisions","null","null","null","null","null","null","2","","","","","","","","","",""
"","","","","","rating_trial","survey-html-form","12","353578","0.0-3.0-1.4","58","1","2025-04-11 14:22:57","bb671e3ae32f654b8954ea4c4635f915","","Mozilla/5.0 (X11; CrOS x86_64 14541.0.0) AppleWebKit/537.36 (KHTML, like Gecko) Chrome/134.0.0.0 Safari/537.36","WebKit","Chrome","134.0.0.0","ChromeOS","14541.0.0","https://hz8g1ckzuq.cognition.run/","en-US,en;q=0.9","8e6qlbk2n92kckn","45","[""Black or African-American""]","No","Female","1894318.7000000011","66922","","","{""price_1"":""150"",""price_2"":""200"",""price_3"":""175""}","rating","ctd","repulsion_2","1","televisions","null","null","null","null","null","null","2","100","90","100","30","40","20","Screen size","Average lifespan","",""
"","","","","","rating_trial_setup","html-keyboard-response","13","353881","0.0-3.0-0.5","58","1","2025-04-11 14:22:57","bb671e3ae32f654b8954ea4c4635f915","","Mozilla/5.0 (X11; CrOS x86_64 14541.0.0) AppleWebKit/537.36 (KHTML, like Gecko) Chrome/134.0.0.0 Safari/537.36","WebKit","Chrome","134.0.0.0","ChromeOS","14541.0.0","https://hz8g1ckzuq.cognition.run/","en-US,en;q=0.9","8e6qlbk2n92kckn","45","[""Black or African-American""]","No","Female","1894318.7000000011","null","","<p></p>","null","rating","tdc","attraction_2","2","laptops","null","null","null","null","null","null","2","","","","","","","","","",""
"","","","","","rating_trial","survey-html-form","14","380595","0.0-3.0-1.5","58","1","2025-04-11 14:22:57","bb671e3ae32f654b8954ea4c4635f915","","Mozilla/5.0 (X11; CrOS x86_64 14541.0.0) AppleWebKit/537.36 (KHTML, like Gecko) Chrome/134.0.0.0 Safari/537.36","WebKit","Chrome","134.0.0.0","ChromeOS","14541.0.0","https://hz8g1ckzuq.cognition.run/","en-US,en;q=0.9","8e6qlbk2n92kckn","45","[""Black or African-American""]","No","Female","1894318.7000000011","26710","","","{""price_1"":""250"",""price_2"":""200"",""price_3"":""225""}","rating","tdc","attraction_2","2","laptops","null","null","null","null","null","null","2","50","60","40","60","50","60","Processing speed","Memory (RAM)","",""
"","","","","","rating_trial_setup","html-keyboard-response","15","380901","0.0-3.0-0.6","58","1","2025-04-11 14:22:57","bb671e3ae32f654b8954ea4c4635f915","","Mozilla/5.0 (X11; CrOS x86_64 14541.0.0) AppleWebKit/537.36 (KHTML, like Gecko) Chrome/134.0.0.0 Safari/537.36","WebKit","Chrome","134.0.0.0","ChromeOS","14541.0.0","https://hz8g1ckzuq.cognition.run/","en-US,en;q=0.9","8e6qlbk2n92kckn","45","[""Black or African-American""]","No","Female","1894318.7000000011","null","","<p></p>","null","rating","tcd","attraction_1","1","laptops","null","null","null","null","null","null","1","","","","","","","","","",""
"","","","","","rating_trial","survey-html-form","16","410587","0.0-3.0-1.6","58","1","2025-04-11 14:22:57","bb671e3ae32f654b8954ea4c4635f915","","Mozilla/5.0 (X11; CrOS x86_64 14541.0.0) AppleWebKit/537.36 (KHTML, like Gecko) Chrome/134.0.0.0 Safari/537.36","WebKit","Chrome","134.0.0.0","ChromeOS","14541.0.0","https://hz8g1ckzuq.cognition.run/","en-US,en;q=0.9","8e6qlbk2n92kckn","45","[""Black or African-American""]","No","Female","1894318.7000000011","29682","","","{""price_1"":""250"",""price_2"":""225"",""price_3"":""150""}","rating","tcd","attraction_1","1","laptops","null","null","null","null","null","null","1","60","50","60","50","60","45","Processing speed","Memory (RAM)","",""
"","","","","","rating_trial_setup","html-keyboard-response","17","410892","0.0-3.0-0.7","58","1","2025-04-11 14:22:57","bb671e3ae32f654b8954ea4c4635f915","","Mozilla/5.0 (X11; CrOS x86_64 14541.0.0) AppleWebKit/537.36 (KHTML, like Gecko) Chrome/134.0.0.0 Safari/537.36","WebKit","Chrome","134.0.0.0","ChromeOS","14541.0.0","https://hz8g1ckzuq.cognition.run/","en-US,en;q=0.9","8e6qlbk2n92kckn","45","[""Black or African-American""]","No","Female","1894318.7000000011","null","","<p></p>","null","rating","ctd","attraction_2","2","televisions","null","null","null","null","null","null","1","","","","","","","","","",""
"","","","","","rating_trial","survey-html-form","18","471245","0.0-3.0-1.7","58","1","2025-04-11 14:22:57","bb671e3ae32f654b8954ea4c4635f915","","Mozilla/5.0 (X11; CrOS x86_64 14541.0.0) AppleWebKit/537.36 (KHTML, like Gecko) Chrome/134.0.0.0 Safari/537.36","WebKit","Chrome","134.0.0.0","ChromeOS","14541.0.0","https://hz8g1ckzuq.cognition.run/","en-US,en;q=0.9","8e6qlbk2n92kckn","45","[""Black or African-American""]","No","Female","1894318.7000000011","60348","","","{""price_1"":""250"",""price_2"":""215"",""price_3"":""150""}","rating","ctd","attraction_2","2","televisions","null","null","null","null","null","null","1","50","60","40","60","50","60","Screen size","Average lifespan","",""
"","","","","","rating_trial_setup","html-keyboard-response","19","471552","0.0-3.0-0.8","58","1","2025-04-11 14:22:57","bb671e3ae32f654b8954ea4c4635f915","","Mozilla/5.0 (X11; CrOS x86_64 14541.0.0) AppleWebKit/537.36 (KHTML, like Gecko) Chrome/134.0.0.0 Safari/537.36","WebKit","Chrome","134.0.0.0","ChromeOS","14541.0.0","https://hz8g1ckzuq.cognition.run/","en-US,en;q=0.9","8e6qlbk2n92kckn","45","[""Black or African-American""]","No","Female","1894318.7000000011","null","","<p></p>","null","rating","tdc","repulsion_1","2","microwave ovens","null","null","null","null","null","null","1","","","","","","","","","",""
"","","","","","rating_trial","survey-html-form","20","497695","0.0-3.0-1.8","58","1","2025-04-11 14:22:57","bb671e3ae32f654b8954ea4c4635f915","","Mozilla/5.0 (X11; CrOS x86_64 14541.0.0) AppleWebKit/537.36 (KHTML, like Gecko) Chrome/134.0.0.0 Safari/537.36","WebKit","Chrome","134.0.0.0","ChromeOS","14541.0.0","https://hz8g1ckzuq.cognition.run/","en-US,en;q=0.9","8e6qlbk2n92kckn","45","[""Black or African-American""]","No","Female","1894318.7000000011","26138","","","{""price_1"":""100"",""price_2"":""75"",""price_3"":""50""}","rating","tdc","repulsion_1","2","microwave ovens","null","null","null","null","null","null","1","30","40","25","100","90","100","Warranty","Cooking power","",""
"","","","","","rating_trial_setup","html-keyboard-response","21","498001","0.0-3.0-0.9","58","1","2025-04-11 14:22:57","bb671e3ae32f654b8954ea4c4635f915","","Mozilla/5.0 (X11; CrOS x86_64 14541.0.0) AppleWebKit/537.36 (KHTML, like Gecko) Chrome/134.0.0.0 Safari/537.36","WebKit","Chrome","134.0.0.0","ChromeOS","14541.0.0","https://hz8g1ckzuq.cognition.run/","en-US,en;q=0.9","8e6qlbk2n92kckn","45","[""Black or African-American""]","No","Female","1894318.7000000011","null","","<p></p>","null","rating","wbw","catch","null","laptops","70","70","50","5","40","50","2","","","","","","","","","",""
"","","","","","rating_trial","survey-html-form","22","538069","0.0-3.0-1.9","58","1","2025-04-11 14:22:57","bb671e3ae32f654b8954ea4c4635f915","","Mozilla/5.0 (X11; CrOS x86_64 14541.0.0) AppleWebKit/537.36 (KHTML, like Gecko) Chrome/134.0.0.0 Safari/537.36","WebKit","Chrome","134.0.0.0","ChromeOS","14541.0.0","https://hz8g1ckzuq.cognition.run/","en-US,en;q=0.9","8e6qlbk2n92kckn","45","[""Black or African-American""]","No","Female","1894318.7000000011","40063","","","{""price_1"":""100"",""price_2"":""200"",""price_3"":""75""}","rating","wbw","catch","null","laptops","70","70","50","5","40","50","2","null","null","null","null","null","null","Processing speed","Memory (RAM)","",""
"","","","","","rating_trial_setup","html-keyboard-response","23","538372","0.0-3.0-0.10","58","1","2025-04-11 14:22:57","bb671e3ae32f654b8954ea4c4635f915","","Mozilla/5.0 (X11; CrOS x86_64 14541.0.0) AppleWebKit/537.36 (KHTML, like Gecko) Chrome/134.0.0.0 Safari/537.36","WebKit","Chrome","134.0.0.0","ChromeOS","14541.0.0","https://hz8g1ckzuq.cognition.run/","en-US,en;q=0.9","8e6qlbk2n92kckn","45","[""Black or African-American""]","No","Female","1894318.7000000011","null","","<p></p>","null","rating","tcd","attraction_1","1","televisions","null","null","null","null","null","null","2","","","","","","","","","",""
"","","","","","rating_trial","survey-html-form","24","580923","0.0-3.0-1.10","58","1","2025-04-11 14:22:57","bb671e3ae32f654b8954ea4c4635f915","","Mozilla/5.0 (X11; CrOS x86_64 14541.0.0) AppleWebKit/537.36 (KHTML, like Gecko) Chrome/134.0.0.0 Safari/537.36","WebKit","Chrome","134.0.0.0","ChromeOS","14541.0.0","https://hz8g1ckzuq.cognition.run/","en-US,en;q=0.9","8e6qlbk2n92kckn","45","[""Black or African-American""]","No","Female","1894318.7000000011","42545","","","{""price_1"":""125"",""price_2"":""150"",""price_3"":""100""}","rating","tcd","attraction_1","1","televisions","null","null","null","null","null","null","2","60","50","60","50","60","45","Screen size","Average lifespan","",""
"","","","","","rating_trial_setup","html-keyboard-response","25","581230","0.0-3.0-0.11","58","1","2025-04-11 14:22:57","bb671e3ae32f654b8954ea4c4635f915","","Mozilla/5.0 (X11; CrOS x86_64 14541.0.0) AppleWebKit/537.36 (KHTML, like Gecko) Chrome/134.0.0.0 Safari/537.36","WebKit","Chrome","134.0.0.0","ChromeOS","14541.0.0","https://hz8g1ckzuq.cognition.run/","en-US,en;q=0.9","8e6qlbk2n92kckn","45","[""Black or African-American""]","No","Female","1894318.7000000011","null","","<p></p>","null","rating","cdt","attraction_2","2","washing machines","null","null","null","null","null","null","1","","","","","","","","","",""
"","","","","","rating_trial","survey-html-form","26","605201","0.0-3.0-1.11","58","1","2025-04-11 14:22:57","bb671e3ae32f654b8954ea4c4635f915","","Mozilla/5.0 (X11; CrOS x86_64 14541.0.0) AppleWebKit/537.36 (KHTML, like Gecko) Chrome/134.0.0.0 Safari/537.36","WebKit","Chrome","134.0.0.0","ChromeOS","14541.0.0","https://hz8g1ckzuq.cognition.run/","en-US,en;q=0.9","8e6qlbk2n92kckn","45","[""Black or African-American""]","No","Female","1894318.7000000011","23966","","","{""price_1"":""200"",""price_2"":""250"",""price_3"":""300""}","rating","cdt","attraction_2","2","washing machines","null","null","null","null","null","null","1","50","60","40","60","50","60","Average lifespan","Energy savings","",""
"","","","","","rating_trial_setup","html-keyboard-response","27","605508","0.0-3.0-0.12","58","1","2025-04-11 14:22:57","bb671e3ae32f654b8954ea4c4635f915","","Mozilla/5.0 (X11; CrOS x86_64 14541.0.0) AppleWebKit/537.36 (KHTML, like Gecko) Chrome/134.0.0.0 Safari/537.36","WebKit","Chrome","134.0.0.0","ChromeOS","14541.0.0","https://hz8g1ckzuq.cognition.run/","en-US,en;q=0.9","8e6qlbk2n92kckn","45","[""Black or African-American""]","No","Female","1894318.7000000011","null","","<p></p>","null","rating","tdc","repulsion_2","1","washing machines","null","null","null","null","null","null","1","","","","","","","","","",""
"","","","","","rating_trial","survey-html-form","28","634874","0.0-3.0-1.12","58","1","2025-04-11 14:22:57","bb671e3ae32f654b8954ea4c4635f915","","Mozilla/5.0 (X11; CrOS x86_64 14541.0.0) AppleWebKit/537.36 (KHTML, like Gecko) Chrome/134.0.0.0 Safari/537.36","WebKit","Chrome","134.0.0.0","ChromeOS","14541.0.0","https://hz8g1ckzuq.cognition.run/","en-US,en;q=0.9","8e6qlbk2n92kckn","45","[""Black or African-American""]","No","Female","1894318.7000000011","29362","","","{""price_1"":""500"",""price_2"":""450"",""price_3"":""300""}","rating","tdc","repulsion_2","1","washing machines","null","null","null","null","null","null","1","100","90","100","30","40","20","Average lifespan","Energy savings","",""
"","","","","","rating_trial_setup","html-keyboard-response","29","635181","0.0-3.0-0.13","58","1","2025-04-11 14:22:57","bb671e3ae32f654b8954ea4c4635f915","","Mozilla/5.0 (X11; CrOS x86_64 14541.0.0) AppleWebKit/537.36 (KHTML, like Gecko) Chrome/134.0.0.0 Safari/537.36","WebKit","Chrome","134.0.0.0","ChromeOS","14541.0.0","https://hz8g1ckzuq.cognition.run/","en-US,en;q=0.9","8e6qlbk2n92kckn","45","[""Black or African-American""]","No","Female","1894318.7000000011","null","","<p></p>","null","rating","dtc","attraction_1","2","laptops","null","null","null","null","null","null","2","","","","","","","","","",""
"","","","","","rating_trial","survey-html-form","30","670285","0.0-3.0-1.13","58","1","2025-04-11 14:22:57","bb671e3ae32f654b8954ea4c4635f915","","Mozilla/5.0 (X11; CrOS x86_64 14541.0.0) AppleWebKit/537.36 (KHTML, like Gecko) Chrome/134.0.0.0 Safari/537.36","WebKit","Chrome","134.0.0.0","ChromeOS","14541.0.0","https://hz8g1ckzuq.cognition.run/","en-US,en;q=0.9","8e6qlbk2n92kckn","45","[""Black or African-American""]","No","Female","1894318.7000000011","35100","","","{""price_1"":""250"",""price_2"":""275"",""price_3"":""150""}","rating","dtc","attraction_1","2","laptops","null","null","null","null","null","null","2","50","60","45","60","50","60","Processing speed","Memory (RAM)","",""
"","","","","","rating_trial_setup","html-keyboard-response","31","670592","0.0-3.0-0.14","58","1","2025-04-11 14:22:57","bb671e3ae32f654b8954ea4c4635f915","","Mozilla/5.0 (X11; CrOS x86_64 14541.0.0) AppleWebKit/537.36 (KHTML, like Gecko) Chrome/134.0.0.0 Safari/537.36","WebKit","Chrome","134.0.0.0","ChromeOS","14541.0.0","https://hz8g1ckzuq.cognition.run/","en-US,en;q=0.9","8e6qlbk2n92kckn","45","[""Black or African-American""]","No","Female","1894318.7000000011","null","","<p></p>","null","rating","dtc","attraction_1","1","washing machines","null","null","null","null","null","null","1","","","","","","","","","",""
"","","","","","rating_trial","survey-html-form","32","695321","0.0-3.0-1.14","58","1","2025-04-11 14:22:57","bb671e3ae32f654b8954ea4c4635f915","","Mozilla/5.0 (X11; CrOS x86_64 14541.0.0) AppleWebKit/537.36 (KHTML, like Gecko) Chrome/134.0.0.0 Safari/537.36","WebKit","Chrome","134.0.0.0","ChromeOS","14541.0.0","https://hz8g1ckzuq.cognition.run/","en-US,en;q=0.9","8e6qlbk2n92kckn","45","[""Black or African-American""]","No","Female","1894318.7000000011","24723","","","{""price_1"":""275"",""price_2"":""400"",""price_3"":""300""}","rating","dtc","attraction_1","1","washing machines","null","null","null","null","null","null","1","60","50","60","50","60","45","Average lifespan","Energy savings","",""
"","","","","","rating_trial_setup","html-keyboard-response","33","695628","0.0-3.0-0.15","58","1","2025-04-11 14:22:57","bb671e3ae32f654b8954ea4c4635f915","","Mozilla/5.0 (X11; CrOS x86_64 14541.0.0) AppleWebKit/537.36 (KHTML, like Gecko) Chrome/134.0.0.0 Safari/537.36","WebKit","Chrome","134.0.0.0","ChromeOS","14541.0.0","https://hz8g1ckzuq.cognition.run/","en-US,en;q=0.9","8e6qlbk2n92kckn","45","[""Black or African-American""]","No","Female","1894318.7000000011","null","","<p></p>","null","rating","dct","repulsion_2","2","microwave ovens","null","null","null","null","null","null","2","","","","","","","","","",""
"","","","","","rating_trial","survey-html-form","34","727057","0.0-3.0-1.15","58","1","2025-04-11 14:22:57","bb671e3ae32f654b8954ea4c4635f915","","Mozilla/5.0 (X11; CrOS x86_64 14541.0.0) AppleWebKit/537.36 (KHTML, like Gecko) Chrome/134.0.0.0 Safari/537.36","WebKit","Chrome","134.0.0.0","ChromeOS","14541.0.0","https://hz8g1ckzuq.cognition.run/","en-US,en;q=0.9","8e6qlbk2n92kckn","45","[""Black or African-American""]","No","Female","1894318.7000000011","31422","","","{""price_1"":""150"",""price_2"":""75"",""price_3"":""100""}","rating","dct","repulsion_2","2","microwave ovens","null","null","null","null","null","null","2","30","40","20","100","90","100","Warranty","Cooking power","",""
"","","","","","rating_trial_setup","html-keyboard-response","35","727363","0.0-3.0-0.16","58","1","2025-04-11 14:22:57","bb671e3ae32f654b8954ea4c4635f915","","Mozilla/5.0 (X11; CrOS x86_64 14541.0.0) AppleWebKit/537.36 (KHTML, like Gecko) Chrome/134.0.0.0 Safari/537.36","WebKit","Chrome","134.0.0.0","ChromeOS","14541.0.0","https://hz8g1ckzuq.cognition.run/","en-US,en;q=0.9","8e6qlbk2n92kckn","45","[""Black or African-American""]","No","Female","1894318.7000000011","null","","<p></p>","null","rating","dct","attraction_2","1","washing machines","null","null","null","null","null","null","1","","","","","","","","","",""
"","","","","","rating_trial","survey-html-form","36","753585","0.0-3.0-1.16","58","1","2025-04-11 14:22:57","bb671e3ae32f654b8954ea4c4635f915","","Mozilla/5.0 (X11; CrOS x86_64 14541.0.0) AppleWebKit/537.36 (KHTML, like Gecko) Chrome/134.0.0.0 Safari/537.36","WebKit","Chrome","134.0.0.0","ChromeOS","14541.0.0","https://hz8g1ckzuq.cognition.run/","en-US,en;q=0.9","8e6qlbk2n92kckn","45","[""Black or African-American""]","No","Female","1894318.7000000011","26217","","","{""price_1"":""300"",""price_2"":""350"",""price_3"":""400""}","rating","dct","attraction_2","1","washing machines","null","null","null","null","null","null","1","60","50","60","50","60","40","Average lifespan","Energy savings","",""
"","","","","","rating_trial_setup","html-keyboard-response","37","753888","0.0-3.0-0.17","58","1","2025-04-11 14:22:57","bb671e3ae32f654b8954ea4c4635f915","","Mozilla/5.0 (X11; CrOS x86_64 14541.0.0) AppleWebKit/537.36 (KHTML, like Gecko) Chrome/134.0.0.0 Safari/537.36","WebKit","Chrome","134.0.0.0","ChromeOS","14541.0.0","https://hz8g1ckzuq.cognition.run/","en-US,en;q=0.9","8e6qlbk2n92kckn","45","[""Black or African-American""]","No","Female","1894318.7000000011","null","","<p></p>","null","rating","tcd","attraction_2","2","microwave ovens","null","null","null","null","null","null","2","","","","","","","","","",""
"","","","","","rating_trial","survey-html-form","38","777792","0.0-3.0-1.17","58","1","2025-04-11 14:22:57","bb671e3ae32f654b8954ea4c4635f915","","Mozilla/5.0 (X11; CrOS x86_64 14541.0.0) AppleWebKit/537.36 (KHTML, like Gecko) Chrome/134.0.0.0 Safari/537.36","WebKit","Chrome","134.0.0.0","ChromeOS","14541.0.0","https://hz8g1ckzuq.cognition.run/","en-US,en;q=0.9","8e6qlbk2n92kckn","45","[""Black or African-American""]","No","Female","1894318.7000000011","23902","","","{""price_1"":""100"",""price_2"":""75"",""price_3"":""75""}","rating","tcd","attraction_2","2","microwave ovens","null","null","null","null","null","null","2","50","60","40","60","50","60","Warranty","Cooking power","",""
"","","","","","rating_trial_setup","html-keyboard-response","39","778102","0.0-3.0-0.18","58","1","2025-04-11 14:22:57","bb671e3ae32f654b8954ea4c4635f915","","Mozilla/5.0 (X11; CrOS x86_64 14541.0.0) AppleWebKit/537.36 (KHTML, like Gecko) Chrome/134.0.0.0 Safari/537.36","WebKit","Chrome","134.0.0.0","ChromeOS","14541.0.0","https://hz8g1ckzuq.cognition.run/","en-US,en;q=0.9","8e6qlbk2n92kckn","45","[""Black or African-American""]","No","Female","1894318.7000000011","null","","<p></p>","null","rating","tcd","attraction_1","2","washing machines","null","null","null","null","null","null","2","","","","","","","","","",""
"","","","","","rating_trial","survey-html-form","40","801490","0.0-3.0-1.18","58","1","2025-04-11 14:22:57","bb671e3ae32f654b8954ea4c4635f915","","Mozilla/5.0 (X11; CrOS x86_64 14541.0.0) AppleWebKit/537.36 (KHTML, like Gecko) Chrome/134.0.0.0 Safari/537.36","WebKit","Chrome","134.0.0.0","ChromeOS","14541.0.0","https://hz8g1ckzuq.cognition.run/","en-US,en;q=0.9","8e6qlbk2n92kckn","45","[""Black or African-American""]","No","Female","1894318.7000000011","23383","","","{""price_1"":""400"",""price_2"":""350"",""price_3"":""400""}","rating","tcd","attraction_1","2","washing machines","null","null","null","null","null","null","2","50","60","45","60","50","60","Average lifespan","Energy savings","",""
"","","","","","rating_trial_setup","html-keyboard-response","41","801799","0.0-3.0-0.19","58","1","2025-04-11 14:22:57","bb671e3ae32f654b8954ea4c4635f915","","Mozilla/5.0 (X11; CrOS x86_64 14541.0.0) AppleWebKit/537.36 (KHTML, like Gecko) Chrome/134.0.0.0 Safari/537.36","WebKit","Chrome","134.0.0.0","ChromeOS","14541.0.0","https://hz8g1ckzuq.cognition.run/","en-US,en;q=0.9","8e6qlbk2n92kckn","45","[""Black or African-American""]","No","Female","1894318.7000000011","null","","<p></p>","null","rating","cdt","attraction_2","1","microwave ovens","null","null","null","null","null","null","1","","","","","","","","","",""
"","","","","","rating_trial","survey-html-form","42","818909","0.0-3.0-1.19","58","1","2025-04-11 14:22:57","bb671e3ae32f654b8954ea4c4635f915","","Mozilla/5.0 (X11; CrOS x86_64 14541.0.0) AppleWebKit/537.36 (KHTML, like Gecko) Chrome/134.0.0.0 Safari/537.36","WebKit","Chrome","134.0.0.0","ChromeOS","14541.0.0","https://hz8g1ckzuq.cognition.run/","en-US,en;q=0.9","8e6qlbk2n92kckn","45","[""Black or African-American""]","No","Female","1894318.7000000011","17104","","","{""price_1"":""75"",""price_2"":""50"",""price_3"":""60""}","rating","cdt","attraction_2","1","microwave ovens","null","null","null","null","null","null","1","60","50","60","50","60","40","Warranty","Cooking power","",""
"","","","","","rating_trial_setup","html-keyboard-response","43","819218","0.0-3.0-0.20","58","1","2025-04-11 14:22:57","bb671e3ae32f654b8954ea4c4635f915","","Mozilla/5.0 (X11; CrOS x86_64 14541.0.0) AppleWebKit/537.36 (KHTML, like Gecko) Chrome/134.0.0.0 Safari/537.36","WebKit","Chrome","134.0.0.0","ChromeOS","14541.0.0","https://hz8g1ckzuq.cognition.run/","en-US,en;q=0.9","8e6qlbk2n92kckn","45","[""Black or African-American""]","No","Female","1894318.7000000011","null","","<p></p>","null","rating","tdc","attraction_1","1","microwave ovens","null","null","null","null","null","null","1","","","","","","","","","",""
"","","","","","rating_trial","survey-html-form","44","862439","0.0-3.0-1.20","58","1","2025-04-11 14:22:57","bb671e3ae32f654b8954ea4c4635f915","","Mozilla/5.0 (X11; CrOS x86_64 14541.0.0) AppleWebKit/537.36 (KHTML, like Gecko) Chrome/134.0.0.0 Safari/537.36","WebKit","Chrome","134.0.0.0","ChromeOS","14541.0.0","https://hz8g1ckzuq.cognition.run/","en-US,en;q=0.9","8e6qlbk2n92kckn","45","[""Black or African-American""]","No","Female","1894318.7000000011","43213","","","{""price_1"":""50"",""price_2"":""40"",""price_3"":""75""}","rating","tdc","attraction_1","1","microwave ovens","null","null","null","null","null","null","1","60","50","60","50","60","45","Warranty","Cooking power","",""
"","","","","","rating_trial_setup","html-keyboard-response","45","862742","0.0-3.0-0.21","58","1","2025-04-11 14:22:57","bb671e3ae32f654b8954ea4c4635f915","","Mozilla/5.0 (X11; CrOS x86_64 14541.0.0) AppleWebKit/537.36 (KHTML, like Gecko) Chrome/134.0.0.0 Safari/537.36","WebKit","Chrome","134.0.0.0","ChromeOS","14541.0.0","https://hz8g1ckzuq.cognition.run/","en-US,en;q=0.9","8e6qlbk2n92kckn","45","[""Black or African-American""]","No","Female","1894318.7000000011","null","","<p></p>","null","rating","wbw","catch","null","microwave ovens","85","50","10","35","15","40","2","","","","","","","","","",""
"","","","","","rating_trial","survey-html-form","46","900655","0.0-3.0-1.21","58","1","2025-04-11 14:22:57","bb671e3ae32f654b8954ea4c4635f915","","Mozilla/5.0 (X11; CrOS x86_64 14541.0.0) AppleWebKit/537.36 (KHTML, like Gecko) Chrome/134.0.0.0 Safari/537.36","WebKit","Chrome","134.0.0.0","ChromeOS","14541.0.0","https://hz8g1ckzuq.cognition.run/","en-US,en;q=0.9","8e6qlbk2n92kckn","45","[""Black or African-American""]","No","Female","1894318.7000000011","37906","","","{""price_1"":""30"",""price_2"":""55"",""price_3"":""35""}","rating","wbw","catch","null","microwave ovens","85","50","10","35","15","40","2","null","null","null","null","null","null","Warranty","Cooking power","",""
"","","","","","rating_trial_setup","html-keyboard-response","47","900963","0.0-3.0-0.22","58","1","2025-04-11 14:22:57","bb671e3ae32f654b8954ea4c4635f915","","Mozilla/5.0 (X11; CrOS x86_64 14541.0.0) AppleWebKit/537.36 (KHTML, like Gecko) Chrome/134.0.0.0 Safari/537.36","WebKit","Chrome","134.0.0.0","ChromeOS","14541.0.0","https://hz8g1ckzuq.cognition.run/","en-US,en;q=0.9","8e6qlbk2n92kckn","45","[""Black or African-American""]","No","Female","1894318.7000000011","null","","<p></p>","null","rating","cdt","repulsion_1","1","televisions","null","null","null","null","null","null","1","","","","","","","","","",""
"","","","","","rating_trial","survey-html-form","48","938253","0.0-3.0-1.22","58","1","2025-04-11 14:22:57","bb671e3ae32f654b8954ea4c4635f915","","Mozilla/5.0 (X11; CrOS x86_64 14541.0.0) AppleWebKit/537.36 (KHTML, like Gecko) Chrome/134.0.0.0 Safari/537.36","WebKit","Chrome","134.0.0.0","ChromeOS","14541.0.0","https://hz8g1ckzuq.cognition.run/","en-US,en;q=0.9","8e6qlbk2n92kckn","45","[""Black or African-American""]","No","Female","1894318.7000000011","37283","","","{""price_1"":""100"",""price_2"":""100"",""price_3"":""115""}","rating","cdt","repulsion_1","1","televisions","null","null","null","null","null","null","1","100","90","100","30","40","25","Screen size","Average lifespan","",""
"","","","","","rating_trial_setup","html-keyboard-response","49","938559","0.0-3.0-0.23","58","1","2025-04-11 14:22:57","bb671e3ae32f654b8954ea4c4635f915","","Mozilla/5.0 (X11; CrOS x86_64 14541.0.0) AppleWebKit/537.36 (KHTML, like Gecko) Chrome/134.0.0.0 Safari/537.36","WebKit","Chrome","134.0.0.0","ChromeOS","14541.0.0","https://hz8g1ckzuq.cognition.run/","en-US,en;q=0.9","8e6qlbk2n92kckn","45","[""Black or African-American""]","No","Female","1894318.7000000011","null","","<p></p>","null","rating","tcd","repulsion_2","2","washing machines","null","null","null","null","null","null","2","","","","","","","","","",""
"","","","","","rating_trial","survey-html-form","50","980465","0.0-3.0-1.23","58","1","2025-04-11 14:22:57","bb671e3ae32f654b8954ea4c4635f915","","Mozilla/5.0 (X11; CrOS x86_64 14541.0.0) AppleWebKit/537.36 (KHTML, like Gecko) Chrome/134.0.0.0 Safari/537.36","WebKit","Chrome","134.0.0.0","ChromeOS","14541.0.0","https://hz8g1ckzuq.cognition.run/","en-US,en;q=0.9","8e6qlbk2n92kckn","45","[""Black or African-American""]","No","Female","1894318.7000000011","41900","","","{""price_1"":""200"",""price_2"":""150"",""price_3"":""200""}","rating","tcd","repulsion_2","2","washing machines","null","null","null","null","null","null","2","30","40","20","100","90","100","Average lifespan","Energy savings","",""
"","","","","","rating_trial_setup","html-keyboard-response","51","980769","0.0-3.0-0.24","58","1","2025-04-11 14:22:57","bb671e3ae32f654b8954ea4c4635f915","","Mozilla/5.0 (X11; CrOS x86_64 14541.0.0) AppleWebKit/537.36 (KHTML, like Gecko) Chrome/134.0.0.0 Safari/537.36","WebKit","Chrome","134.0.0.0","ChromeOS","14541.0.0","https://hz8g1ckzuq.cognition.run/","en-US,en;q=0.9","8e6qlbk2n92kckn","45","[""Black or African-American""]","No","Female","1894318.7000000011","null","","<p></p>","null","rating","cdt","repulsion_1","1","microwave ovens","null","null","null","null","null","null","2","","","","","","","","","",""
"","","","","","rating_trial","survey-html-form","52","1011506","0.0-3.0-1.24","58","1","2025-04-11 14:22:57","bb671e3ae32f654b8954ea4c4635f915","","Mozilla/5.0 (X11; CrOS x86_64 14541.0.0) AppleWebKit/537.36 (KHTML, like Gecko) Chrome/134.0.0.0 Safari/537.36","WebKit","Chrome","134.0.0.0","ChromeOS","14541.0.0","https://hz8g1ckzuq.cognition.run/","en-US,en;q=0.9","8e6qlbk2n92kckn","45","[""Black or African-American""]","No","Female","1894318.7000000011","30727","","","{""price_1"":""50"",""price_2"":""70"",""price_3"":""80""}","rating","cdt","repulsion_1","1","microwave ovens","null","null","null","null","null","null","2","100","90","100","30","40","25","Warranty","Cooking power","",""
"","","","","","rating_trial_setup","html-keyboard-response","53","1011817","0.0-3.0-0.25","58","1","2025-04-11 14:22:57","bb671e3ae32f654b8954ea4c4635f915","","Mozilla/5.0 (X11; CrOS x86_64 14541.0.0) AppleWebKit/537.36 (KHTML, like Gecko) Chrome/134.0.0.0 Safari/537.36","WebKit","Chrome","134.0.0.0","ChromeOS","14541.0.0","https://hz8g1ckzuq.cognition.run/","en-US,en;q=0.9","8e6qlbk2n92kckn","45","[""Black or African-American""]","No","Female","1894318.7000000011","null","","<p></p>","null","rating","dtc","repulsion_2","2","laptops","null","null","null","null","null","null","2","","","","","","","","","",""
"","","","","","rating_trial","survey-html-form","54","1046144","0.0-3.0-1.25","58","1","2025-04-11 14:22:57","bb671e3ae32f654b8954ea4c4635f915","","Mozilla/5.0 (X11; CrOS x86_64 14541.0.0) AppleWebKit/537.36 (KHTML, like Gecko) Chrome/134.0.0.0 Safari/537.36","WebKit","Chrome","134.0.0.0","ChromeOS","14541.0.0","https://hz8g1ckzuq.cognition.run/","en-US,en;q=0.9","8e6qlbk2n92kckn","45","[""Black or African-American""]","No","Female","1894318.7000000011","34319","","","{""price_1"":""100"",""price_2"":""125"",""price_3"":""100""}","rating","dtc","repulsion_2","2","laptops","null","null","null","null","null","null","2","30","40","20","100","90","100","Processing speed","Memory (RAM)","",""
"","","","","","rating_trial_setup","html-keyboard-response","55","1046454","0.0-3.0-0.26","58","1","2025-04-11 14:22:57","bb671e3ae32f654b8954ea4c4635f915","","Mozilla/5.0 (X11; CrOS x86_64 14541.0.0) AppleWebKit/537.36 (KHTML, like Gecko) Chrome/134.0.0.0 Safari/537.36","WebKit","Chrome","134.0.0.0","ChromeOS","14541.0.0","https://hz8g1ckzuq.cognition.run/","en-US,en;q=0.9","8e6qlbk2n92kckn","45","[""Black or African-American""]","No","Female","1894318.7000000011","null","","<p></p>","null","rating","bww","catch","null","televisions","85","50","45","5","50","25","1","","","","","","","","","",""
"","","","","","rating_trial","survey-html-form","56","1076664","0.0-3.0-1.26","58","1","2025-04-11 14:22:57","bb671e3ae32f654b8954ea4c4635f915","","Mozilla/5.0 (X11; CrOS x86_64 14541.0.0) AppleWebKit/537.36 (KHTML, like Gecko) Chrome/134.0.0.0 Safari/537.36","WebKit","Chrome","134.0.0.0","ChromeOS","14541.0.0","https://hz8g1ckzuq.cognition.run/","en-US,en;q=0.9","8e6qlbk2n92kckn","45","[""Black or African-American""]","No","Female","1894318.7000000011","30203","","","{""price_1"":""100"",""price_2"":""80"",""price_3"":""90""}","rating","bww","catch","null","televisions","85","50","45","5","50","25","1","null","null","null","null","null","null","Screen size","Average lifespan","",""
"","","","","","rating_trial_setup","html-keyboard-response","57","1076967","0.0-3.0-0.27","58","1","2025-04-11 14:22:57","bb671e3ae32f654b8954ea4c4635f915","","Mozilla/5.0 (X11; CrOS x86_64 14541.0.0) AppleWebKit/537.36 (KHTML, like Gecko) Chrome/134.0.0.0 Safari/537.36","WebKit","Chrome","134.0.0.0","ChromeOS","14541.0.0","https://hz8g1ckzuq.cognition.run/","en-US,en;q=0.9","8e6qlbk2n92kckn","45","[""Black or African-American""]","No","Female","1894318.7000000011","null","","<p></p>","null","rating","tdc","attraction_2","1","televisions","null","null","null","null","null","null","2","","","","","","","","","",""
"","","","","","rating_trial","survey-html-form","58","1105402","0.0-3.0-1.27","58","1","2025-04-11 14:22:57","bb671e3ae32f654b8954ea4c4635f915","","Mozilla/5.0 (X11; CrOS x86_64 14541.0.0) AppleWebKit/537.36 (KHTML, like Gecko) Chrome/134.0.0.0 Safari/537.36","WebKit","Chrome","134.0.0.0","ChromeOS","14541.0.0","https://hz8g1ckzuq.cognition.run/","en-US,en;q=0.9","8e6qlbk2n92kckn","45","[""Black or African-American""]","No","Female","1894318.7000000011","28426","","","{""price_1"":""100"",""price_2"":""100"",""price_3"":""150""}","rating","tdc","attraction_2","1","televisions","null","null","null","null","null","null","2","60","50","60","50","60","40","Screen size","Average lifespan","",""
"","","","","","rating_trial_setup","html-keyboard-response","59","1105708","0.0-3.0-0.28","58","1","2025-04-11 14:22:57","bb671e3ae32f654b8954ea4c4635f915","","Mozilla/5.0 (X11; CrOS x86_64 14541.0.0) AppleWebKit/537.36 (KHTML, like Gecko) Chrome/134.0.0.0 Safari/537.36","WebKit","Chrome","134.0.0.0","ChromeOS","14541.0.0","https://hz8g1ckzuq.cognition.run/","en-US,en;q=0.9","8e6qlbk2n92kckn","45","[""Black or African-American""]","No","Female","1894318.7000000011","null","","<p></p>","null","rating","dct","repulsion_1","2","televisions","null","null","null","null","null","null","2","","","","","","","","","",""
"","","","","","rating_trial","survey-html-form","60","1162420","0.0-3.0-1.28","58","1","2025-04-11 14:22:57","bb671e3ae32f654b8954ea4c4635f915","","Mozilla/5.0 (X11; CrOS x86_64 14541.0.0) AppleWebKit/537.36 (KHTML, like Gecko) Chrome/134.0.0.0 Safari/537.36","WebKit","Chrome","134.0.0.0","ChromeOS","14541.0.0","https://hz8g1ckzuq.cognition.run/","en-US,en;q=0.9","8e6qlbk2n92kckn","45","[""Black or African-American""]","No","Female","1894318.7000000011","56705","","","{""price_1"":""150"",""price_2"":""150"",""price_3"":""150""}","rating","dct","repulsion_1","2","televisions","null","null","null","null","null","null","2","30","40","25","100","90","100","Screen size","Average lifespan","",""
"","","","","","rating_trial_setup","html-keyboard-response","61","1162727","0.0-3.0-0.29","58","1","2025-04-11 14:22:57","bb671e3ae32f654b8954ea4c4635f915","","Mozilla/5.0 (X11; CrOS x86_64 14541.0.0) AppleWebKit/537.36 (KHTML, like Gecko) Chrome/134.0.0.0 Safari/537.36","WebKit","Chrome","134.0.0.0","ChromeOS","14541.0.0","https://hz8g1ckzuq.cognition.run/","en-US,en;q=0.9","8e6qlbk2n92kckn","45","[""Black or African-American""]","No","Female","1894318.7000000011","null","","<p></p>","null","rating","bww","catch","null","washing machines","50","85","15","20","30","5","2","","","","","","","","","",""
"","","","","","rating_trial","survey-html-form","62","1199037","0.0-3.0-1.29","58","1","2025-04-11 14:22:57","bb671e3ae32f654b8954ea4c4635f915","","Mozilla/5.0 (X11; CrOS x86_64 14541.0.0) AppleWebKit/537.36 (KHTML, like Gecko) Chrome/134.0.0.0 Safari/537.36","WebKit","Chrome","134.0.0.0","ChromeOS","14541.0.0","https://hz8g1ckzuq.cognition.run/","en-US,en;q=0.9","8e6qlbk2n92kckn","45","[""Black or African-American""]","No","Female","1894318.7000000011","36302","","","{""price_1"":""200"",""price_2"":""150"",""price_3"":""150""}","rating","bww","catch","null","washing machines","50","85","15","20","30","5","2","null","null","null","null","null","null","Average lifespan","Energy savings","",""
"","","","","","rating_trial_setup","html-keyboard-response","63","1199343","0.0-3.0-0.30","58","1","2025-04-11 14:22:57","bb671e3ae32f654b8954ea4c4635f915","","Mozilla/5.0 (X11; CrOS x86_64 14541.0.0) AppleWebKit/537.36 (KHTML, like Gecko) Chrome/134.0.0.0 Safari/537.36","WebKit","Chrome","134.0.0.0","ChromeOS","14541.0.0","https://hz8g1ckzuq.cognition.run/","en-US,en;q=0.9","8e6qlbk2n92kckn","45","[""Black or African-American""]","No","Female","1894318.7000000011","null","","<p></p>","null","rating","dct","repulsion_2","2","televisions","null","null","null","null","null","null","1","","","","","","","","","",""
"","","","","","rating_trial","survey-html-form","64","1232850","0.0-3.0-1.30","58","1","2025-04-11 14:22:57","bb671e3ae32f654b8954ea4c4635f915","","Mozilla/5.0 (X11; CrOS x86_64 14541.0.0) AppleWebKit/537.36 (KHTML, like Gecko) Chrome/134.0.0.0 Safari/537.36","WebKit","Chrome","134.0.0.0","ChromeOS","14541.0.0","https://hz8g1ckzuq.cognition.run/","en-US,en;q=0.9","8e6qlbk2n92kckn","45","[""Black or African-American""]","No","Female","1894318.7000000011","33501","","","{""price_1"":""200"",""price_2"":""150"",""price_3"":""200""}","rating","dct","repulsion_2","2","televisions","null","null","null","null","null","null","1","30","40","20","100","90","100","Screen size","Average lifespan","",""
"","","","","","rating_trial_setup","html-keyboard-response","65","1233156","0.0-3.0-0.31","58","1","2025-04-11 14:22:57","bb671e3ae32f654b8954ea4c4635f915","","Mozilla/5.0 (X11; CrOS x86_64 14541.0.0) AppleWebKit/537.36 (KHTML, like Gecko) Chrome/134.0.0.0 Safari/537.36","WebKit","Chrome","134.0.0.0","ChromeOS","14541.0.0","https://hz8g1ckzuq.cognition.run/","en-US,en;q=0.9","8e6qlbk2n92kckn","45","[""Black or African-American""]","No","Female","1894318.7000000011","null","","<p></p>","null","rating","wwb","catch","null","washing machines","55","55","40","5","20","35","2","","","","","","","","","",""
"","","","","","rating_trial","survey-html-form","66","1257989","0.0-3.0-1.31","58","1","2025-04-11 14:22:57","bb671e3ae32f654b8954ea4c4635f915","","Mozilla/5.0 (X11; CrOS x86_64 14541.0.0) AppleWebKit/537.36 (KHTML, like Gecko) Chrome/134.0.0.0 Safari/537.36","WebKit","Chrome","134.0.0.0","ChromeOS","14541.0.0","https://hz8g1ckzuq.cognition.run/","en-US,en;q=0.9","8e6qlbk2n92kckn","45","[""Black or African-American""]","No","Female","1894318.7000000011","24828","","","{""price_1"":""150"",""price_2"":""200"",""price_3"":""225""}","rating","wwb","catch","null","washing machines","55","55","40","5","20","35","2","null","null","null","null","null","null","Average lifespan","Energy savings","",""
"","","","","","rating_trial_setup","html-keyboard-response","67","1258300","0.0-3.0-0.32","58","1","2025-04-11 14:22:57","bb671e3ae32f654b8954ea4c4635f915","","Mozilla/5.0 (X11; CrOS x86_64 14541.0.0) AppleWebKit/537.36 (KHTML, like Gecko) Chrome/134.0.0.0 Safari/537.36","WebKit","Chrome","134.0.0.0","ChromeOS","14541.0.0","https://hz8g1ckzuq.cognition.run/","en-US,en;q=0.9","8e6qlbk2n92kckn","45","[""Black or African-American""]","No","Female","1894318.7000000011","null","","<p></p>","null","rating","dtc","repulsion_1","2","washing machines","null","null","null","null","null","null","1","","","","","","","","","",""
"","","","","","rating_trial","survey-html-form","68","1273761","0.0-3.0-1.32","58","1","2025-04-11 14:22:57","bb671e3ae32f654b8954ea4c4635f915","","Mozilla/5.0 (X11; CrOS x86_64 14541.0.0) AppleWebKit/537.36 (KHTML, like Gecko) Chrome/134.0.0.0 Safari/537.36","WebKit","Chrome","134.0.0.0","ChromeOS","14541.0.0","https://hz8g1ckzuq.cognition.run/","en-US,en;q=0.9","8e6qlbk2n92kckn","45","[""Black or African-American""]","No","Female","1894318.7000000011","15455","","","{""price_1"":""250"",""price_2"":""250"",""price_3"":""250""}","rating","dtc","repulsion_1","2","washing machines","null","null","null","null","null","null","1","30","40","25","100","90","100","Average lifespan","Energy savings","",""
"","","","","","rating_trial_setup","html-keyboard-response","69","1274071","0.0-3.0-0.33","58","1","2025-04-11 14:22:57","bb671e3ae32f654b8954ea4c4635f915","","Mozilla/5.0 (X11; CrOS x86_64 14541.0.0) AppleWebKit/537.36 (KHTML, like Gecko) Chrome/134.0.0.0 Safari/537.36","WebKit","Chrome","134.0.0.0","ChromeOS","14541.0.0","https://hz8g1ckzuq.cognition.run/","en-US,en;q=0.9","8e6qlbk2n92kckn","45","[""Black or African-American""]","No","Female","1894318.7000000011","null","","<p></p>","null","rating","dtc","attraction_2","1","laptops","null","null","null","null","null","null","2","","","","","","","","","",""
"","","","","","rating_trial","survey-html-form","70","1295534","0.0-3.0-1.33","58","1","2025-04-11 14:22:57","bb671e3ae32f654b8954ea4c4635f915","","Mozilla/5.0 (X11; CrOS x86_64 14541.0.0) AppleWebKit/537.36 (KHTML, like Gecko) Chrome/134.0.0.0 Safari/537.36","WebKit","Chrome","134.0.0.0","ChromeOS","14541.0.0","https://hz8g1ckzuq.cognition.run/","en-US,en;q=0.9","8e6qlbk2n92kckn","45","[""Black or African-American""]","No","Female","1894318.7000000011","21455","","","{""price_1"":""300"",""price_2"":""300"",""price_3"":""300""}","rating","dtc","attraction_2","1","laptops","null","null","null","null","null","null","2","60","50","60","50","60","40","Processing speed","Memory (RAM)","",""
"","","","","","rating_trial_setup","html-keyboard-response","71","1295838","0.0-3.0-0.34","58","1","2025-04-11 14:22:57","bb671e3ae32f654b8954ea4c4635f915","","Mozilla/5.0 (X11; CrOS x86_64 14541.0.0) AppleWebKit/537.36 (KHTML, like Gecko) Chrome/134.0.0.0 Safari/537.36","WebKit","Chrome","134.0.0.0","ChromeOS","14541.0.0","https://hz8g1ckzuq.cognition.run/","en-US,en;q=0.9","8e6qlbk2n92kckn","45","[""Black or African-American""]","No","Female","1894318.7000000011","null","","<p></p>","null","rating","dtc","repulsion_2","1","laptops","null","null","null","null","null","null","2","","","","","","","","","",""
"","","","","","rating_trial","survey-html-form","72","1320138","0.0-3.0-1.34","58","1","2025-04-11 14:22:57","bb671e3ae32f654b8954ea4c4635f915","","Mozilla/5.0 (X11; CrOS x86_64 14541.0.0) AppleWebKit/537.36 (KHTML, like Gecko) Chrome/134.0.0.0 Safari/537.36","WebKit","Chrome","134.0.0.0","ChromeOS","14541.0.0","https://hz8g1ckzuq.cognition.run/","en-US,en;q=0.9","8e6qlbk2n92kckn","45","[""Black or African-American""]","No","Female","1894318.7000000011","24285","","","{""price_1"":""250"",""price_2"":""300"",""price_3"":""250""}","rating","dtc","repulsion_2","1","laptops","null","null","null","null","null","null","2","100","90","100","30","40","20","Processing speed","Memory (RAM)","",""
"","","","","","rating_trial_setup","html-keyboard-response","73","1320447","0.0-3.0-0.35","58","1","2025-04-11 14:22:57","bb671e3ae32f654b8954ea4c4635f915","","Mozilla/5.0 (X11; CrOS x86_64 14541.0.0) AppleWebKit/537.36 (KHTML, like Gecko) Chrome/134.0.0.0 Safari/537.36","WebKit","Chrome","134.0.0.0","ChromeOS","14541.0.0","https://hz8g1ckzuq.cognition.run/","en-US,en;q=0.9","8e6qlbk2n92kckn","45","[""Black or African-American""]","No","Female","1894318.7000000011","null","","<p></p>","null","rating","wwb","catch","null","televisions","90","75","50","15","5","40","2","","","","","","","","","",""
"","","","","","rating_trial","survey-html-form","74","1354510","0.0-3.0-1.35","58","1","2025-04-11 14:22:57","bb671e3ae32f654b8954ea4c4635f915","","Mozilla/5.0 (X11; CrOS x86_64 14541.0.0) AppleWebKit/537.36 (KHTML, like Gecko) Chrome/134.0.0.0 Safari/537.36","WebKit","Chrome","134.0.0.0","ChromeOS","14541.0.0","https://hz8g1ckzuq.cognition.run/","en-US,en;q=0.9","8e6qlbk2n92kckn","45","[""Black or African-American""]","No","Female","1894318.7000000011","34054","","","{""price_1"":""150"",""price_2"":""250"",""price_3"":""300""}","rating","wwb","catch","null","televisions","90","75","50","15","5","40","2","null","null","null","null","null","null","Screen size","Average lifespan","",""
"","","","","","rating_trial_setup","html-keyboard-response","75","1354822","0.0-3.0-0.36","58","1","2025-04-11 14:22:57","bb671e3ae32f654b8954ea4c4635f915","","Mozilla/5.0 (X11; CrOS x86_64 14541.0.0) AppleWebKit/537.36 (KHTML, like Gecko) Chrome/134.0.0.0 Safari/537.36","WebKit","Chrome","134.0.0.0","ChromeOS","14541.0.0","https://hz8g1ckzuq.cognition.run/","en-US,en;q=0.9","8e6qlbk2n92kckn","45","[""Black or African-American""]","No","Female","1894318.7000000011","null","","<p></p>","null","rating","wwb","catch","null","microwave ovens","55","80","15","20","35","25","1","","","","","","","","","",""
"","","","","","rating_trial","survey-html-form","76","1377061","0.0-3.0-1.36","58","1","2025-04-11 14:22:57","bb671e3ae32f654b8954ea4c4635f915","","Mozilla/5.0 (X11; CrOS x86_64 14541.0.0) AppleWebKit/537.36 (KHTML, like Gecko) Chrome/134.0.0.0 Safari/537.36","WebKit","Chrome","134.0.0.0","ChromeOS","14541.0.0","https://hz8g1ckzuq.cognition.run/","en-US,en;q=0.9","8e6qlbk2n92kckn","45","[""Black or African-American""]","No","Female","1894318.7000000011","22233","","","{""price_1"":""75"",""price_2"":""100"",""price_3"":""135""}","rating","wwb","catch","null","microwave ovens","55","80","15","20","35","25","1","null","null","null","null","null","null","Warranty","Cooking power","",""
"","","","","","rating_trial_setup","html-keyboard-response","77","1377365","0.0-3.0-0.37","58","1","2025-04-11 14:22:57","bb671e3ae32f654b8954ea4c4635f915","","Mozilla/5.0 (X11; CrOS x86_64 14541.0.0) AppleWebKit/537.36 (KHTML, like Gecko) Chrome/134.0.0.0 Safari/537.36","WebKit","Chrome","134.0.0.0","ChromeOS","14541.0.0","https://hz8g1ckzuq.cognition.run/","en-US,en;q=0.9","8e6qlbk2n92kckn","45","[""Black or African-American""]","No","Female","1894318.7000000011","null","","<p></p>","null","rating","wwb","catch","null","laptops","80","65","30","10","25","45","2","","","","","","","","","",""
"","","","","","rating_trial","survey-html-form","78","1393040","0.0-3.0-1.37","58","1","2025-04-11 14:22:57","bb671e3ae32f654b8954ea4c4635f915","","Mozilla/5.0 (X11; CrOS x86_64 14541.0.0) AppleWebKit/537.36 (KHTML, like Gecko) Chrome/134.0.0.0 Safari/537.36","WebKit","Chrome","134.0.0.0","ChromeOS","14541.0.0","https://hz8g1ckzuq.cognition.run/","en-US,en;q=0.9","8e6qlbk2n92kckn","45","[""Black or African-American""]","No","Female","1894318.7000000011","15665","","","{""price_1"":""125"",""price_2"":""250"",""price_3"":""300""}","rating","wwb","catch","null","laptops","80","65","30","10","25","45","2","null","null","null","null","null","null","Processing speed","Memory (RAM)","",""
"","","","","","rating_trial_setup","html-keyboard-response","79","1393352","0.0-3.0-0.38","58","1","2025-04-11 14:22:57","bb671e3ae32f654b8954ea4c4635f915","","Mozilla/5.0 (X11; CrOS x86_64 14541.0.0) AppleWebKit/537.36 (KHTML, like Gecko) Chrome/134.0.0.0 Safari/537.36","WebKit","Chrome","134.0.0.0","ChromeOS","14541.0.0","https://hz8g1ckzuq.cognition.run/","en-US,en;q=0.9","8e6qlbk2n92kckn","45","[""Black or African-American""]","No","Female","1894318.7000000011","null","","<p></p>","null","rating","dtc","repulsion_1","1","washing machines","null","null","null","null","null","null","2","","","","","","","","","",""
"","","","","","rating_trial","survey-html-form","80","1427377","0.0-3.0-1.38","58","1","2025-04-11 14:22:57","bb671e3ae32f654b8954ea4c4635f915","","Mozilla/5.0 (X11; CrOS x86_64 14541.0.0) AppleWebKit/537.36 (KHTML, like Gecko) Chrome/134.0.0.0 Safari/537.36","WebKit","Chrome","134.0.0.0","ChromeOS","14541.0.0","https://hz8g1ckzuq.cognition.run/","en-US,en;q=0.9","8e6qlbk2n92kckn","45","[""Black or African-American""]","No","Female","1894318.7000000011","34018","","","{""price_1"":""350"",""price_2"":""400"",""price_3"":""300""}","rating","dtc","repulsion_1","1","washing machines","null","null","null","null","null","null","2","100","90","100","30","40","25","Average lifespan","Energy savings","",""
"","","","","","rating_trial_setup","html-keyboard-response","81","1427680","0.0-3.0-0.39","58","1","2025-04-11 14:22:57","bb671e3ae32f654b8954ea4c4635f915","","Mozilla/5.0 (X11; CrOS x86_64 14541.0.0) AppleWebKit/537.36 (KHTML, like Gecko) Chrome/134.0.0.0 Safari/537.36","WebKit","Chrome","134.0.0.0","ChromeOS","14541.0.0","https://hz8g1ckzuq.cognition.run/","en-US,en;q=0.9","8e6qlbk2n92kckn","45","[""Black or African-American""]","No","Female","1894318.7000000011","null","","<p></p>","null","rating","cdt","repulsion_2","1","microwave ovens","null","null","null","null","null","null","2","","","","","","","","","",""
"","","","","","rating_trial","survey-html-form","82","1440947","0.0-3.0-1.39","58","1","2025-04-11 14:22:57","bb671e3ae32f654b8954ea4c4635f915","","Mozilla/5.0 (X11; CrOS x86_64 14541.0.0) AppleWebKit/537.36 (KHTML, like Gecko) Chrome/134.0.0.0 Safari/537.36","WebKit","Chrome","134.0.0.0","ChromeOS","14541.0.0","https://hz8g1ckzuq.cognition.run/","en-US,en;q=0.9","8e6qlbk2n92kckn","45","[""Black or African-American""]","No","Female","1894318.7000000011","13258","","","{""price_1"":""75"",""price_2"":""100"",""price_3"":""100""}","rating","cdt","repulsion_2","1","microwave ovens","null","null","null","null","null","null","2","100","90","100","30","40","20","Warranty","Cooking power","",""
"","","","","","","instructions","83","1488126","0.0-4.0","58","1","2025-04-11 14:22:57","bb671e3ae32f654b8954ea4c4635f915","","Mozilla/5.0 (X11; CrOS x86_64 14541.0.0) AppleWebKit/537.36 (KHTML, like Gecko) Chrome/134.0.0.0 Safari/537.36","WebKit","Chrome","134.0.0.0","ChromeOS","14541.0.0","https://hz8g1ckzuq.cognition.run/","en-US,en;q=0.9","8e6qlbk2n92kckn","45","[""Black or African-American""]","No","Female","1894318.7000000011","47165","[{""page_index"":0,""viewing_time"":2120},{""page_index"":1,""viewing_time"":2216},{""page_index"":2,""viewing_time"":4271},{""page_index"":3,""viewing_time"":4850},{""page_index"":4,""viewing_time"":7716},{""page_index"":5,""viewing_time"":6521},{""page_index"":6,""viewing_time"":13018},{""page_index"":7,""viewing_time"":6452}]","","","","","","","","","","","","","","","","","","","","","","","",""
"","","","","","choice_trial_setup","html-keyboard-response","84","1488431","0.0-5.0-0.0","58","1","2025-04-11 14:22:57","bb671e3ae32f654b8954ea4c4635f915","","Mozilla/5.0 (X11; CrOS x86_64 14541.0.0) AppleWebKit/537.36 (KHTML, like Gecko) Chrome/134.0.0.0 Safari/537.36","WebKit","Chrome","134.0.0.0","ChromeOS","14541.0.0","https://hz8g1ckzuq.cognition.run/","en-US,en;q=0.9","8e6qlbk2n92kckn","45","[""Black or African-American""]","No","Female","1894318.7000000011","null","","<p></p>","null","choice","ctd","attraction_1","1","washing machines","null","null","null","null","null","null","2","","","","","","","","","",""
"","","","","","choice_trial","survey-html-form","85","1496188","0.0-5.0-1.0","58","1","2025-04-11 14:22:57","bb671e3ae32f654b8954ea4c4635f915","","Mozilla/5.0 (X11; CrOS x86_64 14541.0.0) AppleWebKit/537.36 (KHTML, like Gecko) Chrome/134.0.0.0 Safari/537.36","WebKit","Chrome","134.0.0.0","ChromeOS","14541.0.0","https://hz8g1ckzuq.cognition.run/","en-US,en;q=0.9","8e6qlbk2n92kckn","45","[""Black or African-American""]","No","Female","1894318.7000000011","7745","","","{""product_choice"":""B""}","choice","ctd","attraction_1","1","washing machines","null","null","null","null","null","null","2","60","50","60","50","60","45","Average lifespan","Energy savings","",""
"","","","","","choice_trial_setup","html-keyboard-response","86","1496500","0.0-5.0-0.1","58","1","2025-04-11 14:22:57","bb671e3ae32f654b8954ea4c4635f915","","Mozilla/5.0 (X11; CrOS x86_64 14541.0.0) AppleWebKit/537.36 (KHTML, like Gecko) Chrome/134.0.0.0 Safari/537.36","WebKit","Chrome","134.0.0.0","ChromeOS","14541.0.0","https://hz8g1ckzuq.cognition.run/","en-US,en;q=0.9","8e6qlbk2n92kckn","45","[""Black or African-American""]","No","Female","1894318.7000000011","null","","<p></p>","null","choice","wbw","catch","null","microwave ovens","85","80","15","45","35","45","2","","","","","","","","","",""
"","","","","","choice_trial","survey-html-form","87","1501130","0.0-5.0-1.1","58","1","2025-04-11 14:22:57","bb671e3ae32f654b8954ea4c4635f915","","Mozilla/5.0 (X11; CrOS x86_64 14541.0.0) AppleWebKit/537.36 (KHTML, like Gecko) Chrome/134.0.0.0 Safari/537.36","WebKit","Chrome","134.0.0.0","ChromeOS","14541.0.0","https://hz8g1ckzuq.cognition.run/","en-US,en;q=0.9","8e6qlbk2n92kckn","45","[""Black or African-American""]","No","Female","1894318.7000000011","4618","","","{""product_choice"":""B""}","choice","wbw","catch","null","microwave ovens","85","80","15","45","35","45","2","null","null","null","null","null","null","Warranty","Cooking power","",""
"","","","","","choice_trial_setup","html-keyboard-response","88","1501435","0.0-5.0-0.2","58","1","2025-04-11 14:22:57","bb671e3ae32f654b8954ea4c4635f915","","Mozilla/5.0 (X11; CrOS x86_64 14541.0.0) AppleWebKit/537.36 (KHTML, like Gecko) Chrome/134.0.0.0 Safari/537.36","WebKit","Chrome","134.0.0.0","ChromeOS","14541.0.0","https://hz8g1ckzuq.cognition.run/","en-US,en;q=0.9","8e6qlbk2n92kckn","45","[""Black or African-American""]","No","Female","1894318.7000000011","null","","<p></p>","null","choice","cdt","repulsion_2","2","microwave ovens","null","null","null","null","null","null","1","","","","","","","","","",""
"","","","","","choice_trial","survey-html-form","89","1507927","0.0-5.0-1.2","58","1","2025-04-11 14:22:57","bb671e3ae32f654b8954ea4c4635f915","","Mozilla/5.0 (X11; CrOS x86_64 14541.0.0) AppleWebKit/537.36 (KHTML, like Gecko) Chrome/134.0.0.0 Safari/537.36","WebKit","Chrome","134.0.0.0","ChromeOS","14541.0.0","https://hz8g1ckzuq.cognition.run/","en-US,en;q=0.9","8e6qlbk2n92kckn","45","[""Black or African-American""]","No","Female","1894318.7000000011","6481","","","{""product_choice"":""A""}","choice","cdt","repulsion_2","2","microwave ovens","null","null","null","null","null","null","1","30","40","20","100","90","100","Warranty","Cooking power","",""
"","","","","","choice_trial_setup","html-keyboard-response","90","1508238","0.0-5.0-0.3","58","1","2025-04-11 14:22:57","bb671e3ae32f654b8954ea4c4635f915","","Mozilla/5.0 (X11; CrOS x86_64 14541.0.0) AppleWebKit/537.36 (KHTML, like Gecko) Chrome/134.0.0.0 Safari/537.36","WebKit","Chrome","134.0.0.0","ChromeOS","14541.0.0","https://hz8g1ckzuq.cognition.run/","en-US,en;q=0.9","8e6qlbk2n92kckn","45","[""Black or African-American""]","No","Female","1894318.7000000011","null","","<p></p>","null","choice","wwb","catch","null","laptops","55","80","30","10","10","30","1","","","","","","","","","",""
"","","","","","choice_trial","survey-html-form","91","1513205","0.0-5.0-1.3","58","1","2025-04-11 14:22:57","bb671e3ae32f654b8954ea4c4635f915","","Mozilla/5.0 (X11; CrOS x86_64 14541.0.0) AppleWebKit/537.36 (KHTML, like Gecko) Chrome/134.0.0.0 Safari/537.36","WebKit","Chrome","134.0.0.0","ChromeOS","14541.0.0","https://hz8g1ckzuq.cognition.run/","en-US,en;q=0.9","8e6qlbk2n92kckn","45","[""Black or African-American""]","No","Female","1894318.7000000011","4959","","","{""product_choice"":""C""}","choice","wwb","catch","null","laptops","55","80","30","10","10","30","1","null","null","null","null","null","null","Processing speed","Memory (RAM)","",""
"","","","","","choice_trial_setup","html-keyboard-response","92","1513516","0.0-5.0-0.4","58","1","2025-04-11 14:22:57","bb671e3ae32f654b8954ea4c4635f915","","Mozilla/5.0 (X11; CrOS x86_64 14541.0.0) AppleWebKit/537.36 (KHTML, like Gecko) Chrome/134.0.0.0 Safari/537.36","WebKit","Chrome","134.0.0.0","ChromeOS","14541.0.0","https://hz8g1ckzuq.cognition.run/","en-US,en;q=0.9","8e6qlbk2n92kckn","45","[""Black or African-American""]","No","Female","1894318.7000000011","null","","<p></p>","null","choice","dtc","attraction_2","1","laptops","null","null","null","null","null","null","2","","","","","","","","","",""
"","","","","","choice_trial","survey-html-form","93","1522132","0.0-5.0-1.4","58","1","2025-04-11 14:22:57","bb671e3ae32f654b8954ea4c4635f915","","Mozilla/5.0 (X11; CrOS x86_64 14541.0.0) AppleWebKit/537.36 (KHTML, like Gecko) Chrome/134.0.0.0 Safari/537.36","WebKit","Chrome","134.0.0.0","ChromeOS","14541.0.0","https://hz8g1ckzuq.cognition.run/","en-US,en;q=0.9","8e6qlbk2n92kckn","45","[""Black or African-American""]","No","Female","1894318.7000000011","8606","","","{""product_choice"":""B""}","choice","dtc","attraction_2","1","laptops","null","null","null","null","null","null","2","60","50","60","50","60","40","Processing speed","Memory (RAM)","",""
"","","","","","choice_trial_setup","html-keyboard-response","94","1522445","0.0-5.0-0.5","58","1","2025-04-11 14:22:57","bb671e3ae32f654b8954ea4c4635f915","","Mozilla/5.0 (X11; CrOS x86_64 14541.0.0) AppleWebKit/537.36 (KHTML, like Gecko) Chrome/134.0.0.0 Safari/537.36","WebKit","Chrome","134.0.0.0","ChromeOS","14541.0.0","https://hz8g1ckzuq.cognition.run/","en-US,en;q=0.9","8e6qlbk2n92kckn","45","[""Black or African-American""]","No","Female","1894318.7000000011","null","","<p></p>","null","choice","cdt","attraction_2","2","laptops","null","null","null","null","null","null","2","","","","","","","","","",""
"","","","","","choice_trial","survey-html-form","95","1530230","0.0-5.0-1.5","58","1","2025-04-11 14:22:57","bb671e3ae32f654b8954ea4c4635f915","","Mozilla/5.0 (X11; CrOS x86_64 14541.0.0) AppleWebKit/537.36 (KHTML, like Gecko) Chrome/134.0.0.0 Safari/537.36","WebKit","Chrome","134.0.0.0","ChromeOS","14541.0.0","https://hz8g1ckzuq.cognition.run/","en-US,en;q=0.9","8e6qlbk2n92kckn","45","[""Black or African-American""]","No","Female","1894318.7000000011","7774","","","{""product_choice"":""A""}","choice","cdt","attraction_2","2","laptops","null","null","null","null","null","null","2","50","60","40","60","50","60","Processing speed","Memory (RAM)","",""
"","","","","","choice_trial_setup","html-keyboard-response","96","1530542","0.0-5.0-0.6","58","1","2025-04-11 14:22:57","bb671e3ae32f654b8954ea4c4635f915","","Mozilla/5.0 (X11; CrOS x86_64 14541.0.0) AppleWebKit/537.36 (KHTML, like Gecko) Chrome/134.0.0.0 Safari/537.36","WebKit","Chrome","134.0.0.0","ChromeOS","14541.0.0","https://hz8g1ckzuq.cognition.run/","en-US,en;q=0.9","8e6qlbk2n92kckn","45","[""Black or African-American""]","No","Female","1894318.7000000011","null","","<p></p>","null","choice","dtc","attraction_1","2","microwave ovens","null","null","null","null","null","null","1","","","","","","","","","",""
"","","","","","choice_trial","survey-html-form","97","1538795","0.0-5.0-1.6","58","1","2025-04-11 14:22:57","bb671e3ae32f654b8954ea4c4635f915","","Mozilla/5.0 (X11; CrOS x86_64 14541.0.0) AppleWebKit/537.36 (KHTML, like Gecko) Chrome/134.0.0.0 Safari/537.36","WebKit","Chrome","134.0.0.0","ChromeOS","14541.0.0","https://hz8g1ckzuq.cognition.run/","en-US,en;q=0.9","8e6qlbk2n92kckn","45","[""Black or African-American""]","No","Female","1894318.7000000011","8246","","","{""product_choice"":""B""}","choice","dtc","attraction_1","2","microwave ovens","null","null","null","null","null","null","1","50","60","45","60","50","60","Warranty","Cooking power","",""
"","","","","","choice_trial_setup","html-keyboard-response","98","1539106","0.0-5.0-0.7","58","1","2025-04-11 14:22:57","bb671e3ae32f654b8954ea4c4635f915","","Mozilla/5.0 (X11; CrOS x86_64 14541.0.0) AppleWebKit/537.36 (KHTML, like Gecko) Chrome/134.0.0.0 Safari/537.36","WebKit","Chrome","134.0.0.0","ChromeOS","14541.0.0","https://hz8g1ckzuq.cognition.run/","en-US,en;q=0.9","8e6qlbk2n92kckn","45","[""Black or African-American""]","No","Female","1894318.7000000011","null","","<p></p>","null","choice","wbw","catch","null","televisions","90","50","10","10","5","5","2","","","","","","","","","",""
"","","","","","choice_trial","survey-html-form","99","1545549","0.0-5.0-1.7","58","1","2025-04-11 14:22:57","bb671e3ae32f654b8954ea4c4635f915","","Mozilla/5.0 (X11; CrOS x86_64 14541.0.0) AppleWebKit/537.36 (KHTML, like Gecko) Chrome/134.0.0.0 Safari/537.36","WebKit","Chrome","134.0.0.0","ChromeOS","14541.0.0","https://hz8g1ckzuq.cognition.run/","en-US,en;q=0.9","8e6qlbk2n92kckn","45","[""Black or African-American""]","No","Female","1894318.7000000011","6433","","","{""product_choice"":""B""}","choice","wbw","catch","null","televisions","90","50","10","10","5","5","2","null","null","null","null","null","null","Screen size","Average lifespan","",""
"","","","","","choice_trial_setup","html-keyboard-response","100","1545854","0.0-5.0-0.8","58","1","2025-04-11 14:22:57","bb671e3ae32f654b8954ea4c4635f915","","Mozilla/5.0 (X11; CrOS x86_64 14541.0.0) AppleWebKit/537.36 (KHTML, like Gecko) Chrome/134.0.0.0 Safari/537.36","WebKit","Chrome","134.0.0.0","ChromeOS","14541.0.0","https://hz8g1ckzuq.cognition.run/","en-US,en;q=0.9","8e6qlbk2n92kckn","45","[""Black or African-American""]","No","Female","1894318.7000000011","null","","<p></p>","null","choice","ctd","repulsion_2","1","laptops","null","null","null","null","null","null","2","","","","","","","","","",""
"","","","","","choice_trial","survey-html-form","101","1553323","0.0-5.0-1.8","58","1","2025-04-11 14:22:57","bb671e3ae32f654b8954ea4c4635f915","","Mozilla/5.0 (X11; CrOS x86_64 14541.0.0) AppleWebKit/537.36 (KHTML, like Gecko) Chrome/134.0.0.0 Safari/537.36","WebKit","Chrome","134.0.0.0","ChromeOS","14541.0.0","https://hz8g1ckzuq.cognition.run/","en-US,en;q=0.9","8e6qlbk2n92kckn","45","[""Black or African-American""]","No","Female","1894318.7000000011","7463","","","{""product_choice"":""A""}","choice","ctd","repulsion_2","1","laptops","null","null","null","null","null","null","2","100","90","100","30","40","20","Processing speed","Memory (RAM)","",""
"","","","","","choice_trial_setup","html-keyboard-response","102","1553636","0.0-5.0-0.9","58","1","2025-04-11 14:22:57","bb671e3ae32f654b8954ea4c4635f915","","Mozilla/5.0 (X11; CrOS x86_64 14541.0.0) AppleWebKit/537.36 (KHTML, like Gecko) Chrome/134.0.0.0 Safari/537.36","WebKit","Chrome","134.0.0.0","ChromeOS","14541.0.0","https://hz8g1ckzuq.cognition.run/","en-US,en;q=0.9","8e6qlbk2n92kckn","45","[""Black or African-American""]","No","Female","1894318.7000000011","null","","<p></p>","null","choice","ctd","attraction_1","1","laptops","null","null","null","null","null","null","1","","","","","","","","","",""
"","","","","","choice_trial","survey-html-form","103","1563114","0.0-5.0-1.9","58","1","2025-04-11 14:22:57","bb671e3ae32f654b8954ea4c4635f915","","Mozilla/5.0 (X11; CrOS x86_64 14541.0.0) AppleWebKit/537.36 (KHTML, like Gecko) Chrome/134.0.0.0 Safari/537.36","WebKit","Chrome","134.0.0.0","ChromeOS","14541.0.0","https://hz8g1ckzuq.cognition.run/","en-US,en;q=0.9","8e6qlbk2n92kckn","45","[""Black or African-American""]","No","Female","1894318.7000000011","9466","","","{""product_choice"":""B""}","choice","ctd","attraction_1","1","laptops","null","null","null","null","null","null","1","60","50","60","50","60","45","Processing speed","Memory (RAM)","",""
"","","","","","choice_trial_setup","html-keyboard-response","104","1563426","0.0-5.0-0.10","58","1","2025-04-11 14:22:57","bb671e3ae32f654b8954ea4c4635f915","","Mozilla/5.0 (X11; CrOS x86_64 14541.0.0) AppleWebKit/537.36 (KHTML, like Gecko) Chrome/134.0.0.0 Safari/537.36","WebKit","Chrome","134.0.0.0","ChromeOS","14541.0.0","https://hz8g1ckzuq.cognition.run/","en-US,en;q=0.9","8e6qlbk2n92kckn","45","[""Black or African-American""]","No","Female","1894318.7000000011","null","","<p></p>","null","choice","dtc","attraction_1","1","televisions","null","null","null","null","null","null","2","","","","","","","","","",""
"","","","","","choice_trial","survey-html-form","105","1571839","0.0-5.0-1.10","58","1","2025-04-11 14:22:57","bb671e3ae32f654b8954ea4c4635f915","","Mozilla/5.0 (X11; CrOS x86_64 14541.0.0) AppleWebKit/537.36 (KHTML, like Gecko) Chrome/134.0.0.0 Safari/537.36","WebKit","Chrome","134.0.0.0","ChromeOS","14541.0.0","https://hz8g1ckzuq.cognition.run/","en-US,en;q=0.9","8e6qlbk2n92kckn","45","[""Black or African-American""]","No","Female","1894318.7000000011","8402","","","{""product_choice"":""C""}","choice","dtc","attraction_1","1","televisions","null","null","null","null","null","null","2","60","50","60","50","60","45","Screen size","Average lifespan","",""
"","","","","","choice_trial_setup","html-keyboard-response","106","1572151","0.0-5.0-0.11","58","1","2025-04-11 14:22:57","bb671e3ae32f654b8954ea4c4635f915","","Mozilla/5.0 (X11; CrOS x86_64 14541.0.0) AppleWebKit/537.36 (KHTML, like Gecko) Chrome/134.0.0.0 Safari/537.36","WebKit","Chrome","134.0.0.0","ChromeOS","14541.0.0","https://hz8g1ckzuq.cognition.run/","en-US,en;q=0.9","8e6qlbk2n92kckn","45","[""Black or African-American""]","No","Female","1894318.7000000011","null","","<p></p>","null","choice","tdc","attraction_1","2","televisions","null","null","null","null","null","null","2","","","","","","","","","",""
"","","","","","choice_trial","survey-html-form","107","1576530","0.0-5.0-1.11","58","1","2025-04-11 14:22:57","bb671e3ae32f654b8954ea4c4635f915","","Mozilla/5.0 (X11; CrOS x86_64 14541.0.0) AppleWebKit/537.36 (KHTML, like Gecko) Chrome/134.0.0.0 Safari/537.36","WebKit","Chrome","134.0.0.0","ChromeOS","14541.0.0","https://hz8g1ckzuq.cognition.run/","en-US,en;q=0.9","8e6qlbk2n92kckn","45","[""Black or African-American""]","No","Female","1894318.7000000011","4366","","","{""product_choice"":""A""}","choice","tdc","attraction_1","2","televisions","null","null","null","null","null","null","2","50","60","45","60","50","60","Screen size","Average lifespan","",""
"","","","","","choice_trial_setup","html-keyboard-response","108","1576843","0.0-5.0-0.12","58","1","2025-04-11 14:22:57","bb671e3ae32f654b8954ea4c4635f915","","Mozilla/5.0 (X11; CrOS x86_64 14541.0.0) AppleWebKit/537.36 (KHTML, like Gecko) Chrome/134.0.0.0 Safari/537.36","WebKit","Chrome","134.0.0.0","ChromeOS","14541.0.0","https://hz8g1ckzuq.cognition.run/","en-US,en;q=0.9","8e6qlbk2n92kckn","45","[""Black or African-American""]","No","Female","1894318.7000000011","null","","<p></p>","null","choice","ctd","repulsion_2","1","washing machines","null","null","null","null","null","null","2","","","","","","","","","",""
"","","","","","choice_trial","survey-html-form","109","1582689","0.0-5.0-1.12","58","1","2025-04-11 14:22:57","bb671e3ae32f654b8954ea4c4635f915","","Mozilla/5.0 (X11; CrOS x86_64 14541.0.0) AppleWebKit/537.36 (KHTML, like Gecko) Chrome/134.0.0.0 Safari/537.36","WebKit","Chrome","134.0.0.0","ChromeOS","14541.0.0","https://hz8g1ckzuq.cognition.run/","en-US,en;q=0.9","8e6qlbk2n92kckn","45","[""Black or African-American""]","No","Female","1894318.7000000011","5834","","","{""product_choice"":""A""}","choice","ctd","repulsion_2","1","washing machines","null","null","null","null","null","null","2","100","90","100","30","40","20","Average lifespan","Energy savings","",""
"","","","","","choice_trial_setup","html-keyboard-response","110","1583003","0.0-5.0-0.13","58","1","2025-04-11 14:22:57","bb671e3ae32f654b8954ea4c4635f915","","Mozilla/5.0 (X11; CrOS x86_64 14541.0.0) AppleWebKit/537.36 (KHTML, like Gecko) Chrome/134.0.0.0 Safari/537.36","WebKit","Chrome","134.0.0.0","ChromeOS","14541.0.0","https://hz8g1ckzuq.cognition.run/","en-US,en;q=0.9","8e6qlbk2n92kckn","45","[""Black or African-American""]","No","Female","1894318.7000000011","null","","<p></p>","null","choice","dtc","repulsion_1","2","televisions","null","null","null","null","null","null","1","","","","","","","","","",""
"","","","","","choice_trial","survey-html-form","111","1592481","0.0-5.0-1.13","58","1","2025-04-11 14:22:57","bb671e3ae32f654b8954ea4c4635f915","","Mozilla/5.0 (X11; CrOS x86_64 14541.0.0) AppleWebKit/537.36 (KHTML, like Gecko) Chrome/134.0.0.0 Safari/537.36","WebKit","Chrome","134.0.0.0","ChromeOS","14541.0.0","https://hz8g1ckzuq.cognition.run/","en-US,en;q=0.9","8e6qlbk2n92kckn","45","[""Black or African-American""]","No","Female","1894318.7000000011","9466","","","{""product_choice"":""C""}","choice","dtc","repulsion_1","2","televisions","null","null","null","null","null","null","1","30","40","25","100","90","100","Screen size","Average lifespan","",""
"","","","","","choice_trial_setup","html-keyboard-response","112","1592794","0.0-5.0-0.14","58","1","2025-04-11 14:22:57","bb671e3ae32f654b8954ea4c4635f915","","Mozilla/5.0 (X11; CrOS x86_64 14541.0.0) AppleWebKit/537.36 (KHTML, like Gecko) Chrome/134.0.0.0 Safari/537.36","WebKit","Chrome","134.0.0.0","ChromeOS","14541.0.0","https://hz8g1ckzuq.cognition.run/","en-US,en;q=0.9","8e6qlbk2n92kckn","45","[""Black or African-American""]","No","Female","1894318.7000000011","null","","<p></p>","null","choice","tcd","repulsion_2","1","televisions","null","null","null","null","null","null","2","","","","","","","","","",""
"","","","","","choice_trial","survey-html-form","113","1601600","0.0-5.0-1.14","58","1","2025-04-11 14:22:57","bb671e3ae32f654b8954ea4c4635f915","","Mozilla/5.0 (X11; CrOS x86_64 14541.0.0) AppleWebKit/537.36 (KHTML, like Gecko) Chrome/134.0.0.0 Safari/537.36","WebKit","Chrome","134.0.0.0","ChromeOS","14541.0.0","https://hz8g1ckzuq.cognition.run/","en-US,en;q=0.9","8e6qlbk2n92kckn","45","[""Black or African-American""]","No","Female","1894318.7000000011","8793","","","{""product_choice"":""B""}","choice","tcd","repulsion_2","1","televisions","null","null","null","null","null","null","2","100","90","100","30","40","20","Screen size","Average lifespan","",""
"","","","","","choice_trial_setup","html-keyboard-response","114","1601905","0.0-5.0-0.15","58","1","2025-04-11 14:22:57","bb671e3ae32f654b8954ea4c4635f915","","Mozilla/5.0 (X11; CrOS x86_64 14541.0.0) AppleWebKit/537.36 (KHTML, like Gecko) Chrome/134.0.0.0 Safari/537.36","WebKit","Chrome","134.0.0.0","ChromeOS","14541.0.0","https://hz8g1ckzuq.cognition.run/","en-US,en;q=0.9","8e6qlbk2n92kckn","45","[""Black or African-American""]","No","Female","1894318.7000000011","null","","<p></p>","null","choice","dtc","attraction_2","1","microwave ovens","null","null","null","null","null","null","1","","","","","","","","","",""
"","","","","","choice_trial","survey-html-form","115","1608879","0.0-5.0-1.15","58","1","2025-04-11 14:22:57","bb671e3ae32f654b8954ea4c4635f915","","Mozilla/5.0 (X11; CrOS x86_64 14541.0.0) AppleWebKit/537.36 (KHTML, like Gecko) Chrome/134.0.0.0 Safari/537.36","WebKit","Chrome","134.0.0.0","ChromeOS","14541.0.0","https://hz8g1ckzuq.cognition.run/","en-US,en;q=0.9","8e6qlbk2n92kckn","45","[""Black or African-American""]","No","Female","1894318.7000000011","6962","","","{""product_choice"":""C""}","choice","dtc","attraction_2","1","microwave ovens","null","null","null","null","null","null","1","60","50","60","50","60","40","Warranty","Cooking power","",""
"","","","","","choice_trial_setup","html-keyboard-response","116","1609193","0.0-5.0-0.16","58","1","2025-04-11 14:22:57","bb671e3ae32f654b8954ea4c4635f915","","Mozilla/5.0 (X11; CrOS x86_64 14541.0.0) AppleWebKit/537.36 (KHTML, like Gecko) Chrome/134.0.0.0 Safari/537.36","WebKit","Chrome","134.0.0.0","ChromeOS","14541.0.0","https://hz8g1ckzuq.cognition.run/","en-US,en;q=0.9","8e6qlbk2n92kckn","45","[""Black or African-American""]","No","Female","1894318.7000000011","null","","<p></p>","null","choice","dct","repulsion_1","1","washing machines","null","null","null","null","null","null","1","","","","","","","","","",""
"","","","","","choice_trial","survey-html-form","117","1614063","0.0-5.0-1.16","58","1","2025-04-11 14:22:57","bb671e3ae32f654b8954ea4c4635f915","","Mozilla/5.0 (X11; CrOS x86_64 14541.0.0) AppleWebKit/537.36 (KHTML, like Gecko) Chrome/134.0.0.0 Safari/537.36","WebKit","Chrome","134.0.0.0","ChromeOS","14541.0.0","https://hz8g1ckzuq.cognition.run/","en-US,en;q=0.9","8e6qlbk2n92kckn","45","[""Black or African-American""]","No","Female","1894318.7000000011","4858","","","{""product_choice"":""B""}","choice","dct","repulsion_1","1","washing machines","null","null","null","null","null","null","1","100","90","100","30","40","25","Average lifespan","Energy savings","",""
"","","","","","choice_trial_setup","html-keyboard-response","118","1614378","0.0-5.0-0.17","58","1","2025-04-11 14:22:57","bb671e3ae32f654b8954ea4c4635f915","","Mozilla/5.0 (X11; CrOS x86_64 14541.0.0) AppleWebKit/537.36 (KHTML, like Gecko) Chrome/134.0.0.0 Safari/537.36","WebKit","Chrome","134.0.0.0","ChromeOS","14541.0.0","https://hz8g1ckzuq.cognition.run/","en-US,en;q=0.9","8e6qlbk2n92kckn","45","[""Black or African-American""]","No","Female","1894318.7000000011","null","","<p></p>","null","choice","dct","attraction_2","2","televisions","null","null","null","null","null","null","1","","","","","","","","","",""
"","","","","","choice_trial","survey-html-form","119","1621871","0.0-5.0-1.17","58","1","2025-04-11 14:22:57","bb671e3ae32f654b8954ea4c4635f915","","Mozilla/5.0 (X11; CrOS x86_64 14541.0.0) AppleWebKit/537.36 (KHTML, like Gecko) Chrome/134.0.0.0 Safari/537.36","WebKit","Chrome","134.0.0.0","ChromeOS","14541.0.0","https://hz8g1ckzuq.cognition.run/","en-US,en;q=0.9","8e6qlbk2n92kckn","45","[""Black or African-American""]","No","Female","1894318.7000000011","7479","","","{""product_choice"":""C""}","choice","dct","attraction_2","2","televisions","null","null","null","null","null","null","1","50","60","40","60","50","60","Screen size","Average lifespan","",""
"","","","","","choice_trial_setup","html-keyboard-response","120","1622176","0.0-5.0-0.18","58","1","2025-04-11 14:22:57","bb671e3ae32f654b8954ea4c4635f915","","Mozilla/5.0 (X11; CrOS x86_64 14541.0.0) AppleWebKit/537.36 (KHTML, like Gecko) Chrome/134.0.0.0 Safari/537.36","WebKit","Chrome","134.0.0.0","ChromeOS","14541.0.0","https://hz8g1ckzuq.cognition.run/","en-US,en;q=0.9","8e6qlbk2n92kckn","45","[""Black or African-American""]","No","Female","1894318.7000000011","null","","<p></p>","null","choice","wbw","catch","null","washing machines","80","60","30","30","5","20","1","","","","","","","","","",""
"","","","","","choice_trial","survey-html-form","121","1625694","0.0-5.0-1.18","58","1","2025-04-11 14:22:57","bb671e3ae32f654b8954ea4c4635f915","","Mozilla/5.0 (X11; CrOS x86_64 14541.0.0) AppleWebKit/537.36 (KHTML, like Gecko) Chrome/134.0.0.0 Safari/537.36","WebKit","Chrome","134.0.0.0","ChromeOS","14541.0.0","https://hz8g1ckzuq.cognition.run/","en-US,en;q=0.9","8e6qlbk2n92kckn","45","[""Black or African-American""]","No","Female","1894318.7000000011","3505","","","{""product_choice"":""B""}","choice","wbw","catch","null","washing machines","80","60","30","30","5","20","1","null","null","null","null","null","null","Average lifespan","Energy savings","",""
"","","","","","choice_trial_setup","html-keyboard-response","122","1626003","0.0-5.0-0.19","58","1","2025-04-11 14:22:57","bb671e3ae32f654b8954ea4c4635f915","","Mozilla/5.0 (X11; CrOS x86_64 14541.0.0) AppleWebKit/537.36 (KHTML, like Gecko) Chrome/134.0.0.0 Safari/537.36","WebKit","Chrome","134.0.0.0","ChromeOS","14541.0.0","https://hz8g1ckzuq.cognition.run/","en-US,en;q=0.9","8e6qlbk2n92kckn","45","[""Black or African-American""]","No","Female","1894318.7000000011","null","","<p></p>","null","choice","dct","repulsion_2","2","washing machines","null","null","null","null","null","null","2","","","","","","","","","",""
"","","","","","choice_trial","survey-html-form","123","1635655","0.0-5.0-1.19","58","1","2025-04-11 14:22:57","bb671e3ae32f654b8954ea4c4635f915","","Mozilla/5.0 (X11; CrOS x86_64 14541.0.0) AppleWebKit/537.36 (KHTML, like Gecko) Chrome/134.0.0.0 Safari/537.36","WebKit","Chrome","134.0.0.0","ChromeOS","14541.0.0","https://hz8g1ckzuq.cognition.run/","en-US,en;q=0.9","8e6qlbk2n92kckn","45","[""Black or African-American""]","No","Female","1894318.7000000011","9639","","","{""product_choice"":""B""}","choice","dct","repulsion_2","2","washing machines","null","null","null","null","null","null","2","30","40","20","100","90","100","Average lifespan","Energy savings","",""
"","","","","","choice_trial_setup","html-keyboard-response","124","1635969","0.0-5.0-0.20","58","1","2025-04-11 14:22:57","bb671e3ae32f654b8954ea4c4635f915","","Mozilla/5.0 (X11; CrOS x86_64 14541.0.0) AppleWebKit/537.36 (KHTML, like Gecko) Chrome/134.0.0.0 Safari/537.36","WebKit","Chrome","134.0.0.0","ChromeOS","14541.0.0","https://hz8g1ckzuq.cognition.run/","en-US,en;q=0.9","8e6qlbk2n92kckn","45","[""Black or African-American""]","No","Female","1894318.7000000011","null","","<p></p>","null","choice","wwb","catch","null","microwave ovens","55","80","45","35","5","50","2","","","","","","","","","",""
"","","","","","choice_trial","survey-html-form","125","1640480","0.0-5.0-1.20","58","1","2025-04-11 14:22:57","bb671e3ae32f654b8954ea4c4635f915","","Mozilla/5.0 (X11; CrOS x86_64 14541.0.0) AppleWebKit/537.36 (KHTML, like Gecko) Chrome/134.0.0.0 Safari/537.36","WebKit","Chrome","134.0.0.0","ChromeOS","14541.0.0","https://hz8g1ckzuq.cognition.run/","en-US,en;q=0.9","8e6qlbk2n92kckn","45","[""Black or African-American""]","No","Female","1894318.7000000011","4496","","","{""product_choice"":""C""}","choice","wwb","catch","null","microwave ovens","55","80","45","35","5","50","2","null","null","null","null","null","null","Warranty","Cooking power","",""
"","","","","","choice_trial_setup","html-keyboard-response","126","1640798","0.0-5.0-0.21","58","1","2025-04-11 14:22:57","bb671e3ae32f654b8954ea4c4635f915","","Mozilla/5.0 (X11; CrOS x86_64 14541.0.0) AppleWebKit/537.36 (KHTML, like Gecko) Chrome/134.0.0.0 Safari/537.36","WebKit","Chrome","134.0.0.0","ChromeOS","14541.0.0","https://hz8g1ckzuq.cognition.run/","en-US,en;q=0.9","8e6qlbk2n92kckn","45","[""Black or African-American""]","No","Female","1894318.7000000011","null","","<p></p>","null","choice","tcd","repulsion_1","2","washing machines","null","null","null","null","null","null","1","","","","","","","","","",""
"","","","","","choice_trial","survey-html-form","127","1646724","0.0-5.0-1.21","58","1","2025-04-11 14:22:57","bb671e3ae32f654b8954ea4c4635f915","","Mozilla/5.0 (X11; CrOS x86_64 14541.0.0) AppleWebKit/537.36 (KHTML, like Gecko) Chrome/134.0.0.0 Safari/537.36","WebKit","Chrome","134.0.0.0","ChromeOS","14541.0.0","https://hz8g1ckzuq.cognition.run/","en-US,en;q=0.9","8e6qlbk2n92kckn","45","[""Black or African-American""]","No","Female","1894318.7000000011","5913","","","{""product_choice"":""B""}","choice","tcd","repulsion_1","2","washing machines","null","null","null","null","null","null","1","30","40","25","100","90","100","Average lifespan","Energy savings","",""
"","","","","","choice_trial_setup","html-keyboard-response","128","1647037","0.0-5.0-0.22","58","1","2025-04-11 14:22:57","bb671e3ae32f654b8954ea4c4635f915","","Mozilla/5.0 (X11; CrOS x86_64 14541.0.0) AppleWebKit/537.36 (KHTML, like Gecko) Chrome/134.0.0.0 Safari/537.36","WebKit","Chrome","134.0.0.0","ChromeOS","14541.0.0","https://hz8g1ckzuq.cognition.run/","en-US,en;q=0.9","8e6qlbk2n92kckn","45","[""Black or African-American""]","No","Female","1894318.7000000011","null","","<p></p>","null","choice","tdc","attraction_2","1","washing machines","null","null","null","null","null","null","1","","","","","","","","","",""
"","","","","","choice_trial","survey-html-form","129","1653763","0.0-5.0-1.22","58","1","2025-04-11 14:22:57","bb671e3ae32f654b8954ea4c4635f915","","Mozilla/5.0 (X11; CrOS x86_64 14541.0.0) AppleWebKit/537.36 (KHTML, like Gecko) Chrome/134.0.0.0 Safari/537.36","WebKit","Chrome","134.0.0.0","ChromeOS","14541.0.0","https://hz8g1ckzuq.cognition.run/","en-US,en;q=0.9","8e6qlbk2n92kckn","45","[""Black or African-American""]","No","Female","1894318.7000000011","6712","","","{""product_choice"":""A""}","choice","tdc","attraction_2","1","washing machines","null","null","null","null","null","null","1","60","50","60","50","60","40","Average lifespan","Energy savings","",""
"","","","","","choice_trial_setup","html-keyboard-response","130","1654069","0.0-5.0-0.23","58","1","2025-04-11 14:22:57","bb671e3ae32f654b8954ea4c4635f915","","Mozilla/5.0 (X11; CrOS x86_64 14541.0.0) AppleWebKit/537.36 (KHTML, like Gecko) Chrome/134.0.0.0 Safari/537.36","WebKit","Chrome","134.0.0.0","ChromeOS","14541.0.0","https://hz8g1ckzuq.cognition.run/","en-US,en;q=0.9","8e6qlbk2n92kckn","45","[""Black or African-American""]","No","Female","1894318.7000000011","null","","<p></p>","null","choice","dct","repulsion_2","1","microwave ovens","null","null","null","null","null","null","2","","","","","","","","","",""
"","","","","","choice_trial","survey-html-form","131","1662505","0.0-5.0-1.23","58","1","2025-04-11 14:22:57","bb671e3ae32f654b8954ea4c4635f915","","Mozilla/5.0 (X11; CrOS x86_64 14541.0.0) AppleWebKit/537.36 (KHTML, like Gecko) Chrome/134.0.0.0 Safari/537.36","WebKit","Chrome","134.0.0.0","ChromeOS","14541.0.0","https://hz8g1ckzuq.cognition.run/","en-US,en;q=0.9","8e6qlbk2n92kckn","45","[""Black or African-American""]","No","Female","1894318.7000000011","8423","","","{""product_choice"":""B""}","choice","dct","repulsion_2","1","microwave ovens","null","null","null","null","null","null","2","100","90","100","30","40","20","Warranty","Cooking power","",""
"","","","","","choice_trial_setup","html-keyboard-response","132","1662811","0.0-5.0-0.24","58","1","2025-04-11 14:22:57","bb671e3ae32f654b8954ea4c4635f915","","Mozilla/5.0 (X11; CrOS x86_64 14541.0.0) AppleWebKit/537.36 (KHTML, like Gecko) Chrome/134.0.0.0 Safari/537.36","WebKit","Chrome","134.0.0.0","ChromeOS","14541.0.0","https://hz8g1ckzuq.cognition.run/","en-US,en;q=0.9","8e6qlbk2n92kckn","45","[""Black or African-American""]","No","Female","1894318.7000000011","null","","<p></p>","null","choice","bww","catch","null","laptops","75","95","40","20","5","25","2","","","","","","","","","",""
"","","","","","choice_trial","survey-html-form","133","1666482","0.0-5.0-1.24","58","1","2025-04-11 14:22:57","bb671e3ae32f654b8954ea4c4635f915","","Mozilla/5.0 (X11; CrOS x86_64 14541.0.0) AppleWebKit/537.36 (KHTML, like Gecko) Chrome/134.0.0.0 Safari/537.36","WebKit","Chrome","134.0.0.0","ChromeOS","14541.0.0","https://hz8g1ckzuq.cognition.run/","en-US,en;q=0.9","8e6qlbk2n92kckn","45","[""Black or African-American""]","No","Female","1894318.7000000011","3663","","","{""product_choice"":""A""}","choice","bww","catch","null","laptops","75","95","40","20","5","25","2","null","null","null","null","null","null","Processing speed","Memory (RAM)","",""
"","","","","","choice_trial_setup","html-keyboard-response","134","1666797","0.0-5.0-0.25","58","1","2025-04-11 14:22:57","bb671e3ae32f654b8954ea4c4635f915","","Mozilla/5.0 (X11; CrOS x86_64 14541.0.0) AppleWebKit/537.36 (KHTML, like Gecko) Chrome/134.0.0.0 Safari/537.36","WebKit","Chrome","134.0.0.0","ChromeOS","14541.0.0","https://hz8g1ckzuq.cognition.run/","en-US,en;q=0.9","8e6qlbk2n92kckn","45","[""Black or African-American""]","No","Female","1894318.7000000011","null","","<p></p>","null","choice","ctd","attraction_2","2","washing machines","null","null","null","null","null","null","1","","","","","","","","","",""
"","","","","","choice_trial","survey-html-form","135","1675086","0.0-5.0-1.25","58","1","2025-04-11 14:22:57","bb671e3ae32f654b8954ea4c4635f915","","Mozilla/5.0 (X11; CrOS x86_64 14541.0.0) AppleWebKit/537.36 (KHTML, like Gecko) Chrome/134.0.0.0 Safari/537.36","WebKit","Chrome","134.0.0.0","ChromeOS","14541.0.0","https://hz8g1ckzuq.cognition.run/","en-US,en;q=0.9","8e6qlbk2n92kckn","45","[""Black or African-American""]","No","Female","1894318.7000000011","8281","","","{""product_choice"":""A""}","choice","ctd","attraction_2","2","washing machines","null","null","null","null","null","null","1","50","60","40","60","50","60","Average lifespan","Energy savings","",""
"","","","","","choice_trial_setup","html-keyboard-response","136","1675400","0.0-5.0-0.26","58","1","2025-04-11 14:22:57","bb671e3ae32f654b8954ea4c4635f915","","Mozilla/5.0 (X11; CrOS x86_64 14541.0.0) AppleWebKit/537.36 (KHTML, like Gecko) Chrome/134.0.0.0 Safari/537.36","WebKit","Chrome","134.0.0.0","ChromeOS","14541.0.0","https://hz8g1ckzuq.cognition.run/","en-US,en;q=0.9","8e6qlbk2n92kckn","45","[""Black or African-American""]","No","Female","1894318.7000000011","null","","<p></p>","null","choice","bww","catch","null","washing machines","75","55","25","25","35","30","1","","","","","","","","","",""
"","","","","","choice_trial","survey-html-form","137","1679594","0.0-5.0-1.26","58","1","2025-04-11 14:22:57","bb671e3ae32f654b8954ea4c4635f915","","Mozilla/5.0 (X11; CrOS x86_64 14541.0.0) AppleWebKit/537.36 (KHTML, like Gecko) Chrome/134.0.0.0 Safari/537.36","WebKit","Chrome","134.0.0.0","ChromeOS","14541.0.0","https://hz8g1ckzuq.cognition.run/","en-US,en;q=0.9","8e6qlbk2n92kckn","45","[""Black or African-American""]","No","Female","1894318.7000000011","4180","","","{""product_choice"":""A""}","choice","bww","catch","null","washing machines","75","55","25","25","35","30","1","null","null","null","null","null","null","Average lifespan","Energy savings","",""
"","","","","","choice_trial_setup","html-keyboard-response","138","1679903","0.0-5.0-0.27","58","1","2025-04-11 14:22:57","bb671e3ae32f654b8954ea4c4635f915","","Mozilla/5.0 (X11; CrOS x86_64 14541.0.0) AppleWebKit/537.36 (KHTML, like Gecko) Chrome/134.0.0.0 Safari/537.36","WebKit","Chrome","134.0.0.0","ChromeOS","14541.0.0","https://hz8g1ckzuq.cognition.run/","en-US,en;q=0.9","8e6qlbk2n92kckn","45","[""Black or African-American""]","No","Female","1894318.7000000011","null","","<p></p>","null","choice","dct","repulsion_1","2","laptops","null","null","null","null","null","null","1","","","","","","","","","",""
"","","","","","choice_trial","survey-html-form","139","1685807","0.0-5.0-1.27","58","1","2025-04-11 14:22:57","bb671e3ae32f654b8954ea4c4635f915","","Mozilla/5.0 (X11; CrOS x86_64 14541.0.0) AppleWebKit/537.36 (KHTML, like Gecko) Chrome/134.0.0.0 Safari/537.36","WebKit","Chrome","134.0.0.0","ChromeOS","14541.0.0","https://hz8g1ckzuq.cognition.run/","en-US,en;q=0.9","8e6qlbk2n92kckn","45","[""Black or African-American""]","No","Female","1894318.7000000011","5891","","","{""product_choice"":""B""}","choice","dct","repulsion_1","2","laptops","null","null","null","null","null","null","1","30","40","25","100","90","100","Processing speed","Memory (RAM)","",""
"","","","","","choice_trial_setup","html-keyboard-response","140","1686112","0.0-5.0-0.28","58","1","2025-04-11 14:22:57","bb671e3ae32f654b8954ea4c4635f915","","Mozilla/5.0 (X11; CrOS x86_64 14541.0.0) AppleWebKit/537.36 (KHTML, like Gecko) Chrome/134.0.0.0 Safari/537.36","WebKit","Chrome","134.0.0.0","ChromeOS","14541.0.0","https://hz8g1ckzuq.cognition.run/","en-US,en;q=0.9","8e6qlbk2n92kckn","45","[""Black or African-American""]","No","Female","1894318.7000000011","null","","<p></p>","null","choice","dct","repulsion_1","1","microwave ovens","null","null","null","null","null","null","1","","","","","","","","","",""
"","","","","","choice_trial","survey-html-form","141","1694002","0.0-5.0-1.28","58","1","2025-04-11 14:22:57","bb671e3ae32f654b8954ea4c4635f915","","Mozilla/5.0 (X11; CrOS x86_64 14541.0.0) AppleWebKit/537.36 (KHTML, like Gecko) Chrome/134.0.0.0 Safari/537.36","WebKit","Chrome","134.0.0.0","ChromeOS","14541.0.0","https://hz8g1ckzuq.cognition.run/","en-US,en;q=0.9","8e6qlbk2n92kckn","45","[""Black or African-American""]","No","Female","1894318.7000000011","7882","","","{""product_choice"":""B""}","choice","dct","repulsion_1","1","microwave ovens","null","null","null","null","null","null","1","100","90","100","30","40","25","Warranty","Cooking power","",""
"","","","","","choice_trial_setup","html-keyboard-response","142","1694319","0.0-5.0-0.29","58","1","2025-04-11 14:22:57","bb671e3ae32f654b8954ea4c4635f915","","Mozilla/5.0 (X11; CrOS x86_64 14541.0.0) AppleWebKit/537.36 (KHTML, like Gecko) Chrome/134.0.0.0 Safari/537.36","WebKit","Chrome","134.0.0.0","ChromeOS","14541.0.0","https://hz8g1ckzuq.cognition.run/","en-US,en;q=0.9","8e6qlbk2n92kckn","45","[""Black or African-American""]","No","Female","1894318.7000000011","null","","<p></p>","null","choice","dct","repulsion_1","1","laptops","null","null","null","null","null","null","1","","","","","","","","","",""
"","","","","","choice_trial","survey-html-form","143","1712399","0.0-5.0-1.29","58","1","2025-04-11 14:22:57","bb671e3ae32f654b8954ea4c4635f915","","Mozilla/5.0 (X11; CrOS x86_64 14541.0.0) AppleWebKit/537.36 (KHTML, like Gecko) Chrome/134.0.0.0 Safari/537.36","WebKit","Chrome","134.0.0.0","ChromeOS","14541.0.0","https://hz8g1ckzuq.cognition.run/","en-US,en;q=0.9","8e6qlbk2n92kckn","45","[""Black or African-American""]","No","Female","1894318.7000000011","18066","","","{""product_choice"":""B""}","choice","dct","repulsion_1","1","laptops","null","null","null","null","null","null","1","100","90","100","30","40","25","Processing speed","Memory (RAM)","",""
"","","","","","choice_trial_setup","html-keyboard-response","144","1712713","0.0-5.0-0.30","58","1","2025-04-11 14:22:57","bb671e3ae32f654b8954ea4c4635f915","","Mozilla/5.0 (X11; CrOS x86_64 14541.0.0) AppleWebKit/537.36 (KHTML, like Gecko) Chrome/134.0.0.0 Safari/537.36","WebKit","Chrome","134.0.0.0","ChromeOS","14541.0.0","https://hz8g1ckzuq.cognition.run/","en-US,en;q=0.9","8e6qlbk2n92kckn","45","[""Black or African-American""]","No","Female","1894318.7000000011","null","","<p></p>","null","choice","cdt","attraction_1","1","microwave ovens","null","null","null","null","null","null","1","","","","","","","","","",""
"","","","","","choice_trial","survey-html-form","145","1719254","0.0-5.0-1.30","58","1","2025-04-11 14:22:57","bb671e3ae32f654b8954ea4c4635f915","","Mozilla/5.0 (X11; CrOS x86_64 14541.0.0) AppleWebKit/537.36 (KHTML, like Gecko) Chrome/134.0.0.0 Safari/537.36","WebKit","Chrome","134.0.0.0","ChromeOS","14541.0.0","https://hz8g1ckzuq.cognition.run/","en-US,en;q=0.9","8e6qlbk2n92kckn","45","[""Black or African-American""]","No","Female","1894318.7000000011","6527","","","{""product_choice"":""A""}","choice","cdt","attraction_1","1","microwave ovens","null","null","null","null","null","null","1","60","50","60","50","60","45","Warranty","Cooking power","",""
"","","","","","choice_trial_setup","html-keyboard-response","146","1719559","0.0-5.0-0.31","58","1","2025-04-11 14:22:57","bb671e3ae32f654b8954ea4c4635f915","","Mozilla/5.0 (X11; CrOS x86_64 14541.0.0) AppleWebKit/537.36 (KHTML, like Gecko) Chrome/134.0.0.0 Safari/537.36","WebKit","Chrome","134.0.0.0","ChromeOS","14541.0.0","https://hz8g1ckzuq.cognition.run/","en-US,en;q=0.9","8e6qlbk2n92kckn","45","[""Black or African-American""]","No","Female","1894318.7000000011","null","","<p></p>","null","choice","tcd","repulsion_2","2","laptops","null","null","null","null","null","null","1","","","","","","","","","",""
"","","","","","choice_trial","survey-html-form","147","1731298","0.0-5.0-1.31","58","1","2025-04-11 14:22:57","bb671e3ae32f654b8954ea4c4635f915","","Mozilla/5.0 (X11; CrOS x86_64 14541.0.0) AppleWebKit/537.36 (KHTML, like Gecko) Chrome/134.0.0.0 Safari/537.36","WebKit","Chrome","134.0.0.0","ChromeOS","14541.0.0","https://hz8g1ckzuq.cognition.run/","en-US,en;q=0.9","8e6qlbk2n92kckn","45","[""Black or African-American""]","No","Female","1894318.7000000011","11730","","","{""product_choice"":""B""}","choice","tcd","repulsion_2","2","laptops","null","null","null","null","null","null","1","30","40","20","100","90","100","Processing speed","Memory (RAM)","",""
"","","","","","choice_trial_setup","html-keyboard-response","148","1731613","0.0-5.0-0.32","58","1","2025-04-11 14:22:57","bb671e3ae32f654b8954ea4c4635f915","","Mozilla/5.0 (X11; CrOS x86_64 14541.0.0) AppleWebKit/537.36 (KHTML, like Gecko) Chrome/134.0.0.0 Safari/537.36","WebKit","Chrome","134.0.0.0","ChromeOS","14541.0.0","https://hz8g1ckzuq.cognition.run/","en-US,en;q=0.9","8e6qlbk2n92kckn","45","[""Black or African-American""]","No","Female","1894318.7000000011","null","","<p></p>","null","choice","cdt","repulsion_1","1","televisions","null","null","null","null","null","null","2","","","","","","","","","",""
"","","","","","choice_trial","survey-html-form","149","1740742","0.0-5.0-1.32","58","1","2025-04-11 14:22:57","bb671e3ae32f654b8954ea4c4635f915","","Mozilla/5.0 (X11; CrOS x86_64 14541.0.0) AppleWebKit/537.36 (KHTML, like Gecko) Chrome/134.0.0.0 Safari/537.36","WebKit","Chrome","134.0.0.0","ChromeOS","14541.0.0","https://hz8g1ckzuq.cognition.run/","en-US,en;q=0.9","8e6qlbk2n92kckn","45","[""Black or African-American""]","No","Female","1894318.7000000011","9114","","","{""product_choice"":""A""}","choice","cdt","repulsion_1","1","televisions","null","null","null","null","null","null","2","100","90","100","30","40","25","Screen size","Average lifespan","",""
"","","","","","choice_trial_setup","html-keyboard-response","150","1741057","0.0-5.0-0.33","58","1","2025-04-11 14:22:57","bb671e3ae32f654b8954ea4c4635f915","","Mozilla/5.0 (X11; CrOS x86_64 14541.0.0) AppleWebKit/537.36 (KHTML, like Gecko) Chrome/134.0.0.0 Safari/537.36","WebKit","Chrome","134.0.0.0","ChromeOS","14541.0.0","https://hz8g1ckzuq.cognition.run/","en-US,en;q=0.9","8e6qlbk2n92kckn","45","[""Black or African-American""]","No","Female","1894318.7000000011","null","","<p></p>","null","choice","dct","repulsion_2","2","televisions","null","null","null","null","null","null","2","","","","","","","","","",""
"","","","","","choice_trial","survey-html-form","151","1747537","0.0-5.0-1.33","58","1","2025-04-11 14:22:57","bb671e3ae32f654b8954ea4c4635f915","","Mozilla/5.0 (X11; CrOS x86_64 14541.0.0) AppleWebKit/537.36 (KHTML, like Gecko) Chrome/134.0.0.0 Safari/537.36","WebKit","Chrome","134.0.0.0","ChromeOS","14541.0.0","https://hz8g1ckzuq.cognition.run/","en-US,en;q=0.9","8e6qlbk2n92kckn","45","[""Black or African-American""]","No","Female","1894318.7000000011","6465","","","{""product_choice"":""B""}","choice","dct","repulsion_2","2","televisions","null","null","null","null","null","null","2","30","40","20","100","90","100","Screen size","Average lifespan","",""
