"success","timeout","failed_images","failed_audio","failed_video","screen_id","trial_type","trial_index","time_elapsed","internal_node_id","run_id","condition","recorded_at","source_code_version","ip","user_agent","device","browser","browser_version","platform","platform_version","referer","accept_language","ppt_id","age","race","ethnicity","gender","exp_duration","rt","view_history","stimulus","response","phase","order","effect","t_high","category","d1_best","d2_best","d1_worst1","d2_worst1","d1_worst2","d2_worst2","first_dim","d1_t","d1_c","d1_d","d2_t","d2_c","d2_d","d1_name","d2_name","strategy_response","question_order"
"true","false","[]","[]","[]","img preload","preload","0","3447","0.0-0.0","59","1","2025-04-11 14:23:38","bb671e3ae32f654b8954ea4c4635f915","","Mozilla/5.0 (Windows NT 10.0; Win64; x64) AppleWebKit/537.36 (KHTML, like Gecko) Chrome/135.0.0.0 Safari/537.36","WebKit","Chrome","135.0.0.0","Windows","10.0","https://hz8g1ckzuq.cognition.run/","en-US,en;q=0.9","ame3ed7gg9ma8av","48","[""White""]","No","Male","2437323.5","","","","","","","","","","","","","","","","","","","","","","","","","",""
"true","","","","","","fullscreen","1","7938","0.0-1.0","59","1","2025-04-11 14:23:38","bb671e3ae32f654b8954ea4c4635f915","","Mozilla/5.0 (Windows NT 10.0; Win64; x64) AppleWebKit/537.36 (KHTML, like Gecko) Chrome/135.0.0.0 Safari/537.36","WebKit","Chrome","135.0.0.0","Windows","10.0","https://hz8g1ckzuq.cognition.run/","en-US,en;q=0.9","ame3ed7gg9ma8av","48","[""White""]","No","Male","2437323.5","3476","","","","","","","","","","","","","","","","","","","","","","","","",""
"","","","","","","instructions","2","258488","0.0-2.0","59","1","2025-04-11 14:23:38","bb671e3ae32f654b8954ea4c4635f915","","Mozilla/5.0 (Windows NT 10.0; Win64; x64) AppleWebKit/537.36 (KHTML, like Gecko) Chrome/135.0.0.0 Safari/537.36","WebKit","Chrome","135.0.0.0","Windows","10.0","https://hz8g1ckzuq.cognition.run/","en-US,en;q=0.9","ame3ed7gg9ma8av","48","[""White""]","No","Male","2437323.5","250548","[{""page_index"":0,""viewing_time"":3866},{""page_index"":1,""viewing_time"":6559},{""page_index"":2,""viewing_time"":5584},{""page_index"":3,""viewing_time"":5784},{""page_index"":4,""viewing_time"":4536},{""page_index"":5,""viewing_time"":11224},{""page_index"":6,""viewing_time"":13352},{""page_index"":7,""viewing_time"":186625},{""page_index"":8,""viewing_time"":10424},{""page_index"":9,""viewing_time"":2592}]","","","","","","","","","","","","","","","","","","","","","","","",""
"","","","","","rating_trial_setup","html-keyboard-response","3","258797","0.0-3.0-0.0","59","1","2025-04-11 14:23:38","bb671e3ae32f654b8954ea4c4635f915","","Mozilla/5.0 (Windows NT 10.0; Win64; x64) AppleWebKit/537.36 (KHTML, like Gecko) Chrome/135.0.0.0 Safari/537.36","WebKit","Chrome","135.0.0.0","Windows","10.0","https://hz8g1ckzuq.cognition.run/","en-US,en;q=0.9","ame3ed7gg9ma8av","48","[""White""]","No","Male","2437323.5","null","","<p></p>","null","rating","tcd","repulsion_1","1","laptops","null","null","null","null","null","null","1","","","","","","","","","",""
"","","","","","rating_trial","survey-html-form","4","317409","0.0-3.0-1.0","59","1","2025-04-11 14:23:38","bb671e3ae32f654b8954ea4c4635f915","","Mozilla/5.0 (Windows NT 10.0; Win64; x64) AppleWebKit/537.36 (KHTML, like Gecko) Chrome/135.0.0.0 Safari/537.36","WebKit","Chrome","135.0.0.0","Windows","10.0","https://hz8g1ckzuq.cognition.run/","en-US,en;q=0.9","ame3ed7gg9ma8av","48","[""White""]","No","Male","2437323.5","58590","","","{""price_1"":""300"",""price_2"":""200"",""price_3"":""150""}","rating","tcd","repulsion_1","1","laptops","null","null","null","null","null","null","1","100","90","100","30","40","25","Processing speed","Memory (RAM)","",""
"","","","","","rating_trial_setup","html-keyboard-response","5","317712","0.0-3.0-0.1","59","1","2025-04-11 14:23:38","bb671e3ae32f654b8954ea4c4635f915","","Mozilla/5.0 (Windows NT 10.0; Win64; x64) AppleWebKit/537.36 (KHTML, like Gecko) Chrome/135.0.0.0 Safari/537.36","WebKit","Chrome","135.0.0.0","Windows","10.0","https://hz8g1ckzuq.cognition.run/","en-US,en;q=0.9","ame3ed7gg9ma8av","48","[""White""]","No","Male","2437323.5","null","","<p></p>","null","rating","tcd","repulsion_2","1","washing machines","null","null","null","null","null","null","2","","","","","","","","","",""
"","","","","","rating_trial","survey-html-form","6","335345","0.0-3.0-1.1","59","1","2025-04-11 14:23:38","bb671e3ae32f654b8954ea4c4635f915","","Mozilla/5.0 (Windows NT 10.0; Win64; x64) AppleWebKit/537.36 (KHTML, like Gecko) Chrome/135.0.0.0 Safari/537.36","WebKit","Chrome","135.0.0.0","Windows","10.0","https://hz8g1ckzuq.cognition.run/","en-US,en;q=0.9","ame3ed7gg9ma8av","48","[""White""]","No","Male","2437323.5","17629","","","{""price_1"":""100"",""price_2"":""40"",""price_3"":""90""}","rating","tcd","repulsion_2","1","washing machines","null","null","null","null","null","null","2","100","90","100","30","40","20","Average lifespan","Energy savings","",""
"","","","","","rating_trial_setup","html-keyboard-response","7","335648","0.0-3.0-0.2","59","1","2025-04-11 14:23:38","bb671e3ae32f654b8954ea4c4635f915","","Mozilla/5.0 (Windows NT 10.0; Win64; x64) AppleWebKit/537.36 (KHTML, like Gecko) Chrome/135.0.0.0 Safari/537.36","WebKit","Chrome","135.0.0.0","Windows","10.0","https://hz8g1ckzuq.cognition.run/","en-US,en;q=0.9","ame3ed7gg9ma8av","48","[""White""]","No","Male","2437323.5","null","","<p></p>","null","rating","dct","attraction_1","1","laptops","null","null","null","null","null","null","1","","","","","","","","","",""
"","","","","","rating_trial","survey-html-form","8","358193","0.0-3.0-1.2","59","1","2025-04-11 14:23:38","bb671e3ae32f654b8954ea4c4635f915","","Mozilla/5.0 (Windows NT 10.0; Win64; x64) AppleWebKit/537.36 (KHTML, like Gecko) Chrome/135.0.0.0 Safari/537.36","WebKit","Chrome","135.0.0.0","Windows","10.0","https://hz8g1ckzuq.cognition.run/","en-US,en;q=0.9","ame3ed7gg9ma8av","48","[""White""]","No","Male","2437323.5","22538","","","{""price_1"":""250"",""price_2"":""100"",""price_3"":""100""}","rating","dct","attraction_1","1","laptops","null","null","null","null","null","null","1","60","50","60","50","60","45","Processing speed","Memory (RAM)","",""
"","","","","","rating_trial_setup","html-keyboard-response","9","358498","0.0-3.0-0.3","59","1","2025-04-11 14:23:38","bb671e3ae32f654b8954ea4c4635f915","","Mozilla/5.0 (Windows NT 10.0; Win64; x64) AppleWebKit/537.36 (KHTML, like Gecko) Chrome/135.0.0.0 Safari/537.36","WebKit","Chrome","135.0.0.0","Windows","10.0","https://hz8g1ckzuq.cognition.run/","en-US,en;q=0.9","ame3ed7gg9ma8av","48","[""White""]","No","Male","2437323.5","null","","<p></p>","null","rating","cdt","attraction_2","2","laptops","null","null","null","null","null","null","2","","","","","","","","","",""
"","","","","","rating_trial","survey-html-form","10","382434","0.0-3.0-1.3","59","1","2025-04-11 14:23:38","bb671e3ae32f654b8954ea4c4635f915","","Mozilla/5.0 (Windows NT 10.0; Win64; x64) AppleWebKit/537.36 (KHTML, like Gecko) Chrome/135.0.0.0 Safari/537.36","WebKit","Chrome","135.0.0.0","Windows","10.0","https://hz8g1ckzuq.cognition.run/","en-US,en;q=0.9","ame3ed7gg9ma8av","48","[""White""]","No","Male","2437323.5","23934","","","{""price_1"":""150"",""price_2"":""100"",""price_3"":""150""}","rating","cdt","attraction_2","2","laptops","null","null","null","null","null","null","2","50","60","40","60","50","60","Processing speed","Memory (RAM)","",""
"","","","","","rating_trial_setup","html-keyboard-response","11","382736","0.0-3.0-0.4","59","1","2025-04-11 14:23:38","bb671e3ae32f654b8954ea4c4635f915","","Mozilla/5.0 (Windows NT 10.0; Win64; x64) AppleWebKit/537.36 (KHTML, like Gecko) Chrome/135.0.0.0 Safari/537.36","WebKit","Chrome","135.0.0.0","Windows","10.0","https://hz8g1ckzuq.cognition.run/","en-US,en;q=0.9","ame3ed7gg9ma8av","48","[""White""]","No","Male","2437323.5","null","","<p></p>","null","rating","tcd","repulsion_1","2","microwave ovens","null","null","null","null","null","null","1","","","","","","","","","",""
"","","","","","rating_trial","survey-html-form","12","397930","0.0-3.0-1.4","59","1","2025-04-11 14:23:38","bb671e3ae32f654b8954ea4c4635f915","","Mozilla/5.0 (Windows NT 10.0; Win64; x64) AppleWebKit/537.36 (KHTML, like Gecko) Chrome/135.0.0.0 Safari/537.36","WebKit","Chrome","135.0.0.0","Windows","10.0","https://hz8g1ckzuq.cognition.run/","en-US,en;q=0.9","ame3ed7gg9ma8av","48","[""White""]","No","Male","2437323.5","15189","","","{""price_1"":""15"",""price_2"":""10"",""price_3"":""15""}","rating","tcd","repulsion_1","2","microwave ovens","null","null","null","null","null","null","1","30","40","25","100","90","100","Warranty","Cooking power","",""
"","","","","","rating_trial_setup","html-keyboard-response","13","398232","0.0-3.0-0.5","59","1","2025-04-11 14:23:38","bb671e3ae32f654b8954ea4c4635f915","","Mozilla/5.0 (Windows NT 10.0; Win64; x64) AppleWebKit/537.36 (KHTML, like Gecko) Chrome/135.0.0.0 Safari/537.36","WebKit","Chrome","135.0.0.0","Windows","10.0","https://hz8g1ckzuq.cognition.run/","en-US,en;q=0.9","ame3ed7gg9ma8av","48","[""White""]","No","Male","2437323.5","null","","<p></p>","null","rating","cdt","attraction_2","2","microwave ovens","null","null","null","null","null","null","2","","","","","","","","","",""
"","","","","","rating_trial","survey-html-form","14","418203","0.0-3.0-1.5","59","1","2025-04-11 14:23:38","bb671e3ae32f654b8954ea4c4635f915","","Mozilla/5.0 (Windows NT 10.0; Win64; x64) AppleWebKit/537.36 (KHTML, like Gecko) Chrome/135.0.0.0 Safari/537.36","WebKit","Chrome","135.0.0.0","Windows","10.0","https://hz8g1ckzuq.cognition.run/","en-US,en;q=0.9","ame3ed7gg9ma8av","48","[""White""]","No","Male","2437323.5","19966","","","{""price_1"":""20"",""price_2"":""15"",""price_3"":""20""}","rating","cdt","attraction_2","2","microwave ovens","null","null","null","null","null","null","2","50","60","40","60","50","60","Warranty","Cooking power","",""
"","","","","","rating_trial_setup","html-keyboard-response","15","418508","0.0-3.0-0.6","59","1","2025-04-11 14:23:38","bb671e3ae32f654b8954ea4c4635f915","","Mozilla/5.0 (Windows NT 10.0; Win64; x64) AppleWebKit/537.36 (KHTML, like Gecko) Chrome/135.0.0.0 Safari/537.36","WebKit","Chrome","135.0.0.0","Windows","10.0","https://hz8g1ckzuq.cognition.run/","en-US,en;q=0.9","ame3ed7gg9ma8av","48","[""White""]","No","Male","2437323.5","null","","<p></p>","null","rating","dtc","repulsion_1","2","laptops","null","null","null","null","null","null","2","","","","","","","","","",""
"","","","","","rating_trial","survey-html-form","16","434098","0.0-3.0-1.6","59","1","2025-04-11 14:23:38","bb671e3ae32f654b8954ea4c4635f915","","Mozilla/5.0 (Windows NT 10.0; Win64; x64) AppleWebKit/537.36 (KHTML, like Gecko) Chrome/135.0.0.0 Safari/537.36","WebKit","Chrome","135.0.0.0","Windows","10.0","https://hz8g1ckzuq.cognition.run/","en-US,en;q=0.9","ame3ed7gg9ma8av","48","[""White""]","No","Male","2437323.5","15587","","","{""price_1"":""150"",""price_2"":""100"",""price_3"":""150""}","rating","dtc","repulsion_1","2","laptops","null","null","null","null","null","null","2","30","40","25","100","90","100","Processing speed","Memory (RAM)","",""
"","","","","","rating_trial_setup","html-keyboard-response","17","434400","0.0-3.0-0.7","59","1","2025-04-11 14:23:38","bb671e3ae32f654b8954ea4c4635f915","","Mozilla/5.0 (Windows NT 10.0; Win64; x64) AppleWebKit/537.36 (KHTML, like Gecko) Chrome/135.0.0.0 Safari/537.36","WebKit","Chrome","135.0.0.0","Windows","10.0","https://hz8g1ckzuq.cognition.run/","en-US,en;q=0.9","ame3ed7gg9ma8av","48","[""White""]","No","Male","2437323.5","null","","<p></p>","null","rating","bww","catch","null","washing machines","85","55","40","40","35","15","2","","","","","","","","","",""
"","","","","","rating_trial","survey-html-form","18","451778","0.0-3.0-1.7","59","1","2025-04-11 14:23:38","bb671e3ae32f654b8954ea4c4635f915","","Mozilla/5.0 (Windows NT 10.0; Win64; x64) AppleWebKit/537.36 (KHTML, like Gecko) Chrome/135.0.0.0 Safari/537.36","WebKit","Chrome","135.0.0.0","Windows","10.0","https://hz8g1ckzuq.cognition.run/","en-US,en;q=0.9","ame3ed7gg9ma8av","48","[""White""]","No","Male","2437323.5","17376","","","{""price_1"":""700"",""price_2"":""500"",""price_3"":""700""}","rating","bww","catch","null","washing machines","85","55","40","40","35","15","2","null","null","null","null","null","null","Average lifespan","Energy savings","",""
"","","","","","rating_trial_setup","html-keyboard-response","19","452080","0.0-3.0-0.8","59","1","2025-04-11 14:23:38","bb671e3ae32f654b8954ea4c4635f915","","Mozilla/5.0 (Windows NT 10.0; Win64; x64) AppleWebKit/537.36 (KHTML, like Gecko) Chrome/135.0.0.0 Safari/537.36","WebKit","Chrome","135.0.0.0","Windows","10.0","https://hz8g1ckzuq.cognition.run/","en-US,en;q=0.9","ame3ed7gg9ma8av","48","[""White""]","No","Male","2437323.5","null","","<p></p>","null","rating","ctd","repulsion_2","2","microwave ovens","null","null","null","null","null","null","2","","","","","","","","","",""
"","","","","","rating_trial","survey-html-form","20","476330","0.0-3.0-1.8","59","1","2025-04-11 14:23:38","bb671e3ae32f654b8954ea4c4635f915","","Mozilla/5.0 (Windows NT 10.0; Win64; x64) AppleWebKit/537.36 (KHTML, like Gecko) Chrome/135.0.0.0 Safari/537.36","WebKit","Chrome","135.0.0.0","Windows","10.0","https://hz8g1ckzuq.cognition.run/","en-US,en;q=0.9","ame3ed7gg9ma8av","48","[""White""]","No","Male","2437323.5","24244","","","{""price_1"":""15"",""price_2"":""20"",""price_3"":""20""}","rating","ctd","repulsion_2","2","microwave ovens","null","null","null","null","null","null","2","30","40","20","100","90","100","Warranty","Cooking power","",""
"","","","","","rating_trial_setup","html-keyboard-response","21","476634","0.0-3.0-0.9","59","1","2025-04-11 14:23:38","bb671e3ae32f654b8954ea4c4635f915","","Mozilla/5.0 (Windows NT 10.0; Win64; x64) AppleWebKit/537.36 (KHTML, like Gecko) Chrome/135.0.0.0 Safari/537.36","WebKit","Chrome","135.0.0.0","Windows","10.0","https://hz8g1ckzuq.cognition.run/","en-US,en;q=0.9","ame3ed7gg9ma8av","48","[""White""]","No","Male","2437323.5","null","","<p></p>","null","rating","dct","attraction_1","1","microwave ovens","null","null","null","null","null","null","2","","","","","","","","","",""
"","","","","","rating_trial","survey-html-form","22","498394","0.0-3.0-1.9","59","1","2025-04-11 14:23:38","bb671e3ae32f654b8954ea4c4635f915","","Mozilla/5.0 (Windows NT 10.0; Win64; x64) AppleWebKit/537.36 (KHTML, like Gecko) Chrome/135.0.0.0 Safari/537.36","WebKit","Chrome","135.0.0.0","Windows","10.0","https://hz8g1ckzuq.cognition.run/","en-US,en;q=0.9","ame3ed7gg9ma8av","48","[""White""]","No","Male","2437323.5","21758","","","{""price_1"":""20"",""price_2"":""15"",""price_3"":""15""}","rating","dct","attraction_1","1","microwave ovens","null","null","null","null","null","null","2","60","50","60","50","60","45","Warranty","Cooking power","",""
"","","","","","rating_trial_setup","html-keyboard-response","23","498697","0.0-3.0-0.10","59","1","2025-04-11 14:23:38","bb671e3ae32f654b8954ea4c4635f915","","Mozilla/5.0 (Windows NT 10.0; Win64; x64) AppleWebKit/537.36 (KHTML, like Gecko) Chrome/135.0.0.0 Safari/537.36","WebKit","Chrome","135.0.0.0","Windows","10.0","https://hz8g1ckzuq.cognition.run/","en-US,en;q=0.9","ame3ed7gg9ma8av","48","[""White""]","No","Male","2437323.5","null","","<p></p>","null","rating","tdc","attraction_1","1","washing machines","null","null","null","null","null","null","2","","","","","","","","","",""
"","","","","","rating_trial","survey-html-form","24","511683","0.0-3.0-1.10","59","1","2025-04-11 14:23:38","bb671e3ae32f654b8954ea4c4635f915","","Mozilla/5.0 (Windows NT 10.0; Win64; x64) AppleWebKit/537.36 (KHTML, like Gecko) Chrome/135.0.0.0 Safari/537.36","WebKit","Chrome","135.0.0.0","Windows","10.0","https://hz8g1ckzuq.cognition.run/","en-US,en;q=0.9","ame3ed7gg9ma8av","48","[""White""]","No","Male","2437323.5","12981","","","{""price_1"":""700"",""price_2"":""700"",""price_3"":""500""}","rating","tdc","attraction_1","1","washing machines","null","null","null","null","null","null","2","60","50","60","50","60","45","Average lifespan","Energy savings","",""
"","","","","","rating_trial_setup","html-keyboard-response","25","511985","0.0-3.0-0.11","59","1","2025-04-11 14:23:38","bb671e3ae32f654b8954ea4c4635f915","","Mozilla/5.0 (Windows NT 10.0; Win64; x64) AppleWebKit/537.36 (KHTML, like Gecko) Chrome/135.0.0.0 Safari/537.36","WebKit","Chrome","135.0.0.0","Windows","10.0","https://hz8g1ckzuq.cognition.run/","en-US,en;q=0.9","ame3ed7gg9ma8av","48","[""White""]","No","Male","2437323.5","null","","<p></p>","null","rating","wbw","catch","null","televisions","55","90","30","5","10","25","1","","","","","","","","","",""
"","","","","","rating_trial","survey-html-form","26","531195","0.0-3.0-1.11","59","1","2025-04-11 14:23:38","bb671e3ae32f654b8954ea4c4635f915","","Mozilla/5.0 (Windows NT 10.0; Win64; x64) AppleWebKit/537.36 (KHTML, like Gecko) Chrome/135.0.0.0 Safari/537.36","WebKit","Chrome","135.0.0.0","Windows","10.0","https://hz8g1ckzuq.cognition.run/","en-US,en;q=0.9","ame3ed7gg9ma8av","48","[""White""]","No","Male","2437323.5","19204","","","{""price_1"":""30"",""price_2"":""150"",""price_3"":""70""}","rating","wbw","catch","null","televisions","55","90","30","5","10","25","1","null","null","null","null","null","null","Screen size","Average lifespan","",""
"","","","","","rating_trial_setup","html-keyboard-response","27","531498","0.0-3.0-0.12","59","1","2025-04-11 14:23:38","bb671e3ae32f654b8954ea4c4635f915","","Mozilla/5.0 (Windows NT 10.0; Win64; x64) AppleWebKit/537.36 (KHTML, like Gecko) Chrome/135.0.0.0 Safari/537.36","WebKit","Chrome","135.0.0.0","Windows","10.0","https://hz8g1ckzuq.cognition.run/","en-US,en;q=0.9","ame3ed7gg9ma8av","48","[""White""]","No","Male","2437323.5","null","","<p></p>","null","rating","wwb","catch","null","washing machines","80","90","40","5","35","50","1","","","","","","","","","",""
"","","","","","rating_trial","survey-html-form","28","571579","0.0-3.0-1.12","59","1","2025-04-11 14:23:38","bb671e3ae32f654b8954ea4c4635f915","","Mozilla/5.0 (Windows NT 10.0; Win64; x64) AppleWebKit/537.36 (KHTML, like Gecko) Chrome/135.0.0.0 Safari/537.36","WebKit","Chrome","135.0.0.0","Windows","10.0","https://hz8g1ckzuq.cognition.run/","en-US,en;q=0.9","ame3ed7gg9ma8av","48","[""White""]","No","Male","2437323.5","40076","","","{""price_1"":""40"",""price_2"":""100"",""price_3"":""700""}","rating","wwb","catch","null","washing machines","80","90","40","5","35","50","1","null","null","null","null","null","null","Average lifespan","Energy savings","",""
"","","","","","rating_trial_setup","html-keyboard-response","29","571882","0.0-3.0-0.13","59","1","2025-04-11 14:23:38","bb671e3ae32f654b8954ea4c4635f915","","Mozilla/5.0 (Windows NT 10.0; Win64; x64) AppleWebKit/537.36 (KHTML, like Gecko) Chrome/135.0.0.0 Safari/537.36","WebKit","Chrome","135.0.0.0","Windows","10.0","https://hz8g1ckzuq.cognition.run/","en-US,en;q=0.9","ame3ed7gg9ma8av","48","[""White""]","No","Male","2437323.5","null","","<p></p>","null","rating","wwb","catch","null","televisions","85","90","30","15","25","50","1","","","","","","","","","",""
"","","","","","rating_trial","survey-html-form","30","582739","0.0-3.0-1.13","59","1","2025-04-11 14:23:38","bb671e3ae32f654b8954ea4c4635f915","","Mozilla/5.0 (Windows NT 10.0; Win64; x64) AppleWebKit/537.36 (KHTML, like Gecko) Chrome/135.0.0.0 Safari/537.36","WebKit","Chrome","135.0.0.0","Windows","10.0","https://hz8g1ckzuq.cognition.run/","en-US,en;q=0.9","ame3ed7gg9ma8av","48","[""White""]","No","Male","2437323.5","10850","","","{""price_1"":""50"",""price_2"":""70"",""price_3"":""100""}","rating","wwb","catch","null","televisions","85","90","30","15","25","50","1","null","null","null","null","null","null","Screen size","Average lifespan","",""
"","","","","","rating_trial_setup","html-keyboard-response","31","583043","0.0-3.0-0.14","59","1","2025-04-11 14:23:38","bb671e3ae32f654b8954ea4c4635f915","","Mozilla/5.0 (Windows NT 10.0; Win64; x64) AppleWebKit/537.36 (KHTML, like Gecko) Chrome/135.0.0.0 Safari/537.36","WebKit","Chrome","135.0.0.0","Windows","10.0","https://hz8g1ckzuq.cognition.run/","en-US,en;q=0.9","ame3ed7gg9ma8av","48","[""White""]","No","Male","2437323.5","null","","<p></p>","null","rating","dct","attraction_2","2","washing machines","null","null","null","null","null","null","1","","","","","","","","","",""
"","","","","","rating_trial","survey-html-form","32","599203","0.0-3.0-1.14","59","1","2025-04-11 14:23:38","bb671e3ae32f654b8954ea4c4635f915","","Mozilla/5.0 (Windows NT 10.0; Win64; x64) AppleWebKit/537.36 (KHTML, like Gecko) Chrome/135.0.0.0 Safari/537.36","WebKit","Chrome","135.0.0.0","Windows","10.0","https://hz8g1ckzuq.cognition.run/","en-US,en;q=0.9","ame3ed7gg9ma8av","48","[""White""]","No","Male","2437323.5","16158","","","{""price_1"":""700"",""price_2"":""500"",""price_3"":""700""}","rating","dct","attraction_2","2","washing machines","null","null","null","null","null","null","1","50","60","40","60","50","60","Average lifespan","Energy savings","",""
"","","","","","rating_trial_setup","html-keyboard-response","33","599508","0.0-3.0-0.15","59","1","2025-04-11 14:23:38","bb671e3ae32f654b8954ea4c4635f915","","Mozilla/5.0 (Windows NT 10.0; Win64; x64) AppleWebKit/537.36 (KHTML, like Gecko) Chrome/135.0.0.0 Safari/537.36","WebKit","Chrome","135.0.0.0","Windows","10.0","https://hz8g1ckzuq.cognition.run/","en-US,en;q=0.9","ame3ed7gg9ma8av","48","[""White""]","No","Male","2437323.5","null","","<p></p>","null","rating","tcd","attraction_1","2","televisions","null","null","null","null","null","null","1","","","","","","","","","",""
"","","","","","rating_trial","survey-html-form","34","616284","0.0-3.0-1.15","59","1","2025-04-11 14:23:38","bb671e3ae32f654b8954ea4c4635f915","","Mozilla/5.0 (Windows NT 10.0; Win64; x64) AppleWebKit/537.36 (KHTML, like Gecko) Chrome/135.0.0.0 Safari/537.36","WebKit","Chrome","135.0.0.0","Windows","10.0","https://hz8g1ckzuq.cognition.run/","en-US,en;q=0.9","ame3ed7gg9ma8av","48","[""White""]","No","Male","2437323.5","16770","","","{""price_1"":""600"",""price_2"":""600"",""price_3"":""600""}","rating","tcd","attraction_1","2","televisions","null","null","null","null","null","null","1","50","60","45","60","50","60","Screen size","Average lifespan","",""
"","","","","","rating_trial_setup","html-keyboard-response","35","616588","0.0-3.0-0.16","59","1","2025-04-11 14:23:38","bb671e3ae32f654b8954ea4c4635f915","","Mozilla/5.0 (Windows NT 10.0; Win64; x64) AppleWebKit/537.36 (KHTML, like Gecko) Chrome/135.0.0.0 Safari/537.36","WebKit","Chrome","135.0.0.0","Windows","10.0","https://hz8g1ckzuq.cognition.run/","en-US,en;q=0.9","ame3ed7gg9ma8av","48","[""White""]","No","Male","2437323.5","null","","<p></p>","null","rating","tcd","repulsion_2","2","televisions","null","null","null","null","null","null","1","","","","","","","","","",""
"","","","","","rating_trial","survey-html-form","36","637171","0.0-3.0-1.16","59","1","2025-04-11 14:23:38","bb671e3ae32f654b8954ea4c4635f915","","Mozilla/5.0 (Windows NT 10.0; Win64; x64) AppleWebKit/537.36 (KHTML, like Gecko) Chrome/135.0.0.0 Safari/537.36","WebKit","Chrome","135.0.0.0","Windows","10.0","https://hz8g1ckzuq.cognition.run/","en-US,en;q=0.9","ame3ed7gg9ma8av","48","[""White""]","No","Male","2437323.5","20580","","","{""price_1"":""700"",""price_2"":""500"",""price_3"":""700""}","rating","tcd","repulsion_2","2","televisions","null","null","null","null","null","null","1","30","40","20","100","90","100","Screen size","Average lifespan","",""
"","","","","","rating_trial_setup","html-keyboard-response","37","637474","0.0-3.0-0.17","59","1","2025-04-11 14:23:38","bb671e3ae32f654b8954ea4c4635f915","","Mozilla/5.0 (Windows NT 10.0; Win64; x64) AppleWebKit/537.36 (KHTML, like Gecko) Chrome/135.0.0.0 Safari/537.36","WebKit","Chrome","135.0.0.0","Windows","10.0","https://hz8g1ckzuq.cognition.run/","en-US,en;q=0.9","ame3ed7gg9ma8av","48","[""White""]","No","Male","2437323.5","null","","<p></p>","null","rating","cdt","attraction_2","1","televisions","null","null","null","null","null","null","1","","","","","","","","","",""
"","","","","","rating_trial","survey-html-form","38","828957","0.0-3.0-1.17","59","1","2025-04-11 14:23:38","bb671e3ae32f654b8954ea4c4635f915","","Mozilla/5.0 (Windows NT 10.0; Win64; x64) AppleWebKit/537.36 (KHTML, like Gecko) Chrome/135.0.0.0 Safari/537.36","WebKit","Chrome","135.0.0.0","Windows","10.0","https://hz8g1ckzuq.cognition.run/","en-US,en;q=0.9","ame3ed7gg9ma8av","48","[""White""]","No","Male","2437323.5","191479","","","{""price_1"":""400"",""price_2"":""500"",""price_3"":""600""}","rating","cdt","attraction_2","1","televisions","null","null","null","null","null","null","1","60","50","60","50","60","40","Screen size","Average lifespan","",""
"","","","","","rating_trial_setup","html-keyboard-response","39","829259","0.0-3.0-0.18","59","1","2025-04-11 14:23:38","bb671e3ae32f654b8954ea4c4635f915","","Mozilla/5.0 (Windows NT 10.0; Win64; x64) AppleWebKit/537.36 (KHTML, like Gecko) Chrome/135.0.0.0 Safari/537.36","WebKit","Chrome","135.0.0.0","Windows","10.0","https://hz8g1ckzuq.cognition.run/","en-US,en;q=0.9","ame3ed7gg9ma8av","48","[""White""]","No","Male","2437323.5","null","","<p></p>","null","rating","dtc","attraction_2","2","televisions","null","null","null","null","null","null","2","","","","","","","","","",""
"","","","","","rating_trial","survey-html-form","40","848525","0.0-3.0-1.18","59","1","2025-04-11 14:23:38","bb671e3ae32f654b8954ea4c4635f915","","Mozilla/5.0 (Windows NT 10.0; Win64; x64) AppleWebKit/537.36 (KHTML, like Gecko) Chrome/135.0.0.0 Safari/537.36","WebKit","Chrome","135.0.0.0","Windows","10.0","https://hz8g1ckzuq.cognition.run/","en-US,en;q=0.9","ame3ed7gg9ma8av","48","[""White""]","No","Male","2437323.5","19258","","","{""price_1"":""600"",""price_2"":""560"",""price_3"":""700""}","rating","dtc","attraction_2","2","televisions","null","null","null","null","null","null","2","50","60","40","60","50","60","Screen size","Average lifespan","",""
"","","","","","rating_trial_setup","html-keyboard-response","41","848828","0.0-3.0-0.19","59","1","2025-04-11 14:23:38","bb671e3ae32f654b8954ea4c4635f915","","Mozilla/5.0 (Windows NT 10.0; Win64; x64) AppleWebKit/537.36 (KHTML, like Gecko) Chrome/135.0.0.0 Safari/537.36","WebKit","Chrome","135.0.0.0","Windows","10.0","https://hz8g1ckzuq.cognition.run/","en-US,en;q=0.9","ame3ed7gg9ma8av","48","[""White""]","No","Male","2437323.5","null","","<p></p>","null","rating","tcd","attraction_1","2","washing machines","null","null","null","null","null","null","2","","","","","","","","","",""
"","","","","","rating_trial","survey-html-form","42","860805","0.0-3.0-1.19","59","1","2025-04-11 14:23:38","bb671e3ae32f654b8954ea4c4635f915","","Mozilla/5.0 (Windows NT 10.0; Win64; x64) AppleWebKit/537.36 (KHTML, like Gecko) Chrome/135.0.0.0 Safari/537.36","WebKit","Chrome","135.0.0.0","Windows","10.0","https://hz8g1ckzuq.cognition.run/","en-US,en;q=0.9","ame3ed7gg9ma8av","48","[""White""]","No","Male","2437323.5","11974","","","{""price_1"":""700"",""price_2"":""650"",""price_3"":""700""}","rating","tcd","attraction_1","2","washing machines","null","null","null","null","null","null","2","50","60","45","60","50","60","Average lifespan","Energy savings","",""
"","","","","","rating_trial_setup","html-keyboard-response","43","861109","0.0-3.0-0.20","59","1","2025-04-11 14:23:38","bb671e3ae32f654b8954ea4c4635f915","","Mozilla/5.0 (Windows NT 10.0; Win64; x64) AppleWebKit/537.36 (KHTML, like Gecko) Chrome/135.0.0.0 Safari/537.36","WebKit","Chrome","135.0.0.0","Windows","10.0","https://hz8g1ckzuq.cognition.run/","en-US,en;q=0.9","ame3ed7gg9ma8av","48","[""White""]","No","Male","2437323.5","null","","<p></p>","null","rating","dtc","attraction_1","2","laptops","null","null","null","null","null","null","1","","","","","","","","","",""
"","","","","","rating_trial","survey-html-form","44","888534","0.0-3.0-1.20","59","1","2025-04-11 14:23:38","bb671e3ae32f654b8954ea4c4635f915","","Mozilla/5.0 (Windows NT 10.0; Win64; x64) AppleWebKit/537.36 (KHTML, like Gecko) Chrome/135.0.0.0 Safari/537.36","WebKit","Chrome","135.0.0.0","Windows","10.0","https://hz8g1ckzuq.cognition.run/","en-US,en;q=0.9","ame3ed7gg9ma8av","48","[""White""]","No","Male","2437323.5","27416","","","{""price_1"":""80"",""price_2"":""70"",""price_3"":""69""}","rating","dtc","attraction_1","2","laptops","null","null","null","null","null","null","1","50","60","45","60","50","60","Processing speed","Memory (RAM)","",""
"","","","","","rating_trial_setup","html-keyboard-response","45","888837","0.0-3.0-0.21","59","1","2025-04-11 14:23:38","bb671e3ae32f654b8954ea4c4635f915","","Mozilla/5.0 (Windows NT 10.0; Win64; x64) AppleWebKit/537.36 (KHTML, like Gecko) Chrome/135.0.0.0 Safari/537.36","WebKit","Chrome","135.0.0.0","Windows","10.0","https://hz8g1ckzuq.cognition.run/","en-US,en;q=0.9","ame3ed7gg9ma8av","48","[""White""]","No","Male","2437323.5","null","","<p></p>","null","rating","dtc","attraction_1","1","televisions","null","null","null","null","null","null","1","","","","","","","","","",""
"","","","","","rating_trial","survey-html-form","46","1298105","0.0-3.0-1.21","59","1","2025-04-11 14:23:38","bb671e3ae32f654b8954ea4c4635f915","","Mozilla/5.0 (Windows NT 10.0; Win64; x64) AppleWebKit/537.36 (KHTML, like Gecko) Chrome/135.0.0.0 Safari/537.36","WebKit","Chrome","135.0.0.0","Windows","10.0","https://hz8g1ckzuq.cognition.run/","en-US,en;q=0.9","ame3ed7gg9ma8av","48","[""White""]","No","Male","2437323.5","409263","","","{""price_1"":""250"",""price_2"":""150"",""price_3"":""100""}","rating","dtc","attraction_1","1","televisions","null","null","null","null","null","null","1","60","50","60","50","60","45","Screen size","Average lifespan","",""
"","","","","","rating_trial_setup","html-keyboard-response","47","1298409","0.0-3.0-0.22","59","1","2025-04-11 14:23:38","bb671e3ae32f654b8954ea4c4635f915","","Mozilla/5.0 (Windows NT 10.0; Win64; x64) AppleWebKit/537.36 (KHTML, like Gecko) Chrome/135.0.0.0 Safari/537.36","WebKit","Chrome","135.0.0.0","Windows","10.0","https://hz8g1ckzuq.cognition.run/","en-US,en;q=0.9","ame3ed7gg9ma8av","48","[""White""]","No","Male","2437323.5","null","","<p></p>","null","rating","ctd","repulsion_2","1","microwave ovens","null","null","null","null","null","null","2","","","","","","","","","",""
"","","","","","rating_trial","survey-html-form","48","1312118","0.0-3.0-1.22","59","1","2025-04-11 14:23:38","bb671e3ae32f654b8954ea4c4635f915","","Mozilla/5.0 (Windows NT 10.0; Win64; x64) AppleWebKit/537.36 (KHTML, like Gecko) Chrome/135.0.0.0 Safari/537.36","WebKit","Chrome","135.0.0.0","Windows","10.0","https://hz8g1ckzuq.cognition.run/","en-US,en;q=0.9","ame3ed7gg9ma8av","48","[""White""]","No","Male","2437323.5","13705","","","{""price_1"":""15"",""price_2"":""30"",""price_3"":""30""}","rating","ctd","repulsion_2","1","microwave ovens","null","null","null","null","null","null","2","100","90","100","30","40","20","Warranty","Cooking power","",""
"","","","","","rating_trial_setup","html-keyboard-response","49","1312423","0.0-3.0-0.23","59","1","2025-04-11 14:23:38","bb671e3ae32f654b8954ea4c4635f915","","Mozilla/5.0 (Windows NT 10.0; Win64; x64) AppleWebKit/537.36 (KHTML, like Gecko) Chrome/135.0.0.0 Safari/537.36","WebKit","Chrome","135.0.0.0","Windows","10.0","https://hz8g1ckzuq.cognition.run/","en-US,en;q=0.9","ame3ed7gg9ma8av","48","[""White""]","No","Male","2437323.5","null","","<p></p>","null","rating","ctd","repulsion_1","1","televisions","null","null","null","null","null","null","2","","","","","","","","","",""
"","","","","","rating_trial","survey-html-form","50","1326737","0.0-3.0-1.23","59","1","2025-04-11 14:23:38","bb671e3ae32f654b8954ea4c4635f915","","Mozilla/5.0 (Windows NT 10.0; Win64; x64) AppleWebKit/537.36 (KHTML, like Gecko) Chrome/135.0.0.0 Safari/537.36","WebKit","Chrome","135.0.0.0","Windows","10.0","https://hz8g1ckzuq.cognition.run/","en-US,en;q=0.9","ame3ed7gg9ma8av","48","[""White""]","No","Male","2437323.5","14311","","","{""price_1"":""570"",""price_2"":""600"",""price_3"":""550""}","rating","ctd","repulsion_1","1","televisions","null","null","null","null","null","null","2","100","90","100","30","40","25","Screen size","Average lifespan","",""
"","","","","","rating_trial_setup","html-keyboard-response","51","1327040","0.0-3.0-0.24","59","1","2025-04-11 14:23:38","bb671e3ae32f654b8954ea4c4635f915","","Mozilla/5.0 (Windows NT 10.0; Win64; x64) AppleWebKit/537.36 (KHTML, like Gecko) Chrome/135.0.0.0 Safari/537.36","WebKit","Chrome","135.0.0.0","Windows","10.0","https://hz8g1ckzuq.cognition.run/","en-US,en;q=0.9","ame3ed7gg9ma8av","48","[""White""]","No","Male","2437323.5","null","","<p></p>","null","rating","ctd","repulsion_2","2","laptops","null","null","null","null","null","null","1","","","","","","","","","",""
"","","","","","rating_trial","survey-html-form","52","1344437","0.0-3.0-1.24","59","1","2025-04-11 14:23:38","bb671e3ae32f654b8954ea4c4635f915","","Mozilla/5.0 (Windows NT 10.0; Win64; x64) AppleWebKit/537.36 (KHTML, like Gecko) Chrome/135.0.0.0 Safari/537.36","WebKit","Chrome","135.0.0.0","Windows","10.0","https://hz8g1ckzuq.cognition.run/","en-US,en;q=0.9","ame3ed7gg9ma8av","48","[""White""]","No","Male","2437323.5","17388","","","{""price_1"":""300"",""price_2"":""150"",""price_3"":""250""}","rating","ctd","repulsion_2","2","laptops","null","null","null","null","null","null","1","30","40","20","100","90","100","Processing speed","Memory (RAM)","",""
"","","","","","rating_trial_setup","html-keyboard-response","53","1344746","0.0-3.0-0.25","59","1","2025-04-11 14:23:38","bb671e3ae32f654b8954ea4c4635f915","","Mozilla/5.0 (Windows NT 10.0; Win64; x64) AppleWebKit/537.36 (KHTML, like Gecko) Chrome/135.0.0.0 Safari/537.36","WebKit","Chrome","135.0.0.0","Windows","10.0","https://hz8g1ckzuq.cognition.run/","en-US,en;q=0.9","ame3ed7gg9ma8av","48","[""White""]","No","Male","2437323.5","null","","<p></p>","null","rating","wwb","catch","null","microwave ovens","50","55","35","40","50","25","1","","","","","","","","","",""
"","","","","","rating_trial","survey-html-form","54","1364786","0.0-3.0-1.25","59","1","2025-04-11 14:23:38","bb671e3ae32f654b8954ea4c4635f915","","Mozilla/5.0 (Windows NT 10.0; Win64; x64) AppleWebKit/537.36 (KHTML, like Gecko) Chrome/135.0.0.0 Safari/537.36","WebKit","Chrome","135.0.0.0","Windows","10.0","https://hz8g1ckzuq.cognition.run/","en-US,en;q=0.9","ame3ed7gg9ma8av","48","[""White""]","No","Male","2437323.5","20031","","","{""price_1"":""15"",""price_2"":""56"",""price_3"":""60""}","rating","wwb","catch","null","microwave ovens","50","55","35","40","50","25","1","null","null","null","null","null","null","Warranty","Cooking power","",""
"","","","","","rating_trial_setup","html-keyboard-response","55","1365094","0.0-3.0-0.26","59","1","2025-04-11 14:23:38","bb671e3ae32f654b8954ea4c4635f915","","Mozilla/5.0 (Windows NT 10.0; Win64; x64) AppleWebKit/537.36 (KHTML, like Gecko) Chrome/135.0.0.0 Safari/537.36","WebKit","Chrome","135.0.0.0","Windows","10.0","https://hz8g1ckzuq.cognition.run/","en-US,en;q=0.9","ame3ed7gg9ma8av","48","[""White""]","No","Male","2437323.5","null","","<p></p>","null","rating","wbw","catch","null","laptops","55","75","30","5","35","5","2","","","","","","","","","",""
"","","","","","rating_trial","survey-html-form","56","1379368","0.0-3.0-1.26","59","1","2025-04-11 14:23:38","bb671e3ae32f654b8954ea4c4635f915","","Mozilla/5.0 (Windows NT 10.0; Win64; x64) AppleWebKit/537.36 (KHTML, like Gecko) Chrome/135.0.0.0 Safari/537.36","WebKit","Chrome","135.0.0.0","Windows","10.0","https://hz8g1ckzuq.cognition.run/","en-US,en;q=0.9","ame3ed7gg9ma8av","48","[""White""]","No","Male","2437323.5","14266","","","{""price_1"":""300"",""price_2"":""400"",""price_3"":""250""}","rating","wbw","catch","null","laptops","55","75","30","5","35","5","2","null","null","null","null","null","null","Processing speed","Memory (RAM)","",""
"","","","","","rating_trial_setup","html-keyboard-response","57","1379674","0.0-3.0-0.27","59","1","2025-04-11 14:23:38","bb671e3ae32f654b8954ea4c4635f915","","Mozilla/5.0 (Windows NT 10.0; Win64; x64) AppleWebKit/537.36 (KHTML, like Gecko) Chrome/135.0.0.0 Safari/537.36","WebKit","Chrome","135.0.0.0","Windows","10.0","https://hz8g1ckzuq.cognition.run/","en-US,en;q=0.9","ame3ed7gg9ma8av","48","[""White""]","No","Male","2437323.5","null","","<p></p>","null","rating","dct","repulsion_2","1","televisions","null","null","null","null","null","null","2","","","","","","","","","",""
"","","","","","rating_trial","survey-html-form","58","1392261","0.0-3.0-1.27","59","1","2025-04-11 14:23:38","bb671e3ae32f654b8954ea4c4635f915","","Mozilla/5.0 (Windows NT 10.0; Win64; x64) AppleWebKit/537.36 (KHTML, like Gecko) Chrome/135.0.0.0 Safari/537.36","WebKit","Chrome","135.0.0.0","Windows","10.0","https://hz8g1ckzuq.cognition.run/","en-US,en;q=0.9","ame3ed7gg9ma8av","48","[""White""]","No","Male","2437323.5","12578","","","{""price_1"":""300"",""price_2"":""400"",""price_3"":""450""}","rating","dct","repulsion_2","1","televisions","null","null","null","null","null","null","2","100","90","100","30","40","20","Screen size","Average lifespan","",""
"","","","","","rating_trial_setup","html-keyboard-response","59","1392570","0.0-3.0-0.28","59","1","2025-04-11 14:23:38","bb671e3ae32f654b8954ea4c4635f915","","Mozilla/5.0 (Windows NT 10.0; Win64; x64) AppleWebKit/537.36 (KHTML, like Gecko) Chrome/135.0.0.0 Safari/537.36","WebKit","Chrome","135.0.0.0","Windows","10.0","https://hz8g1ckzuq.cognition.run/","en-US,en;q=0.9","ame3ed7gg9ma8av","48","[""White""]","No","Male","2437323.5","null","","<p></p>","null","rating","bww","catch","null","microwave ovens","90","95","20","45","40","45","1","","","","","","","","","",""
"","","","","","rating_trial","survey-html-form","60","1418998","0.0-3.0-1.28","59","1","2025-04-11 14:23:38","bb671e3ae32f654b8954ea4c4635f915","","Mozilla/5.0 (Windows NT 10.0; Win64; x64) AppleWebKit/537.36 (KHTML, like Gecko) Chrome/135.0.0.0 Safari/537.36","WebKit","Chrome","135.0.0.0","Windows","10.0","https://hz8g1ckzuq.cognition.run/","en-US,en;q=0.9","ame3ed7gg9ma8av","48","[""White""]","No","Male","2437323.5","26423","","","{""price_1"":""70"",""price_2"":""30"",""price_3"":""20""}","rating","bww","catch","null","microwave ovens","90","95","20","45","40","45","1","null","null","null","null","null","null","Warranty","Cooking power","",""
"","","","","","rating_trial_setup","html-keyboard-response","61","1419308","0.0-3.0-0.29","59","1","2025-04-11 14:23:38","bb671e3ae32f654b8954ea4c4635f915","","Mozilla/5.0 (Windows NT 10.0; Win64; x64) AppleWebKit/537.36 (KHTML, like Gecko) Chrome/135.0.0.0 Safari/537.36","WebKit","Chrome","135.0.0.0","Windows","10.0","https://hz8g1ckzuq.cognition.run/","en-US,en;q=0.9","ame3ed7gg9ma8av","48","[""White""]","No","Male","2437323.5","null","","<p></p>","null","rating","bww","catch","null","laptops","80","65","40","5","10","15","2","","","","","","","","","",""
"","","","","","rating_trial","survey-html-form","62","1919678","0.0-3.0-1.29","59","1","2025-04-11 14:23:38","bb671e3ae32f654b8954ea4c4635f915","","Mozilla/5.0 (Windows NT 10.0; Win64; x64) AppleWebKit/537.36 (KHTML, like Gecko) Chrome/135.0.0.0 Safari/537.36","WebKit","Chrome","135.0.0.0","Windows","10.0","https://hz8g1ckzuq.cognition.run/","en-US,en;q=0.9","ame3ed7gg9ma8av","48","[""White""]","No","Male","2437323.5","500366","","","{""price_1"":""300"",""price_2"":""250"",""price_3"":""150""}","rating","bww","catch","null","laptops","80","65","40","5","10","15","2","null","null","null","null","null","null","Processing speed","Memory (RAM)","",""
"","","","","","rating_trial_setup","html-keyboard-response","63","1919983","0.0-3.0-0.30","59","1","2025-04-11 14:23:38","bb671e3ae32f654b8954ea4c4635f915","","Mozilla/5.0 (Windows NT 10.0; Win64; x64) AppleWebKit/537.36 (KHTML, like Gecko) Chrome/135.0.0.0 Safari/537.36","WebKit","Chrome","135.0.0.0","Windows","10.0","https://hz8g1ckzuq.cognition.run/","en-US,en;q=0.9","ame3ed7gg9ma8av","48","[""White""]","No","Male","2437323.5","null","","<p></p>","null","rating","dtc","repulsion_1","2","televisions","null","null","null","null","null","null","1","","","","","","","","","",""
"","","","","","rating_trial","survey-html-form","64","1933057","0.0-3.0-1.30","59","1","2025-04-11 14:23:38","bb671e3ae32f654b8954ea4c4635f915","","Mozilla/5.0 (Windows NT 10.0; Win64; x64) AppleWebKit/537.36 (KHTML, like Gecko) Chrome/135.0.0.0 Safari/537.36","WebKit","Chrome","135.0.0.0","Windows","10.0","https://hz8g1ckzuq.cognition.run/","en-US,en;q=0.9","ame3ed7gg9ma8av","48","[""White""]","No","Male","2437323.5","13067","","","{""price_1"":""200"",""price_2"":""250"",""price_3"":""150""}","rating","dtc","repulsion_1","2","televisions","null","null","null","null","null","null","1","30","40","25","100","90","100","Screen size","Average lifespan","",""
"","","","","","rating_trial_setup","html-keyboard-response","65","1933360","0.0-3.0-0.31","59","1","2025-04-11 14:23:38","bb671e3ae32f654b8954ea4c4635f915","","Mozilla/5.0 (Windows NT 10.0; Win64; x64) AppleWebKit/537.36 (KHTML, like Gecko) Chrome/135.0.0.0 Safari/537.36","WebKit","Chrome","135.0.0.0","Windows","10.0","https://hz8g1ckzuq.cognition.run/","en-US,en;q=0.9","ame3ed7gg9ma8av","48","[""White""]","No","Male","2437323.5","null","","<p></p>","null","rating","ctd","repulsion_2","1","laptops","null","null","null","null","null","null","2","","","","","","","","","",""
"","","","","","rating_trial","survey-html-form","66","1954183","0.0-3.0-1.31","59","1","2025-04-11 14:23:38","bb671e3ae32f654b8954ea4c4635f915","","Mozilla/5.0 (Windows NT 10.0; Win64; x64) AppleWebKit/537.36 (KHTML, like Gecko) Chrome/135.0.0.0 Safari/537.36","WebKit","Chrome","135.0.0.0","Windows","10.0","https://hz8g1ckzuq.cognition.run/","en-US,en;q=0.9","ame3ed7gg9ma8av","48","[""White""]","No","Male","2437323.5","20816","","","{""price_1"":""40"",""price_2"":""50"",""price_3"":""400""}","rating","ctd","repulsion_2","1","laptops","null","null","null","null","null","null","2","100","90","100","30","40","20","Processing speed","Memory (RAM)","",""
"","","","","","rating_trial_setup","html-keyboard-response","67","1954488","0.0-3.0-0.32","59","1","2025-04-11 14:23:38","bb671e3ae32f654b8954ea4c4635f915","","Mozilla/5.0 (Windows NT 10.0; Win64; x64) AppleWebKit/537.36 (KHTML, like Gecko) Chrome/135.0.0.0 Safari/537.36","WebKit","Chrome","135.0.0.0","Windows","10.0","https://hz8g1ckzuq.cognition.run/","en-US,en;q=0.9","ame3ed7gg9ma8av","48","[""White""]","No","Male","2437323.5","null","","<p></p>","null","rating","tcd","attraction_2","1","washing machines","null","null","null","null","null","null","1","","","","","","","","","",""
"","","","","","rating_trial","survey-html-form","68","1966329","0.0-3.0-1.32","59","1","2025-04-11 14:23:38","bb671e3ae32f654b8954ea4c4635f915","","Mozilla/5.0 (Windows NT 10.0; Win64; x64) AppleWebKit/537.36 (KHTML, like Gecko) Chrome/135.0.0.0 Safari/537.36","WebKit","Chrome","135.0.0.0","Windows","10.0","https://hz8g1ckzuq.cognition.run/","en-US,en;q=0.9","ame3ed7gg9ma8av","48","[""White""]","No","Male","2437323.5","11829","","","{""price_1"":""50"",""price_2"":""60"",""price_3"":""70""}","rating","tcd","attraction_2","1","washing machines","null","null","null","null","null","null","1","60","50","60","50","60","40","Average lifespan","Energy savings","",""
"","","","","","rating_trial_setup","html-keyboard-response","69","1966633","0.0-3.0-0.33","59","1","2025-04-11 14:23:38","bb671e3ae32f654b8954ea4c4635f915","","Mozilla/5.0 (Windows NT 10.0; Win64; x64) AppleWebKit/537.36 (KHTML, like Gecko) Chrome/135.0.0.0 Safari/537.36","WebKit","Chrome","135.0.0.0","Windows","10.0","https://hz8g1ckzuq.cognition.run/","en-US,en;q=0.9","ame3ed7gg9ma8av","48","[""White""]","No","Male","2437323.5","null","","<p></p>","null","rating","ctd","repulsion_2","2","washing machines","null","null","null","null","null","null","2","","","","","","","","","",""
"","","","","","rating_trial","survey-html-form","70","2204961","0.0-3.0-1.33","59","1","2025-04-11 14:23:38","bb671e3ae32f654b8954ea4c4635f915","","Mozilla/5.0 (Windows NT 10.0; Win64; x64) AppleWebKit/537.36 (KHTML, like Gecko) Chrome/135.0.0.0 Safari/537.36","WebKit","Chrome","135.0.0.0","Windows","10.0","https://hz8g1ckzuq.cognition.run/","en-US,en;q=0.9","ame3ed7gg9ma8av","48","[""White""]","No","Male","2437323.5","238324","","","{""price_1"":""400"",""price_2"":""300"",""price_3"":""400""}","rating","ctd","repulsion_2","2","washing machines","null","null","null","null","null","null","2","30","40","20","100","90","100","Average lifespan","Energy savings","",""
"","","","","","rating_trial_setup","html-keyboard-response","71","2205266","0.0-3.0-0.34","59","1","2025-04-11 14:23:38","bb671e3ae32f654b8954ea4c4635f915","","Mozilla/5.0 (Windows NT 10.0; Win64; x64) AppleWebKit/537.36 (KHTML, like Gecko) Chrome/135.0.0.0 Safari/537.36","WebKit","Chrome","135.0.0.0","Windows","10.0","https://hz8g1ckzuq.cognition.run/","en-US,en;q=0.9","ame3ed7gg9ma8av","48","[""White""]","No","Male","2437323.5","null","","<p></p>","null","rating","tdc","repulsion_1","1","microwave ovens","null","null","null","null","null","null","1","","","","","","","","","",""
"","","","","","rating_trial","survey-html-form","72","2226416","0.0-3.0-1.34","59","1","2025-04-11 14:23:38","bb671e3ae32f654b8954ea4c4635f915","","Mozilla/5.0 (Windows NT 10.0; Win64; x64) AppleWebKit/537.36 (KHTML, like Gecko) Chrome/135.0.0.0 Safari/537.36","WebKit","Chrome","135.0.0.0","Windows","10.0","https://hz8g1ckzuq.cognition.run/","en-US,en;q=0.9","ame3ed7gg9ma8av","48","[""White""]","No","Male","2437323.5","21139","","","{""price_1"":""30"",""price_2"":""30"",""price_3"":""20""}","rating","tdc","repulsion_1","1","microwave ovens","null","null","null","null","null","null","1","100","90","100","30","40","25","Warranty","Cooking power","",""
"","","","","","rating_trial_setup","html-keyboard-response","73","2226721","0.0-3.0-0.35","59","1","2025-04-11 14:23:38","bb671e3ae32f654b8954ea4c4635f915","","Mozilla/5.0 (Windows NT 10.0; Win64; x64) AppleWebKit/537.36 (KHTML, like Gecko) Chrome/135.0.0.0 Safari/537.36","WebKit","Chrome","135.0.0.0","Windows","10.0","https://hz8g1ckzuq.cognition.run/","en-US,en;q=0.9","ame3ed7gg9ma8av","48","[""White""]","No","Male","2437323.5","null","","<p></p>","null","rating","ctd","repulsion_1","2","washing machines","null","null","null","null","null","null","1","","","","","","","","","",""
"","","","","","rating_trial","survey-html-form","74","2239179","0.0-3.0-1.35","59","1","2025-04-11 14:23:38","bb671e3ae32f654b8954ea4c4635f915","","Mozilla/5.0 (Windows NT 10.0; Win64; x64) AppleWebKit/537.36 (KHTML, like Gecko) Chrome/135.0.0.0 Safari/537.36","WebKit","Chrome","135.0.0.0","Windows","10.0","https://hz8g1ckzuq.cognition.run/","en-US,en;q=0.9","ame3ed7gg9ma8av","48","[""White""]","No","Male","2437323.5","12449","","","{""price_1"":""500"",""price_2"":""500"",""price_3"":""600""}","rating","ctd","repulsion_1","2","washing machines","null","null","null","null","null","null","1","30","40","25","100","90","100","Average lifespan","Energy savings","",""
"","","","","","rating_trial_setup","html-keyboard-response","75","2239483","0.0-3.0-0.36","59","1","2025-04-11 14:23:38","bb671e3ae32f654b8954ea4c4635f915","","Mozilla/5.0 (Windows NT 10.0; Win64; x64) AppleWebKit/537.36 (KHTML, like Gecko) Chrome/135.0.0.0 Safari/537.36","WebKit","Chrome","135.0.0.0","Windows","10.0","https://hz8g1ckzuq.cognition.run/","en-US,en;q=0.9","ame3ed7gg9ma8av","48","[""White""]","No","Male","2437323.5","null","","<p></p>","null","rating","dct","attraction_2","1","laptops","null","null","null","null","null","null","2","","","","","","","","","",""
"","","","","","rating_trial","survey-html-form","76","2247124","0.0-3.0-1.36","59","1","2025-04-11 14:23:38","bb671e3ae32f654b8954ea4c4635f915","","Mozilla/5.0 (Windows NT 10.0; Win64; x64) AppleWebKit/537.36 (KHTML, like Gecko) Chrome/135.0.0.0 Safari/537.36","WebKit","Chrome","135.0.0.0","Windows","10.0","https://hz8g1ckzuq.cognition.run/","en-US,en;q=0.9","ame3ed7gg9ma8av","48","[""White""]","No","Male","2437323.5","7632","","","{""price_1"":""20"",""price_2"":""30"",""price_3"":""30""}","rating","dct","attraction_2","1","laptops","null","null","null","null","null","null","2","60","50","60","50","60","40","Processing speed","Memory (RAM)","",""
"","","","","","rating_trial_setup","html-keyboard-response","77","2247435","0.0-3.0-0.37","59","1","2025-04-11 14:23:38","bb671e3ae32f654b8954ea4c4635f915","","Mozilla/5.0 (Windows NT 10.0; Win64; x64) AppleWebKit/537.36 (KHTML, like Gecko) Chrome/135.0.0.0 Safari/537.36","WebKit","Chrome","135.0.0.0","Windows","10.0","https://hz8g1ckzuq.cognition.run/","en-US,en;q=0.9","ame3ed7gg9ma8av","48","[""White""]","No","Male","2437323.5","null","","<p></p>","null","rating","cdt","attraction_1","2","microwave ovens","null","null","null","null","null","null","2","","","","","","","","","",""
"","","","","","rating_trial","survey-html-form","78","2254776","0.0-3.0-1.37","59","1","2025-04-11 14:23:38","bb671e3ae32f654b8954ea4c4635f915","","Mozilla/5.0 (Windows NT 10.0; Win64; x64) AppleWebKit/537.36 (KHTML, like Gecko) Chrome/135.0.0.0 Safari/537.36","WebKit","Chrome","135.0.0.0","Windows","10.0","https://hz8g1ckzuq.cognition.run/","en-US,en;q=0.9","ame3ed7gg9ma8av","48","[""White""]","No","Male","2437323.5","7332","","","{""price_1"":""30"",""price_2"":""20"",""price_3"":""30""}","rating","cdt","attraction_1","2","microwave ovens","null","null","null","null","null","null","2","50","60","45","60","50","60","Warranty","Cooking power","",""
"","","","","","rating_trial_setup","html-keyboard-response","79","2255080","0.0-3.0-0.38","59","1","2025-04-11 14:23:38","bb671e3ae32f654b8954ea4c4635f915","","Mozilla/5.0 (Windows NT 10.0; Win64; x64) AppleWebKit/537.36 (KHTML, like Gecko) Chrome/135.0.0.0 Safari/537.36","WebKit","Chrome","135.0.0.0","Windows","10.0","https://hz8g1ckzuq.cognition.run/","en-US,en;q=0.9","ame3ed7gg9ma8av","48","[""White""]","No","Male","2437323.5","null","","<p></p>","null","rating","dct","attraction_2","1","microwave ovens","null","null","null","null","null","null","1","","","","","","","","","",""
"","","","","","rating_trial","survey-html-form","80","2261881","0.0-3.0-1.38","59","1","2025-04-11 14:23:38","bb671e3ae32f654b8954ea4c4635f915","","Mozilla/5.0 (Windows NT 10.0; Win64; x64) AppleWebKit/537.36 (KHTML, like Gecko) Chrome/135.0.0.0 Safari/537.36","WebKit","Chrome","135.0.0.0","Windows","10.0","https://hz8g1ckzuq.cognition.run/","en-US,en;q=0.9","ame3ed7gg9ma8av","48","[""White""]","No","Male","2437323.5","6789","","","{""price_1"":""30"",""price_2"":""30"",""price_3"":""20""}","rating","dct","attraction_2","1","microwave ovens","null","null","null","null","null","null","1","60","50","60","50","60","40","Warranty","Cooking power","",""
"","","","","","rating_trial_setup","html-keyboard-response","81","2262189","0.0-3.0-0.39","59","1","2025-04-11 14:23:38","bb671e3ae32f654b8954ea4c4635f915","","Mozilla/5.0 (Windows NT 10.0; Win64; x64) AppleWebKit/537.36 (KHTML, like Gecko) Chrome/135.0.0.0 Safari/537.36","WebKit","Chrome","135.0.0.0","Windows","10.0","https://hz8g1ckzuq.cognition.run/","en-US,en;q=0.9","ame3ed7gg9ma8av","48","[""White""]","No","Male","2437323.5","null","","<p></p>","null","rating","cdt","repulsion_1","1","washing machines","null","null","null","null","null","null","2","","","","","","","","","",""
"","","","","","rating_trial","survey-html-form","82","2273616","0.0-3.0-1.39","59","1","2025-04-11 14:23:38","bb671e3ae32f654b8954ea4c4635f915","","Mozilla/5.0 (Windows NT 10.0; Win64; x64) AppleWebKit/537.36 (KHTML, like Gecko) Chrome/135.0.0.0 Safari/537.36","WebKit","Chrome","135.0.0.0","Windows","10.0","https://hz8g1ckzuq.cognition.run/","en-US,en;q=0.9","ame3ed7gg9ma8av","48","[""White""]","No","Male","2437323.5","11418","","","{""price_1"":""500"",""price_2"":""540"",""price_3"":""600""}","rating","cdt","repulsion_1","1","washing machines","null","null","null","null","null","null","2","100","90","100","30","40","25","Average lifespan","Energy savings","",""
"","","","","","","instructions","83","2292470","0.0-4.0","59","1","2025-04-11 14:23:38","bb671e3ae32f654b8954ea4c4635f915","","Mozilla/5.0 (Windows NT 10.0; Win64; x64) AppleWebKit/537.36 (KHTML, like Gecko) Chrome/135.0.0.0 Safari/537.36","WebKit","Chrome","135.0.0.0","Windows","10.0","https://hz8g1ckzuq.cognition.run/","en-US,en;q=0.9","ame3ed7gg9ma8av","48","[""White""]","No","Male","2437323.5","18850","[{""page_index"":0,""viewing_time"":2010},{""page_index"":1,""viewing_time"":1802},{""page_index"":2,""viewing_time"":909},{""page_index"":3,""viewing_time"":4021},{""page_index"":4,""viewing_time"":1328},{""page_index"":5,""viewing_time"":1081},{""page_index"":6,""viewing_time"":6971},{""page_index"":7,""viewing_time"":728}]","","","","","","","","","","","","","","","","","","","","","","","",""
"","","","","","choice_trial_setup","html-keyboard-response","84","2292774","0.0-5.0-0.0","59","1","2025-04-11 14:23:38","bb671e3ae32f654b8954ea4c4635f915","","Mozilla/5.0 (Windows NT 10.0; Win64; x64) AppleWebKit/537.36 (KHTML, like Gecko) Chrome/135.0.0.0 Safari/537.36","WebKit","Chrome","135.0.0.0","Windows","10.0","https://hz8g1ckzuq.cognition.run/","en-US,en;q=0.9","ame3ed7gg9ma8av","48","[""White""]","No","Male","2437323.5","null","","<p></p>","null","choice","wwb","catch","null","washing machines","80","65","5","50","5","50","2","","","","","","","","","",""
"","","","","","choice_trial","survey-html-form","85","2294308","0.0-5.0-1.0","59","1","2025-04-11 14:23:38","bb671e3ae32f654b8954ea4c4635f915","","Mozilla/5.0 (Windows NT 10.0; Win64; x64) AppleWebKit/537.36 (KHTML, like Gecko) Chrome/135.0.0.0 Safari/537.36","WebKit","Chrome","135.0.0.0","Windows","10.0","https://hz8g1ckzuq.cognition.run/","en-US,en;q=0.9","ame3ed7gg9ma8av","48","[""White""]","No","Male","2437323.5","1525","","","{""product_choice"":""C""}","choice","wwb","catch","null","washing machines","80","65","5","50","5","50","2","null","null","null","null","null","null","Average lifespan","Energy savings","",""
"","","","","","choice_trial_setup","html-keyboard-response","86","2294622","0.0-5.0-0.1","59","1","2025-04-11 14:23:38","bb671e3ae32f654b8954ea4c4635f915","","Mozilla/5.0 (Windows NT 10.0; Win64; x64) AppleWebKit/537.36 (KHTML, like Gecko) Chrome/135.0.0.0 Safari/537.36","WebKit","Chrome","135.0.0.0","Windows","10.0","https://hz8g1ckzuq.cognition.run/","en-US,en;q=0.9","ame3ed7gg9ma8av","48","[""White""]","No","Male","2437323.5","null","","<p></p>","null","choice","ctd","repulsion_1","1","laptops","null","null","null","null","null","null","2","","","","","","","","","",""
"","","","","","choice_trial","survey-html-form","87","2295824","0.0-5.0-1.1","59","1","2025-04-11 14:23:38","bb671e3ae32f654b8954ea4c4635f915","","Mozilla/5.0 (Windows NT 10.0; Win64; x64) AppleWebKit/537.36 (KHTML, like Gecko) Chrome/135.0.0.0 Safari/537.36","WebKit","Chrome","135.0.0.0","Windows","10.0","https://hz8g1ckzuq.cognition.run/","en-US,en;q=0.9","ame3ed7gg9ma8av","48","[""White""]","No","Male","2437323.5","1192","","","{""product_choice"":""A""}","choice","ctd","repulsion_1","1","laptops","null","null","null","null","null","null","2","100","90","100","30","40","25","Processing speed","Memory (RAM)","",""
"","","","","","choice_trial_setup","html-keyboard-response","88","2296130","0.0-5.0-0.2","59","1","2025-04-11 14:23:38","bb671e3ae32f654b8954ea4c4635f915","","Mozilla/5.0 (Windows NT 10.0; Win64; x64) AppleWebKit/537.36 (KHTML, like Gecko) Chrome/135.0.0.0 Safari/537.36","WebKit","Chrome","135.0.0.0","Windows","10.0","https://hz8g1ckzuq.cognition.run/","en-US,en;q=0.9","ame3ed7gg9ma8av","48","[""White""]","No","Male","2437323.5","null","","<p></p>","null","choice","tdc","attraction_1","2","microwave ovens","null","null","null","null","null","null","2","","","","","","","","","",""
"","","","","","choice_trial","survey-html-form","89","2297957","0.0-5.0-1.2","59","1","2025-04-11 14:23:38","bb671e3ae32f654b8954ea4c4635f915","","Mozilla/5.0 (Windows NT 10.0; Win64; x64) AppleWebKit/537.36 (KHTML, like Gecko) Chrome/135.0.0.0 Safari/537.36","WebKit","Chrome","135.0.0.0","Windows","10.0","https://hz8g1ckzuq.cognition.run/","en-US,en;q=0.9","ame3ed7gg9ma8av","48","[""White""]","No","Male","2437323.5","1818","","","{""product_choice"":""C""}","choice","tdc","attraction_1","2","microwave ovens","null","null","null","null","null","null","2","50","60","45","60","50","60","Warranty","Cooking power","",""
"","","","","","choice_trial_setup","html-keyboard-response","90","2298275","0.0-5.0-0.3","59","1","2025-04-11 14:23:38","bb671e3ae32f654b8954ea4c4635f915","","Mozilla/5.0 (Windows NT 10.0; Win64; x64) AppleWebKit/537.36 (KHTML, like Gecko) Chrome/135.0.0.0 Safari/537.36","WebKit","Chrome","135.0.0.0","Windows","10.0","https://hz8g1ckzuq.cognition.run/","en-US,en;q=0.9","ame3ed7gg9ma8av","48","[""White""]","No","Male","2437323.5","null","","<p></p>","null","choice","tdc","attraction_1","1","washing machines","null","null","null","null","null","null","1","","","","","","","","","",""
"","","","","","choice_trial","survey-html-form","91","2299288","0.0-5.0-1.3","59","1","2025-04-11 14:23:38","bb671e3ae32f654b8954ea4c4635f915","","Mozilla/5.0 (Windows NT 10.0; Win64; x64) AppleWebKit/537.36 (KHTML, like Gecko) Chrome/135.0.0.0 Safari/537.36","WebKit","Chrome","135.0.0.0","Windows","10.0","https://hz8g1ckzuq.cognition.run/","en-US,en;q=0.9","ame3ed7gg9ma8av","48","[""White""]","No","Male","2437323.5","1003","","","{""product_choice"":""C""}","choice","tdc","attraction_1","1","washing machines","null","null","null","null","null","null","1","60","50","60","50","60","45","Average lifespan","Energy savings","",""
"","","","","","choice_trial_setup","html-keyboard-response","92","2299599","0.0-5.0-0.4","59","1","2025-04-11 14:23:38","bb671e3ae32f654b8954ea4c4635f915","","Mozilla/5.0 (Windows NT 10.0; Win64; x64) AppleWebKit/537.36 (KHTML, like Gecko) Chrome/135.0.0.0 Safari/537.36","WebKit","Chrome","135.0.0.0","Windows","10.0","https://hz8g1ckzuq.cognition.run/","en-US,en;q=0.9","ame3ed7gg9ma8av","48","[""White""]","No","Male","2437323.5","null","","<p></p>","null","choice","dct","attraction_2","1","microwave ovens","null","null","null","null","null","null","2","","","","","","","","","",""
"","","","","","choice_trial","survey-html-form","93","2301454","0.0-5.0-1.4","59","1","2025-04-11 14:23:38","bb671e3ae32f654b8954ea4c4635f915","","Mozilla/5.0 (Windows NT 10.0; Win64; x64) AppleWebKit/537.36 (KHTML, like Gecko) Chrome/135.0.0.0 Safari/537.36","WebKit","Chrome","135.0.0.0","Windows","10.0","https://hz8g1ckzuq.cognition.run/","en-US,en;q=0.9","ame3ed7gg9ma8av","48","[""White""]","No","Male","2437323.5","1849","","","{""product_choice"":""B""}","choice","dct","attraction_2","1","microwave ovens","null","null","null","null","null","null","2","60","50","60","50","60","40","Warranty","Cooking power","",""
"","","","","","choice_trial_setup","html-keyboard-response","94","2301763","0.0-5.0-0.5","59","1","2025-04-11 14:23:38","bb671e3ae32f654b8954ea4c4635f915","","Mozilla/5.0 (Windows NT 10.0; Win64; x64) AppleWebKit/537.36 (KHTML, like Gecko) Chrome/135.0.0.0 Safari/537.36","WebKit","Chrome","135.0.0.0","Windows","10.0","https://hz8g1ckzuq.cognition.run/","en-US,en;q=0.9","ame3ed7gg9ma8av","48","[""White""]","No","Male","2437323.5","null","","<p></p>","null","choice","cdt","repulsion_1","2","laptops","null","null","null","null","null","null","1","","","","","","","","","",""
"","","","","","choice_trial","survey-html-form","95","2303174","0.0-5.0-1.5","59","1","2025-04-11 14:23:38","bb671e3ae32f654b8954ea4c4635f915","","Mozilla/5.0 (Windows NT 10.0; Win64; x64) AppleWebKit/537.36 (KHTML, like Gecko) Chrome/135.0.0.0 Safari/537.36","WebKit","Chrome","135.0.0.0","Windows","10.0","https://hz8g1ckzuq.cognition.run/","en-US,en;q=0.9","ame3ed7gg9ma8av","48","[""White""]","No","Male","2437323.5","1406","","","{""product_choice"":""C""}","choice","cdt","repulsion_1","2","laptops","null","null","null","null","null","null","1","30","40","25","100","90","100","Processing speed","Memory (RAM)","",""
"","","","","","choice_trial_setup","html-keyboard-response","96","2303478","0.0-5.0-0.6","59","1","2025-04-11 14:23:38","bb671e3ae32f654b8954ea4c4635f915","","Mozilla/5.0 (Windows NT 10.0; Win64; x64) AppleWebKit/537.36 (KHTML, like Gecko) Chrome/135.0.0.0 Safari/537.36","WebKit","Chrome","135.0.0.0","Windows","10.0","https://hz8g1ckzuq.cognition.run/","en-US,en;q=0.9","ame3ed7gg9ma8av","48","[""White""]","No","Male","2437323.5","null","","<p></p>","null","choice","ctd","repulsion_2","2","televisions","null","null","null","null","null","null","2","","","","","","","","","",""
"","","","","","choice_trial","survey-html-form","97","2305434","0.0-5.0-1.6","59","1","2025-04-11 14:23:38","bb671e3ae32f654b8954ea4c4635f915","","Mozilla/5.0 (Windows NT 10.0; Win64; x64) AppleWebKit/537.36 (KHTML, like Gecko) Chrome/135.0.0.0 Safari/537.36","WebKit","Chrome","135.0.0.0","Windows","10.0","https://hz8g1ckzuq.cognition.run/","en-US,en;q=0.9","ame3ed7gg9ma8av","48","[""White""]","No","Male","2437323.5","1945","","","{""product_choice"":""C""}","choice","ctd","repulsion_2","2","televisions","null","null","null","null","null","null","2","30","40","20","100","90","100","Screen size","Average lifespan","",""
"","","","","","choice_trial_setup","html-keyboard-response","98","2305738","0.0-5.0-0.7","59","1","2025-04-11 14:23:38","bb671e3ae32f654b8954ea4c4635f915","","Mozilla/5.0 (Windows NT 10.0; Win64; x64) AppleWebKit/537.36 (KHTML, like Gecko) Chrome/135.0.0.0 Safari/537.36","WebKit","Chrome","135.0.0.0","Windows","10.0","https://hz8g1ckzuq.cognition.run/","en-US,en;q=0.9","ame3ed7gg9ma8av","48","[""White""]","No","Male","2437323.5","null","","<p></p>","null","choice","wwb","catch","null","microwave ovens","55","50","30","20","45","25","2","","","","","","","","","",""
"","","","","","choice_trial","survey-html-form","99","2308945","0.0-5.0-1.7","59","1","2025-04-11 14:23:38","bb671e3ae32f654b8954ea4c4635f915","","Mozilla/5.0 (Windows NT 10.0; Win64; x64) AppleWebKit/537.36 (KHTML, like Gecko) Chrome/135.0.0.0 Safari/537.36","WebKit","Chrome","135.0.0.0","Windows","10.0","https://hz8g1ckzuq.cognition.run/","en-US,en;q=0.9","ame3ed7gg9ma8av","48","[""White""]","No","Male","2437323.5","3190","","","{""product_choice"":""B""}","choice","wwb","catch","null","microwave ovens","55","50","30","20","45","25","2","null","null","null","null","null","null","Warranty","Cooking power","",""
"","","","","","choice_trial_setup","html-keyboard-response","100","2309255","0.0-5.0-0.8","59","1","2025-04-11 14:23:38","bb671e3ae32f654b8954ea4c4635f915","","Mozilla/5.0 (Windows NT 10.0; Win64; x64) AppleWebKit/537.36 (KHTML, like Gecko) Chrome/135.0.0.0 Safari/537.36","WebKit","Chrome","135.0.0.0","Windows","10.0","https://hz8g1ckzuq.cognition.run/","en-US,en;q=0.9","ame3ed7gg9ma8av","48","[""White""]","No","Male","2437323.5","null","","<p></p>","null","choice","tdc","attraction_1","1","microwave ovens","null","null","null","null","null","null","1","","","","","","","","","",""
"","","","","","choice_trial","survey-html-form","101","2311303","0.0-5.0-1.8","59","1","2025-04-11 14:23:38","bb671e3ae32f654b8954ea4c4635f915","","Mozilla/5.0 (Windows NT 10.0; Win64; x64) AppleWebKit/537.36 (KHTML, like Gecko) Chrome/135.0.0.0 Safari/537.36","WebKit","Chrome","135.0.0.0","Windows","10.0","https://hz8g1ckzuq.cognition.run/","en-US,en;q=0.9","ame3ed7gg9ma8av","48","[""White""]","No","Male","2437323.5","2036","","","{""product_choice"":""C""}","choice","tdc","attraction_1","1","microwave ovens","null","null","null","null","null","null","1","60","50","60","50","60","45","Warranty","Cooking power","",""
"","","","","","choice_trial_setup","html-keyboard-response","102","2311615","0.0-5.0-0.9","59","1","2025-04-11 14:23:38","bb671e3ae32f654b8954ea4c4635f915","","Mozilla/5.0 (Windows NT 10.0; Win64; x64) AppleWebKit/537.36 (KHTML, like Gecko) Chrome/135.0.0.0 Safari/537.36","WebKit","Chrome","135.0.0.0","Windows","10.0","https://hz8g1ckzuq.cognition.run/","en-US,en;q=0.9","ame3ed7gg9ma8av","48","[""White""]","No","Male","2437323.5","null","","<p></p>","null","choice","ctd","repulsion_2","2","laptops","null","null","null","null","null","null","2","","","","","","","","","",""
"","","","","","choice_trial","survey-html-form","103","2313589","0.0-5.0-1.9","59","1","2025-04-11 14:23:38","bb671e3ae32f654b8954ea4c4635f915","","Mozilla/5.0 (Windows NT 10.0; Win64; x64) AppleWebKit/537.36 (KHTML, like Gecko) Chrome/135.0.0.0 Safari/537.36","WebKit","Chrome","135.0.0.0","Windows","10.0","https://hz8g1ckzuq.cognition.run/","en-US,en;q=0.9","ame3ed7gg9ma8av","48","[""White""]","No","Male","2437323.5","1963","","","{""product_choice"":""A""}","choice","ctd","repulsion_2","2","laptops","null","null","null","null","null","null","2","30","40","20","100","90","100","Processing speed","Memory (RAM)","",""
"","","","","","choice_trial_setup","html-keyboard-response","104","2313899","0.0-5.0-0.10","59","1","2025-04-11 14:23:38","bb671e3ae32f654b8954ea4c4635f915","","Mozilla/5.0 (Windows NT 10.0; Win64; x64) AppleWebKit/537.36 (KHTML, like Gecko) Chrome/135.0.0.0 Safari/537.36","WebKit","Chrome","135.0.0.0","Windows","10.0","https://hz8g1ckzuq.cognition.run/","en-US,en;q=0.9","ame3ed7gg9ma8av","48","[""White""]","No","Male","2437323.5","null","","<p></p>","null","choice","cdt","attraction_2","2","televisions","null","null","null","null","null","null","2","","","","","","","","","",""
"","","","","","choice_trial","survey-html-form","105","2316151","0.0-5.0-1.10","59","1","2025-04-11 14:23:38","bb671e3ae32f654b8954ea4c4635f915","","Mozilla/5.0 (Windows NT 10.0; Win64; x64) AppleWebKit/537.36 (KHTML, like Gecko) Chrome/135.0.0.0 Safari/537.36","WebKit","Chrome","135.0.0.0","Windows","10.0","https://hz8g1ckzuq.cognition.run/","en-US,en;q=0.9","ame3ed7gg9ma8av","48","[""White""]","No","Male","2437323.5","2242","","","{""product_choice"":""C""}","choice","cdt","attraction_2","2","televisions","null","null","null","null","null","null","2","50","60","40","60","50","60","Screen size","Average lifespan","",""
"","","","","","choice_trial_setup","html-keyboard-response","106","2316457","0.0-5.0-0.11","59","1","2025-04-11 14:23:38","bb671e3ae32f654b8954ea4c4635f915","","Mozilla/5.0 (Windows NT 10.0; Win64; x64) AppleWebKit/537.36 (KHTML, like Gecko) Chrome/135.0.0.0 Safari/537.36","WebKit","Chrome","135.0.0.0","Windows","10.0","https://hz8g1ckzuq.cognition.run/","en-US,en;q=0.9","ame3ed7gg9ma8av","48","[""White""]","No","Male","2437323.5","null","","<p></p>","null","choice","wwb","catch","null","laptops","80","85","40","30","50","40","1","","","","","","","","","",""
"","","","","","choice_trial","survey-html-form","107","2319029","0.0-5.0-1.11","59","1","2025-04-11 14:23:38","bb671e3ae32f654b8954ea4c4635f915","","Mozilla/5.0 (Windows NT 10.0; Win64; x64) AppleWebKit/537.36 (KHTML, like Gecko) Chrome/135.0.0.0 Safari/537.36","WebKit","Chrome","135.0.0.0","Windows","10.0","https://hz8g1ckzuq.cognition.run/","en-US,en;q=0.9","ame3ed7gg9ma8av","48","[""White""]","No","Male","2437323.5","2566","","","{""product_choice"":""C""}","choice","wwb","catch","null","laptops","80","85","40","30","50","40","1","null","null","null","null","null","null","Processing speed","Memory (RAM)","",""
"","","","","","choice_trial_setup","html-keyboard-response","108","2319341","0.0-5.0-0.12","59","1","2025-04-11 14:23:38","bb671e3ae32f654b8954ea4c4635f915","","Mozilla/5.0 (Windows NT 10.0; Win64; x64) AppleWebKit/537.36 (KHTML, like Gecko) Chrome/135.0.0.0 Safari/537.36","WebKit","Chrome","135.0.0.0","Windows","10.0","https://hz8g1ckzuq.cognition.run/","en-US,en;q=0.9","ame3ed7gg9ma8av","48","[""White""]","No","Male","2437323.5","null","","<p></p>","null","choice","dtc","repulsion_2","1","microwave ovens","null","null","null","null","null","null","2","","","","","","","","","",""
"","","","","","choice_trial","survey-html-form","109","2320913","0.0-5.0-1.12","59","1","2025-04-11 14:23:38","bb671e3ae32f654b8954ea4c4635f915","","Mozilla/5.0 (Windows NT 10.0; Win64; x64) AppleWebKit/537.36 (KHTML, like Gecko) Chrome/135.0.0.0 Safari/537.36","WebKit","Chrome","135.0.0.0","Windows","10.0","https://hz8g1ckzuq.cognition.run/","en-US,en;q=0.9","ame3ed7gg9ma8av","48","[""White""]","No","Male","2437323.5","1560","","","{""product_choice"":""A""}","choice","dtc","repulsion_2","1","microwave ovens","null","null","null","null","null","null","2","100","90","100","30","40","20","Warranty","Cooking power","",""
"","","","","","choice_trial_setup","html-keyboard-response","110","2321226","0.0-5.0-0.13","59","1","2025-04-11 14:23:38","bb671e3ae32f654b8954ea4c4635f915","","Mozilla/5.0 (Windows NT 10.0; Win64; x64) AppleWebKit/537.36 (KHTML, like Gecko) Chrome/135.0.0.0 Safari/537.36","WebKit","Chrome","135.0.0.0","Windows","10.0","https://hz8g1ckzuq.cognition.run/","en-US,en;q=0.9","ame3ed7gg9ma8av","48","[""White""]","No","Male","2437323.5","null","","<p></p>","null","choice","tdc","repulsion_1","1","televisions","null","null","null","null","null","null","2","","","","","","","","","",""
"","","","","","choice_trial","survey-html-form","111","2322327","0.0-5.0-1.13","59","1","2025-04-11 14:23:38","bb671e3ae32f654b8954ea4c4635f915","","Mozilla/5.0 (Windows NT 10.0; Win64; x64) AppleWebKit/537.36 (KHTML, like Gecko) Chrome/135.0.0.0 Safari/537.36","WebKit","Chrome","135.0.0.0","Windows","10.0","https://hz8g1ckzuq.cognition.run/","en-US,en;q=0.9","ame3ed7gg9ma8av","48","[""White""]","No","Male","2437323.5","1089","","","{""product_choice"":""B""}","choice","tdc","repulsion_1","1","televisions","null","null","null","null","null","null","2","100","90","100","30","40","25","Screen size","Average lifespan","",""
"","","","","","choice_trial_setup","html-keyboard-response","112","2322632","0.0-5.0-0.14","59","1","2025-04-11 14:23:38","bb671e3ae32f654b8954ea4c4635f915","","Mozilla/5.0 (Windows NT 10.0; Win64; x64) AppleWebKit/537.36 (KHTML, like Gecko) Chrome/135.0.0.0 Safari/537.36","WebKit","Chrome","135.0.0.0","Windows","10.0","https://hz8g1ckzuq.cognition.run/","en-US,en;q=0.9","ame3ed7gg9ma8av","48","[""White""]","No","Male","2437323.5","null","","<p></p>","null","choice","dtc","repulsion_2","1","washing machines","null","null","null","null","null","null","2","","","","","","","","","",""
"","","","","","choice_trial","survey-html-form","113","2325193","0.0-5.0-1.14","59","1","2025-04-11 14:23:38","bb671e3ae32f654b8954ea4c4635f915","","Mozilla/5.0 (Windows NT 10.0; Win64; x64) AppleWebKit/537.36 (KHTML, like Gecko) Chrome/135.0.0.0 Safari/537.36","WebKit","Chrome","135.0.0.0","Windows","10.0","https://hz8g1ckzuq.cognition.run/","en-US,en;q=0.9","ame3ed7gg9ma8av","48","[""White""]","No","Male","2437323.5","2549","","","{""product_choice"":""B""}","choice","dtc","repulsion_2","1","washing machines","null","null","null","null","null","null","2","100","90","100","30","40","20","Average lifespan","Energy savings","",""
"","","","","","choice_trial_setup","html-keyboard-response","114","2325508","0.0-5.0-0.15","59","1","2025-04-11 14:23:38","bb671e3ae32f654b8954ea4c4635f915","","Mozilla/5.0 (Windows NT 10.0; Win64; x64) AppleWebKit/537.36 (KHTML, like Gecko) Chrome/135.0.0.0 Safari/537.36","WebKit","Chrome","135.0.0.0","Windows","10.0","https://hz8g1ckzuq.cognition.run/","en-US,en;q=0.9","ame3ed7gg9ma8av","48","[""White""]","No","Male","2437323.5","null","","<p></p>","null","choice","tcd","repulsion_2","2","washing machines","null","null","null","null","null","null","1","","","","","","","","","",""
"","","","","","choice_trial","survey-html-form","115","2327285","0.0-5.0-1.15","59","1","2025-04-11 14:23:38","bb671e3ae32f654b8954ea4c4635f915","","Mozilla/5.0 (Windows NT 10.0; Win64; x64) AppleWebKit/537.36 (KHTML, like Gecko) Chrome/135.0.0.0 Safari/537.36","WebKit","Chrome","135.0.0.0","Windows","10.0","https://hz8g1ckzuq.cognition.run/","en-US,en;q=0.9","ame3ed7gg9ma8av","48","[""White""]","No","Male","2437323.5","1765","","","{""product_choice"":""A""}","choice","tcd","repulsion_2","2","washing machines","null","null","null","null","null","null","1","30","40","20","100","90","100","Average lifespan","Energy savings","",""
"","","","","","choice_trial_setup","html-keyboard-response","116","2327598","0.0-5.0-0.16","59","1","2025-04-11 14:23:38","bb671e3ae32f654b8954ea4c4635f915","","Mozilla/5.0 (Windows NT 10.0; Win64; x64) AppleWebKit/537.36 (KHTML, like Gecko) Chrome/135.0.0.0 Safari/537.36","WebKit","Chrome","135.0.0.0","Windows","10.0","https://hz8g1ckzuq.cognition.run/","en-US,en;q=0.9","ame3ed7gg9ma8av","48","[""White""]","No","Male","2437323.5","null","","<p></p>","null","choice","dtc","repulsion_2","1","televisions","null","null","null","null","null","null","2","","","","","","","","","",""
"","","","","","choice_trial","survey-html-form","117","2329638","0.0-5.0-1.16","59","1","2025-04-11 14:23:38","bb671e3ae32f654b8954ea4c4635f915","","Mozilla/5.0 (Windows NT 10.0; Win64; x64) AppleWebKit/537.36 (KHTML, like Gecko) Chrome/135.0.0.0 Safari/537.36","WebKit","Chrome","135.0.0.0","Windows","10.0","https://hz8g1ckzuq.cognition.run/","en-US,en;q=0.9","ame3ed7gg9ma8av","48","[""White""]","No","Male","2437323.5","2027","","","{""product_choice"":""B""}","choice","dtc","repulsion_2","1","televisions","null","null","null","null","null","null","2","100","90","100","30","40","20","Screen size","Average lifespan","",""
"","","","","","choice_trial_setup","html-keyboard-response","118","2329943","0.0-5.0-0.17","59","1","2025-04-11 14:23:38","bb671e3ae32f654b8954ea4c4635f915","","Mozilla/5.0 (Windows NT 10.0; Win64; x64) AppleWebKit/537.36 (KHTML, like Gecko) Chrome/135.0.0.0 Safari/537.36","WebKit","Chrome","135.0.0.0","Windows","10.0","https://hz8g1ckzuq.cognition.run/","en-US,en;q=0.9","ame3ed7gg9ma8av","48","[""White""]","No","Male","2437323.5","null","","<p></p>","null","choice","dct","attraction_2","1","televisions","null","null","null","null","null","null","1","","","","","","","","","",""
"","","","","","choice_trial","survey-html-form","119","2331132","0.0-5.0-1.17","59","1","2025-04-11 14:23:38","bb671e3ae32f654b8954ea4c4635f915","","Mozilla/5.0 (Windows NT 10.0; Win64; x64) AppleWebKit/537.36 (KHTML, like Gecko) Chrome/135.0.0.0 Safari/537.36","WebKit","Chrome","135.0.0.0","Windows","10.0","https://hz8g1ckzuq.cognition.run/","en-US,en;q=0.9","ame3ed7gg9ma8av","48","[""White""]","No","Male","2437323.5","1175","","","{""product_choice"":""B""}","choice","dct","attraction_2","1","televisions","null","null","null","null","null","null","1","60","50","60","50","60","40","Screen size","Average lifespan","",""
"","","","","","choice_trial_setup","html-keyboard-response","120","2331446","0.0-5.0-0.18","59","1","2025-04-11 14:23:38","bb671e3ae32f654b8954ea4c4635f915","","Mozilla/5.0 (Windows NT 10.0; Win64; x64) AppleWebKit/537.36 (KHTML, like Gecko) Chrome/135.0.0.0 Safari/537.36","WebKit","Chrome","135.0.0.0","Windows","10.0","https://hz8g1ckzuq.cognition.run/","en-US,en;q=0.9","ame3ed7gg9ma8av","48","[""White""]","No","Male","2437323.5","null","","<p></p>","null","choice","dct","repulsion_1","1","microwave ovens","null","null","null","null","null","null","1","","","","","","","","","",""
"","","","","","choice_trial","survey-html-form","121","2332478","0.0-5.0-1.18","59","1","2025-04-11 14:23:38","bb671e3ae32f654b8954ea4c4635f915","","Mozilla/5.0 (Windows NT 10.0; Win64; x64) AppleWebKit/537.36 (KHTML, like Gecko) Chrome/135.0.0.0 Safari/537.36","WebKit","Chrome","135.0.0.0","Windows","10.0","https://hz8g1ckzuq.cognition.run/","en-US,en;q=0.9","ame3ed7gg9ma8av","48","[""White""]","No","Male","2437323.5","1019","","","{""product_choice"":""B""}","choice","dct","repulsion_1","1","microwave ovens","null","null","null","null","null","null","1","100","90","100","30","40","25","Warranty","Cooking power","",""
"","","","","","choice_trial_setup","html-keyboard-response","122","2332783","0.0-5.0-0.19","59","1","2025-04-11 14:23:38","bb671e3ae32f654b8954ea4c4635f915","","Mozilla/5.0 (Windows NT 10.0; Win64; x64) AppleWebKit/537.36 (KHTML, like Gecko) Chrome/135.0.0.0 Safari/537.36","WebKit","Chrome","135.0.0.0","Windows","10.0","https://hz8g1ckzuq.cognition.run/","en-US,en;q=0.9","ame3ed7gg9ma8av","48","[""White""]","No","Male","2437323.5","null","","<p></p>","null","choice","tcd","repulsion_2","2","microwave ovens","null","null","null","null","null","null","1","","","","","","","","","",""
"","","","","","choice_trial","survey-html-form","123","2333792","0.0-5.0-1.19","59","1","2025-04-11 14:23:38","bb671e3ae32f654b8954ea4c4635f915","","Mozilla/5.0 (Windows NT 10.0; Win64; x64) AppleWebKit/537.36 (KHTML, like Gecko) Chrome/135.0.0.0 Safari/537.36","WebKit","Chrome","135.0.0.0","Windows","10.0","https://hz8g1ckzuq.cognition.run/","en-US,en;q=0.9","ame3ed7gg9ma8av","48","[""White""]","No","Male","2437323.5","1000","","","{""product_choice"":""A""}","choice","tcd","repulsion_2","2","microwave ovens","null","null","null","null","null","null","1","30","40","20","100","90","100","Warranty","Cooking power","",""
"","","","","","choice_trial_setup","html-keyboard-response","124","2334098","0.0-5.0-0.20","59","1","2025-04-11 14:23:38","bb671e3ae32f654b8954ea4c4635f915","","Mozilla/5.0 (Windows NT 10.0; Win64; x64) AppleWebKit/537.36 (KHTML, like Gecko) Chrome/135.0.0.0 Safari/537.36","WebKit","Chrome","135.0.0.0","Windows","10.0","https://hz8g1ckzuq.cognition.run/","en-US,en;q=0.9","ame3ed7gg9ma8av","48","[""White""]","No","Male","2437323.5","null","","<p></p>","null","choice","wwb","catch","null","televisions","50","90","15","30","15","45","2","","","","","","","","","",""
"","","","","","choice_trial","survey-html-form","125","2336929","0.0-5.0-1.20","59","1","2025-04-11 14:23:38","bb671e3ae32f654b8954ea4c4635f915","","Mozilla/5.0 (Windows NT 10.0; Win64; x64) AppleWebKit/537.36 (KHTML, like Gecko) Chrome/135.0.0.0 Safari/537.36","WebKit","Chrome","135.0.0.0","Windows","10.0","https://hz8g1ckzuq.cognition.run/","en-US,en;q=0.9","ame3ed7gg9ma8av","48","[""White""]","No","Male","2437323.5","2822","","","{""product_choice"":""C""}","choice","wwb","catch","null","televisions","50","90","15","30","15","45","2","null","null","null","null","null","null","Screen size","Average lifespan","",""
"","","","","","choice_trial_setup","html-keyboard-response","126","2337242","0.0-5.0-0.21","59","1","2025-04-11 14:23:38","bb671e3ae32f654b8954ea4c4635f915","","Mozilla/5.0 (Windows NT 10.0; Win64; x64) AppleWebKit/537.36 (KHTML, like Gecko) Chrome/135.0.0.0 Safari/537.36","WebKit","Chrome","135.0.0.0","Windows","10.0","https://hz8g1ckzuq.cognition.run/","en-US,en;q=0.9","ame3ed7gg9ma8av","48","[""White""]","No","Male","2437323.5","null","","<p></p>","null","choice","tcd","attraction_2","2","microwave ovens","null","null","null","null","null","null","1","","","","","","","","","",""
"","","","","","choice_trial","survey-html-form","127","2339272","0.0-5.0-1.21","59","1","2025-04-11 14:23:38","bb671e3ae32f654b8954ea4c4635f915","","Mozilla/5.0 (Windows NT 10.0; Win64; x64) AppleWebKit/537.36 (KHTML, like Gecko) Chrome/135.0.0.0 Safari/537.36","WebKit","Chrome","135.0.0.0","Windows","10.0","https://hz8g1ckzuq.cognition.run/","en-US,en;q=0.9","ame3ed7gg9ma8av","48","[""White""]","No","Male","2437323.5","2019","","","{""product_choice"":""C""}","choice","tcd","attraction_2","2","microwave ovens","null","null","null","null","null","null","1","50","60","40","60","50","60","Warranty","Cooking power","",""
"","","","","","choice_trial_setup","html-keyboard-response","128","2339587","0.0-5.0-0.22","59","1","2025-04-11 14:23:38","bb671e3ae32f654b8954ea4c4635f915","","Mozilla/5.0 (Windows NT 10.0; Win64; x64) AppleWebKit/537.36 (KHTML, like Gecko) Chrome/135.0.0.0 Safari/537.36","WebKit","Chrome","135.0.0.0","Windows","10.0","https://hz8g1ckzuq.cognition.run/","en-US,en;q=0.9","ame3ed7gg9ma8av","48","[""White""]","No","Male","2437323.5","null","","<p></p>","null","choice","wbw","catch","null","laptops","90","85","30","50","30","15","1","","","","","","","","","",""
"","","","","","choice_trial","survey-html-form","129","2341289","0.0-5.0-1.22","59","1","2025-04-11 14:23:38","bb671e3ae32f654b8954ea4c4635f915","","Mozilla/5.0 (Windows NT 10.0; Win64; x64) AppleWebKit/537.36 (KHTML, like Gecko) Chrome/135.0.0.0 Safari/537.36","WebKit","Chrome","135.0.0.0","Windows","10.0","https://hz8g1ckzuq.cognition.run/","en-US,en;q=0.9","ame3ed7gg9ma8av","48","[""White""]","No","Male","2437323.5","1688","","","{""product_choice"":""B""}","choice","wbw","catch","null","laptops","90","85","30","50","30","15","1","null","null","null","null","null","null","Processing speed","Memory (RAM)","",""
"","","","","","choice_trial_setup","html-keyboard-response","130","2341605","0.0-5.0-0.23","59","1","2025-04-11 14:23:38","bb671e3ae32f654b8954ea4c4635f915","","Mozilla/5.0 (Windows NT 10.0; Win64; x64) AppleWebKit/537.36 (KHTML, like Gecko) Chrome/135.0.0.0 Safari/537.36","WebKit","Chrome","135.0.0.0","Windows","10.0","https://hz8g1ckzuq.cognition.run/","en-US,en;q=0.9","ame3ed7gg9ma8av","48","[""White""]","No","Male","2437323.5","null","","<p></p>","null","choice","bww","catch","null","microwave ovens","85","50","35","10","30","5","2","","","","","","","","","",""
"","","","","","choice_trial","survey-html-form","131","2344403","0.0-5.0-1.23","59","1","2025-04-11 14:23:38","bb671e3ae32f654b8954ea4c4635f915","","Mozilla/5.0 (Windows NT 10.0; Win64; x64) AppleWebKit/537.36 (KHTML, like Gecko) Chrome/135.0.0.0 Safari/537.36","WebKit","Chrome","135.0.0.0","Windows","10.0","https://hz8g1ckzuq.cognition.run/","en-US,en;q=0.9","ame3ed7gg9ma8av","48","[""White""]","No","Male","2437323.5","2783","","","{""product_choice"":""A""}","choice","bww","catch","null","microwave ovens","85","50","35","10","30","5","2","null","null","null","null","null","null","Warranty","Cooking power","",""
"","","","","","choice_trial_setup","html-keyboard-response","132","2344718","0.0-5.0-0.24","59","1","2025-04-11 14:23:38","bb671e3ae32f654b8954ea4c4635f915","","Mozilla/5.0 (Windows NT 10.0; Win64; x64) AppleWebKit/537.36 (KHTML, like Gecko) Chrome/135.0.0.0 Safari/537.36","WebKit","Chrome","135.0.0.0","Windows","10.0","https://hz8g1ckzuq.cognition.run/","en-US,en;q=0.9","ame3ed7gg9ma8av","48","[""White""]","No","Male","2437323.5","null","","<p></p>","null","choice","tcd","attraction_2","2","laptops","null","null","null","null","null","null","2","","","","","","","","","",""
"","","","","","choice_trial","survey-html-form","133","2347146","0.0-5.0-1.24","59","1","2025-04-11 14:23:38","bb671e3ae32f654b8954ea4c4635f915","","Mozilla/5.0 (Windows NT 10.0; Win64; x64) AppleWebKit/537.36 (KHTML, like Gecko) Chrome/135.0.0.0 Safari/537.36","WebKit","Chrome","135.0.0.0","Windows","10.0","https://hz8g1ckzuq.cognition.run/","en-US,en;q=0.9","ame3ed7gg9ma8av","48","[""White""]","No","Male","2437323.5","2413","","","{""product_choice"":""B""}","choice","tcd","attraction_2","2","laptops","null","null","null","null","null","null","2","50","60","40","60","50","60","Processing speed","Memory (RAM)","",""
"","","","","","choice_trial_setup","html-keyboard-response","134","2347459","0.0-5.0-0.25","59","1","2025-04-11 14:23:38","bb671e3ae32f654b8954ea4c4635f915","","Mozilla/5.0 (Windows NT 10.0; Win64; x64) AppleWebKit/537.36 (KHTML, like Gecko) Chrome/135.0.0.0 Safari/537.36","WebKit","Chrome","135.0.0.0","Windows","10.0","https://hz8g1ckzuq.cognition.run/","en-US,en;q=0.9","ame3ed7gg9ma8av","48","[""White""]","No","Male","2437323.5","null","","<p></p>","null","choice","tdc","repulsion_1","2","televisions","null","null","null","null","null","null","1","","","","","","","","","",""
"","","","","","choice_trial","survey-html-form","135","2350044","0.0-5.0-1.25","59","1","2025-04-11 14:23:38","bb671e3ae32f654b8954ea4c4635f915","","Mozilla/5.0 (Windows NT 10.0; Win64; x64) AppleWebKit/537.36 (KHTML, like Gecko) Chrome/135.0.0.0 Safari/537.36","WebKit","Chrome","135.0.0.0","Windows","10.0","https://hz8g1ckzuq.cognition.run/","en-US,en;q=0.9","ame3ed7gg9ma8av","48","[""White""]","No","Male","2437323.5","2570","","","{""product_choice"":""A""}","choice","tdc","repulsion_1","2","televisions","null","null","null","null","null","null","1","30","40","25","100","90","100","Screen size","Average lifespan","",""
"","","","","","choice_trial_setup","html-keyboard-response","136","2350356","0.0-5.0-0.26","59","1","2025-04-11 14:23:38","bb671e3ae32f654b8954ea4c4635f915","","Mozilla/5.0 (Windows NT 10.0; Win64; x64) AppleWebKit/537.36 (KHTML, like Gecko) Chrome/135.0.0.0 Safari/537.36","WebKit","Chrome","135.0.0.0","Windows","10.0","https://hz8g1ckzuq.cognition.run/","en-US,en;q=0.9","ame3ed7gg9ma8av","48","[""White""]","No","Male","2437323.5","null","","<p></p>","null","choice","ctd","repulsion_1","2","washing machines","null","null","null","null","null","null","2","","","","","","","","","",""
"","","","","","choice_trial","survey-html-form","137","2353283","0.0-5.0-1.26","59","1","2025-04-11 14:23:38","bb671e3ae32f654b8954ea4c4635f915","","Mozilla/5.0 (Windows NT 10.0; Win64; x64) AppleWebKit/537.36 (KHTML, like Gecko) Chrome/135.0.0.0 Safari/537.36","WebKit","Chrome","135.0.0.0","Windows","10.0","https://hz8g1ckzuq.cognition.run/","en-US,en;q=0.9","ame3ed7gg9ma8av","48","[""White""]","No","Male","2437323.5","2914","","","{""product_choice"":""A""}","choice","ctd","repulsion_1","2","washing machines","null","null","null","null","null","null","2","30","40","25","100","90","100","Average lifespan","Energy savings","",""
"","","","","","choice_trial_setup","html-keyboard-response","138","2353588","0.0-5.0-0.27","59","1","2025-04-11 14:23:38","bb671e3ae32f654b8954ea4c4635f915","","Mozilla/5.0 (Windows NT 10.0; Win64; x64) AppleWebKit/537.36 (KHTML, like Gecko) Chrome/135.0.0.0 Safari/537.36","WebKit","Chrome","135.0.0.0","Windows","10.0","https://hz8g1ckzuq.cognition.run/","en-US,en;q=0.9","ame3ed7gg9ma8av","48","[""White""]","No","Male","2437323.5","null","","<p></p>","null","choice","ctd","repulsion_2","1","laptops","null","null","null","null","null","null","1","","","","","","","","","",""
"","","","","","choice_trial","survey-html-form","139","2355939","0.0-5.0-1.27","59","1","2025-04-11 14:23:38","bb671e3ae32f654b8954ea4c4635f915","","Mozilla/5.0 (Windows NT 10.0; Win64; x64) AppleWebKit/537.36 (KHTML, like Gecko) Chrome/135.0.0.0 Safari/537.36","WebKit","Chrome","135.0.0.0","Windows","10.0","https://hz8g1ckzuq.cognition.run/","en-US,en;q=0.9","ame3ed7gg9ma8av","48","[""White""]","No","Male","2437323.5","2337","","","{""product_choice"":""B""}","choice","ctd","repulsion_2","1","laptops","null","null","null","null","null","null","1","100","90","100","30","40","20","Processing speed","Memory (RAM)","",""
"","","","","","choice_trial_setup","html-keyboard-response","140","2356245","0.0-5.0-0.28","59","1","2025-04-11 14:23:38","bb671e3ae32f654b8954ea4c4635f915","","Mozilla/5.0 (Windows NT 10.0; Win64; x64) AppleWebKit/537.36 (KHTML, like Gecko) Chrome/135.0.0.0 Safari/537.36","WebKit","Chrome","135.0.0.0","Windows","10.0","https://hz8g1ckzuq.cognition.run/","en-US,en;q=0.9","ame3ed7gg9ma8av","48","[""White""]","No","Male","2437323.5","null","","<p></p>","null","choice","dct","attraction_2","1","washing machines","null","null","null","null","null","null","2","","","","","","","","","",""
"","","","","","choice_trial","survey-html-form","141","2358118","0.0-5.0-1.28","59","1","2025-04-11 14:23:38","bb671e3ae32f654b8954ea4c4635f915","","Mozilla/5.0 (Windows NT 10.0; Win64; x64) AppleWebKit/537.36 (KHTML, like Gecko) Chrome/135.0.0.0 Safari/537.36","WebKit","Chrome","135.0.0.0","Windows","10.0","https://hz8g1ckzuq.cognition.run/","en-US,en;q=0.9","ame3ed7gg9ma8av","48","[""White""]","No","Male","2437323.5","1859","","","{""product_choice"":""A""}","choice","dct","attraction_2","1","washing machines","null","null","null","null","null","null","2","60","50","60","50","60","40","Average lifespan","Energy savings","",""
"","","","","","choice_trial_setup","html-keyboard-response","142","2358428","0.0-5.0-0.29","59","1","2025-04-11 14:23:38","bb671e3ae32f654b8954ea4c4635f915","","Mozilla/5.0 (Windows NT 10.0; Win64; x64) AppleWebKit/537.36 (KHTML, like Gecko) Chrome/135.0.0.0 Safari/537.36","WebKit","Chrome","135.0.0.0","Windows","10.0","https://hz8g1ckzuq.cognition.run/","en-US,en;q=0.9","ame3ed7gg9ma8av","48","[""White""]","No","Male","2437323.5","null","","<p></p>","null","choice","tcd","attraction_1","2","washing machines","null","null","null","null","null","null","2","","","","","","","","","",""
"","","","","","choice_trial","survey-html-form","143","2361992","0.0-5.0-1.29","59","1","2025-04-11 14:23:38","bb671e3ae32f654b8954ea4c4635f915","","Mozilla/5.0 (Windows NT 10.0; Win64; x64) AppleWebKit/537.36 (KHTML, like Gecko) Chrome/135.0.0.0 Safari/537.36","WebKit","Chrome","135.0.0.0","Windows","10.0","https://hz8g1ckzuq.cognition.run/","en-US,en;q=0.9","ame3ed7gg9ma8av","48","[""White""]","No","Male","2437323.5","3558","","","{""product_choice"":""B""}","choice","tcd","attraction_1","2","washing machines","null","null","null","null","null","null","2","50","60","45","60","50","60","Average lifespan","Energy savings","",""
"","","","","","choice_trial_setup","html-keyboard-response","144","2362299","0.0-5.0-0.30","59","1","2025-04-11 14:23:38","bb671e3ae32f654b8954ea4c4635f915","","Mozilla/5.0 (Windows NT 10.0; Win64; x64) AppleWebKit/537.36 (KHTML, like Gecko) Chrome/135.0.0.0 Safari/537.36","WebKit","Chrome","135.0.0.0","Windows","10.0","https://hz8g1ckzuq.cognition.run/","en-US,en;q=0.9","ame3ed7gg9ma8av","48","[""White""]","No","Male","2437323.5","null","","<p></p>","null","choice","cdt","repulsion_1","2","microwave ovens","null","null","null","null","null","null","1","","","","","","","","","",""
"","","","","","choice_trial","survey-html-form","145","2366368","0.0-5.0-1.30","59","1","2025-04-11 14:23:38","bb671e3ae32f654b8954ea4c4635f915","","Mozilla/5.0 (Windows NT 10.0; Win64; x64) AppleWebKit/537.36 (KHTML, like Gecko) Chrome/135.0.0.0 Safari/537.36","WebKit","Chrome","135.0.0.0","Windows","10.0","https://hz8g1ckzuq.cognition.run/","en-US,en;q=0.9","ame3ed7gg9ma8av","48","[""White""]","No","Male","2437323.5","4055","","","{""product_choice"":""B""}","choice","cdt","repulsion_1","2","microwave ovens","null","null","null","null","null","null","1","30","40","25","100","90","100","Warranty","Cooking power","",""
"","","","","","choice_trial_setup","html-keyboard-response","146","2366681","0.0-5.0-0.31","59","1","2025-04-11 14:23:38","bb671e3ae32f654b8954ea4c4635f915","","Mozilla/5.0 (Windows NT 10.0; Win64; x64) AppleWebKit/537.36 (KHTML, like Gecko) Chrome/135.0.0.0 Safari/537.36","WebKit","Chrome","135.0.0.0","Windows","10.0","https://hz8g1ckzuq.cognition.run/","en-US,en;q=0.9","ame3ed7gg9ma8av","48","[""White""]","No","Male","2437323.5","null","","<p></p>","null","choice","wwb","catch","null","televisions","65","55","35","10","50","15","1","","","","","","","","","",""
"","","","","","choice_trial","survey-html-form","147","2369432","0.0-5.0-1.31","59","1","2025-04-11 14:23:38","bb671e3ae32f654b8954ea4c4635f915","","Mozilla/5.0 (Windows NT 10.0; Win64; x64) AppleWebKit/537.36 (KHTML, like Gecko) Chrome/135.0.0.0 Safari/537.36","WebKit","Chrome","135.0.0.0","Windows","10.0","https://hz8g1ckzuq.cognition.run/","en-US,en;q=0.9","ame3ed7gg9ma8av","48","[""White""]","No","Male","2437323.5","2745","","","{""product_choice"":""C""}","choice","wwb","catch","null","televisions","65","55","35","10","50","15","1","null","null","null","null","null","null","Screen size","Average lifespan","",""
"","","","","","choice_trial_setup","html-keyboard-response","148","2369737","0.0-5.0-0.32","59","1","2025-04-11 14:23:38","bb671e3ae32f654b8954ea4c4635f915","","Mozilla/5.0 (Windows NT 10.0; Win64; x64) AppleWebKit/537.36 (KHTML, like Gecko) Chrome/135.0.0.0 Safari/537.36","WebKit","Chrome","135.0.0.0","Windows","10.0","https://hz8g1ckzuq.cognition.run/","en-US,en;q=0.9","ame3ed7gg9ma8av","48","[""White""]","No","Male","2437323.5","null","","<p></p>","null","choice","cdt","attraction_1","1","televisions","null","null","null","null","null","null","1","","","","","","","","","",""
"","","","","","choice_trial","survey-html-form","149","2373744","0.0-5.0-1.32","59","1","2025-04-11 14:23:38","bb671e3ae32f654b8954ea4c4635f915","","Mozilla/5.0 (Windows NT 10.0; Win64; x64) AppleWebKit/537.36 (KHTML, like Gecko) Chrome/135.0.0.0 Safari/537.36","WebKit","Chrome","135.0.0.0","Windows","10.0","https://hz8g1ckzuq.cognition.run/","en-US,en;q=0.9","ame3ed7gg9ma8av","48","[""White""]","No","Male","2437323.5","3992","","","{""product_choice"":""B""}","choice","cdt","attraction_1","1","televisions","null","null","null","null","null","null","1","60","50","60","50","60","45","Screen size","Average lifespan","",""
"","","","","","choice_trial_setup","html-keyboard-response","150","2374056","0.0-5.0-0.33","59","1","2025-04-11 14:23:38","bb671e3ae32f654b8954ea4c4635f915","","Mozilla/5.0 (Windows NT 10.0; Win64; x64) AppleWebKit/537.36 (KHTML, like Gecko) Chrome/135.0.0.0 Safari/537.36","WebKit","Chrome","135.0.0.0","Windows","10.0","https://hz8g1ckzuq.cognition.run/","en-US,en;q=0.9","ame3ed7gg9ma8av","48","[""White""]","No","Male","2437323.5","null","","<p></p>","null","choice","ctd","attraction_2","2","washing machines","null","null","null","null","null","null","2","","","","","","","","","",""
"","","","","","choice_trial","survey-html-form","151","2376020","0.0-5.0-1.33","59","1","2025-04-11 14:23:38","bb671e3ae32f654b8954ea4c4635f915","","Mozilla/5.0 (Windows NT 10.0; Win64; x64) AppleWebKit/537.36 (KHTML, like Gecko) Chrome/135.0.0.0 Safari/537.36","WebKit","Chrome","135.0.0.0","Windows","10.0","https://hz8g1ckzuq.cognition.run/","en-US,en;q=0.9","ame3ed7gg9ma8av","48","[""White""]","No","Male","2437323.5","1949","","","{""product_choice"":""A""}","choice","ctd","attraction_2","2","washing machines","null","null","null","null","null","null","2","50","60","40","60","50","60","Average lifespan","Energy savings","",""
"","","","","","choice_trial_setup","html-keyboard-response","152","2376338","0.0-5.0-0.34","59","1","2025-04-11 14:23:38","bb671e3ae32f654b8954ea4c4635f915","","Mozilla/5.0 (Windows NT 10.0; Win64; x64) AppleWebKit/537.36 (KHTML, like Gecko) Chrome/135.0.0.0 Safari/537.36","WebKit","Chrome","135.0.0.0","Windows","10.0","https://hz8g1ckzuq.cognition.run/","en-US,en;q=0.9","ame3ed7gg9ma8av","48","[""White""]","No","Male","2437323.5","null","","<p></p>","null","choice","dtc","attraction_1","2","televisions","null","null","null","null","null","null","2","","","","","","","","","",""
"","","","","","choice_trial","survey-html-form","153","2377853","0.0-5.0-1.34","59","1","2025-04-11 14:23:38","bb671e3ae32f654b8954ea4c4635f915","","Mozilla/5.0 (Windows NT 10.0; Win64; x64) AppleWebKit/537.36 (KHTML, like Gecko) Chrome/135.0.0.0 Safari/537.36","WebKit","Chrome","135.0.0.0","Windows","10.0","https://hz8g1ckzuq.cognition.run/","en-US,en;q=0.9","ame3ed7gg9ma8av","48","[""White""]","No","Male","2437323.5","1501","","","{""product_choice"":""A""}","choice","dtc","attraction_1","2","televisions","null","null","null","null","null","null","2","50","60","45","60","50","60","Screen size","Average lifespan","",""
"","","","","","choice_trial_setup","html-keyboard-response","154","2378159","0.0-5.0-0.35","59","1","2025-04-11 14:23:38","bb671e3ae32f654b8954ea4c4635f915","","Mozilla/5.0 (Windows NT 10.0; Win64; x64) AppleWebKit/537.36 (KHTML, like Gecko) Chrome/135.0.0.0 Safari/537.36","WebKit","Chrome","135.0.0.0","Windows","10.0","https://hz8g1ckzuq.cognition.run/","en-US,en;q=0.9","ame3ed7gg9ma8av","48","[""White""]","No","Male","2437323.5","null","","<p></p>","null","choice","dtc","attraction_1","1","laptops","null","null","null","null","null","null","1","","","","","","","","","",""
"","","","","","choice_trial","survey-html-form","155","2380119","0.0-5.0-1.35","59","1","2025-04-11 14:23:38","bb671e3ae32f654b8954ea4c4635f915","","Mozilla/5.0 (Windows NT 10.0; Win64; x64) AppleWebKit/537.36 (KHTML, like Gecko) Chrome/135.0.0.0 Safari/537.36","WebKit","Chrome","135.0.0.0","Windows","10.0","https://hz8g1ckzuq.cognition.run/","en-US,en;q=0.9","ame3ed7gg9ma8av","48","[""White""]","No","Male","2437323.5","1946","","","{""product_choice"":""C""}","choice","dtc","attraction_1","1","laptops","null","null","null","null","null","null","1","60","50","60","50","60","45","Processing speed","Memory (RAM)","",""
"","","","","","choice_trial_setup","html-keyboard-response","156","2380433","0.0-5.0-0.36","59","1","2025-04-11 14:23:38","bb671e3ae32f654b8954ea4c4635f915","","Mozilla/5.0 (Windows NT 10.0; Win64; x64) AppleWebKit/537.36 (KHTML, like Gecko) Chrome/135.0.0.0 Safari/537.36","WebKit","Chrome","135.0.0.0","Windows","10.0","https://hz8g1ckzuq.cognition.run/","en-US,en;q=0.9","ame3ed7gg9ma8av","48","[""White""]","No","Male","2437323.5","null","","<p></p>","null","choice","wwb","catch","null","washing machines","90","60","30","20","15","15","2","","","","","","","","","",""
"","","","","","choice_trial","survey-html-form","157","2383541","0.0-5.0-1.36","59","1","2025-04-11 14:23:38","bb671e3ae32f654b8954ea4c4635f915","","Mozilla/5.0 (Windows NT 10.0; Win64; x64) AppleWebKit/537.36 (KHTML, like Gecko) Chrome/135.0.0.0 Safari/537.36","WebKit","Chrome","135.0.0.0","Windows","10.0","https://hz8g1ckzuq.cognition.run/","en-US,en;q=0.9","ame3ed7gg9ma8av","48","[""White""]","No","Male","2437323.5","3093","","","{""product_choice"":""C""}","choice","wwb","catch","null","washing machines","90","60","30","20","15","15","2","null","null","null","null","null","null","Average lifespan","Energy savings","",""
"","","","","","choice_trial_setup","html-keyboard-response","158","2383855","0.0-5.0-0.37","59","1","2025-04-11 14:23:38","bb671e3ae32f654b8954ea4c4635f915","","Mozilla/5.0 (Windows NT 10.0; Win64; x64) AppleWebKit/537.36 (KHTML, like Gecko) Chrome/135.0.0.0 Safari/537.36","WebKit","Chrome","135.0.0.0","Windows","10.0","https://hz8g1ckzuq.cognition.run/","en-US,en;q=0.9","ame3ed7gg9ma8av","48","[""White""]","No","Male","2437323.5","null","","<p></p>","null","choice","cdt","attraction_2","1","laptops","null","null","null","null","null","null","2","","","","","","","","","",""
"","","","","","choice_trial","survey-html-form","159","2386244","0.0-5.0-1.37","59","1","2025-04-11 14:23:38","bb671e3ae32f654b8954ea4c4635f915","","Mozilla/5.0 (Windows NT 10.0; Win64; x64) AppleWebKit/537.36 (KHTML, like Gecko) Chrome/135.0.0.0 Safari/537.36","WebKit","Chrome","135.0.0.0","Windows","10.0","https://hz8g1ckzuq.cognition.run/","en-US,en;q=0.9","ame3ed7gg9ma8av","48","[""White""]","No","Male","2437323.5","2381","","","{""product_choice"":""C""}","choice","cdt","attraction_2","1","laptops","null","null","null","null","null","null","2","60","50","60","50","60","40","Processing speed","Memory (RAM)","",""
"","","","","","choice_trial_setup","html-keyboard-response","160","2386551","0.0-5.0-0.38","59","1","2025-04-11 14:23:38","bb671e3ae32f654b8954ea4c4635f915","","Mozilla/5.0 (Windows NT 10.0; Win64; x64) AppleWebKit/537.36 (KHTML, like Gecko) Chrome/135.0.0.0 Safari/537.36","WebKit","Chrome","135.0.0.0","Windows","10.0","https://hz8g1ckzuq.cognition.run/","en-US,en;q=0.9","ame3ed7gg9ma8av","48","[""White""]","No","Male","2437323.5","null","","<p></p>","null","choice","tcd","attraction_1","2","laptops","null","null","null","null","null","null","2","","","","","","","","","",""
