"success","timeout","failed_images","failed_audio","failed_video","screen_id","trial_type","trial_index","time_elapsed","internal_node_id","run_id","condition","recorded_at","source_code_version","ip","user_agent","device","browser","browser_version","platform","platform_version","referer","accept_language","ppt_id","age","race","ethnicity","gender","exp_duration","rt","view_history","stimulus","response","phase","order","effect","t_high","category","d1_best","d2_best","d1_worst1","d2_worst1","d1_worst2","d2_worst2","first_dim","d1_t","d1_c","d1_d","d2_t","d2_c","d2_d","d1_name","d2_name","strategy_response","question_order"
"true","false","[]","[]","[]","img preload","preload","0","749","0.0-0.0","60","1","2025-04-11 14:24:20","bb671e3ae32f654b8954ea4c4635f915","","Mozilla/5.0 (Windows NT 10.0; Win64; x64) AppleWebKit/537.36 (KHTML, like Gecko) Chrome/135.0.0.0 Safari/537.36","WebKit","Chrome","135.0.0.0","Windows","10.0","https://hz8g1ckzuq.cognition.run/","en-US,en;q=0.9","hwnao535qt8mvxz","54","[""Asian"",""White""]","No","Female","1075872.199999988","","","","","","","","","","","","","","","","","","","","","","","","","",""
"true","","","","","","fullscreen","1","5790","0.0-1.0","60","1","2025-04-11 14:24:20","bb671e3ae32f654b8954ea4c4635f915","","Mozilla/5.0 (Windows NT 10.0; Win64; x64) AppleWebKit/537.36 (KHTML, like Gecko) Chrome/135.0.0.0 Safari/537.36","WebKit","Chrome","135.0.0.0","Windows","10.0","https://hz8g1ckzuq.cognition.run/","en-US,en;q=0.9","hwnao535qt8mvxz","54","[""Asian"",""White""]","No","Female","1075872.199999988","4021","","","","","","","","","","","","","","","","","","","","","","","","",""
"","","","","","","instructions","2","91537","0.0-2.0","60","1","2025-04-11 14:24:20","bb671e3ae32f654b8954ea4c4635f915","","Mozilla/5.0 (Windows NT 10.0; Win64; x64) AppleWebKit/537.36 (KHTML, like Gecko) Chrome/135.0.0.0 Safari/537.36","WebKit","Chrome","135.0.0.0","Windows","10.0","https://hz8g1ckzuq.cognition.run/","en-US,en;q=0.9","hwnao535qt8mvxz","54","[""Asian"",""White""]","No","Female","1075872.199999988","85746","[{""page_index"":0,""viewing_time"":1921},{""page_index"":1,""viewing_time"":6852},{""page_index"":2,""viewing_time"":7068},{""page_index"":3,""viewing_time"":6850},{""page_index"":4,""viewing_time"":10094},{""page_index"":5,""viewing_time"":6498},{""page_index"":6,""viewing_time"":7344},{""page_index"":7,""viewing_time"":23960},{""page_index"":8,""viewing_time"":8914},{""page_index"":9,""viewing_time"":6246}]","","","","","","","","","","","","","","","","","","","","","","","",""
"","","","","","rating_trial_setup","html-keyboard-response","3","91841","0.0-3.0-0.0","60","1","2025-04-11 14:24:20","bb671e3ae32f654b8954ea4c4635f915","","Mozilla/5.0 (Windows NT 10.0; Win64; x64) AppleWebKit/537.36 (KHTML, like Gecko) Chrome/135.0.0.0 Safari/537.36","WebKit","Chrome","135.0.0.0","Windows","10.0","https://hz8g1ckzuq.cognition.run/","en-US,en;q=0.9","hwnao535qt8mvxz","54","[""Asian"",""White""]","No","Female","1075872.199999988","null","","<p></p>","null","rating","cdt","repulsion_2","2","laptops","null","null","null","null","null","null","2","","","","","","","","","",""
"","","","","","rating_trial","survey-html-form","4","137226","0.0-3.0-1.0","60","1","2025-04-11 14:24:20","bb671e3ae32f654b8954ea4c4635f915","","Mozilla/5.0 (Windows NT 10.0; Win64; x64) AppleWebKit/537.36 (KHTML, like Gecko) Chrome/135.0.0.0 Safari/537.36","WebKit","Chrome","135.0.0.0","Windows","10.0","https://hz8g1ckzuq.cognition.run/","en-US,en;q=0.9","hwnao535qt8mvxz","54","[""Asian"",""White""]","No","Female","1075872.199999988","45382","","","{""price_1"":""500"",""price_2"":""300"",""price_3"":""400""}","rating","cdt","repulsion_2","2","laptops","null","null","null","null","null","null","2","30","40","20","100","90","100","Processing speed","Memory (RAM)","",""
"","","","","","rating_trial_setup","html-keyboard-response","5","137529","0.0-3.0-0.1","60","1","2025-04-11 14:24:20","bb671e3ae32f654b8954ea4c4635f915","","Mozilla/5.0 (Windows NT 10.0; Win64; x64) AppleWebKit/537.36 (KHTML, like Gecko) Chrome/135.0.0.0 Safari/537.36","WebKit","Chrome","135.0.0.0","Windows","10.0","https://hz8g1ckzuq.cognition.run/","en-US,en;q=0.9","hwnao535qt8mvxz","54","[""Asian"",""White""]","No","Female","1075872.199999988","null","","<p></p>","null","rating","dct","attraction_2","2","laptops","null","null","null","null","null","null","2","","","","","","","","","",""
"","","","","","rating_trial","survey-html-form","6","159959","0.0-3.0-1.1","60","1","2025-04-11 14:24:20","bb671e3ae32f654b8954ea4c4635f915","","Mozilla/5.0 (Windows NT 10.0; Win64; x64) AppleWebKit/537.36 (KHTML, like Gecko) Chrome/135.0.0.0 Safari/537.36","WebKit","Chrome","135.0.0.0","Windows","10.0","https://hz8g1ckzuq.cognition.run/","en-US,en;q=0.9","hwnao535qt8mvxz","54","[""Asian"",""White""]","No","Female","1075872.199999988","22428","","","{""price_1"":""200"",""price_2"":""200"",""price_3"":""200""}","rating","dct","attraction_2","2","laptops","null","null","null","null","null","null","2","50","60","40","60","50","60","Processing speed","Memory (RAM)","",""
"","","","","","rating_trial_setup","html-keyboard-response","7","160262","0.0-3.0-0.2","60","1","2025-04-11 14:24:20","bb671e3ae32f654b8954ea4c4635f915","","Mozilla/5.0 (Windows NT 10.0; Win64; x64) AppleWebKit/537.36 (KHTML, like Gecko) Chrome/135.0.0.0 Safari/537.36","WebKit","Chrome","135.0.0.0","Windows","10.0","https://hz8g1ckzuq.cognition.run/","en-US,en;q=0.9","hwnao535qt8mvxz","54","[""Asian"",""White""]","No","Female","1075872.199999988","null","","<p></p>","null","rating","ctd","attraction_1","1","microwave ovens","null","null","null","null","null","null","1","","","","","","","","","",""
"","","","","","rating_trial","survey-html-form","8","172411","0.0-3.0-1.2","60","1","2025-04-11 14:24:20","bb671e3ae32f654b8954ea4c4635f915","","Mozilla/5.0 (Windows NT 10.0; Win64; x64) AppleWebKit/537.36 (KHTML, like Gecko) Chrome/135.0.0.0 Safari/537.36","WebKit","Chrome","135.0.0.0","Windows","10.0","https://hz8g1ckzuq.cognition.run/","en-US,en;q=0.9","hwnao535qt8mvxz","54","[""Asian"",""White""]","No","Female","1075872.199999988","12148","","","{""price_1"":""100"",""price_2"":""100"",""price_3"":""100""}","rating","ctd","attraction_1","1","microwave ovens","null","null","null","null","null","null","1","60","50","60","50","60","45","Warranty","Cooking power","",""
"","","","","","rating_trial_setup","html-keyboard-response","9","172714","0.0-3.0-0.3","60","1","2025-04-11 14:24:20","bb671e3ae32f654b8954ea4c4635f915","","Mozilla/5.0 (Windows NT 10.0; Win64; x64) AppleWebKit/537.36 (KHTML, like Gecko) Chrome/135.0.0.0 Safari/537.36","WebKit","Chrome","135.0.0.0","Windows","10.0","https://hz8g1ckzuq.cognition.run/","en-US,en;q=0.9","hwnao535qt8mvxz","54","[""Asian"",""White""]","No","Female","1075872.199999988","null","","<p></p>","null","rating","dct","attraction_1","1","washing machines","null","null","null","null","null","null","2","","","","","","","","","",""
"","","","","","rating_trial","survey-html-form","10","190204","0.0-3.0-1.3","60","1","2025-04-11 14:24:20","bb671e3ae32f654b8954ea4c4635f915","","Mozilla/5.0 (Windows NT 10.0; Win64; x64) AppleWebKit/537.36 (KHTML, like Gecko) Chrome/135.0.0.0 Safari/537.36","WebKit","Chrome","135.0.0.0","Windows","10.0","https://hz8g1ckzuq.cognition.run/","en-US,en;q=0.9","hwnao535qt8mvxz","54","[""Asian"",""White""]","No","Female","1075872.199999988","17489","","","{""price_1"":""600"",""price_2"":""600"",""price_3"":""600""}","rating","dct","attraction_1","1","washing machines","null","null","null","null","null","null","2","60","50","60","50","60","45","Average lifespan","Energy savings","",""
"","","","","","rating_trial_setup","html-keyboard-response","11","190507","0.0-3.0-0.4","60","1","2025-04-11 14:24:20","bb671e3ae32f654b8954ea4c4635f915","","Mozilla/5.0 (Windows NT 10.0; Win64; x64) AppleWebKit/537.36 (KHTML, like Gecko) Chrome/135.0.0.0 Safari/537.36","WebKit","Chrome","135.0.0.0","Windows","10.0","https://hz8g1ckzuq.cognition.run/","en-US,en;q=0.9","hwnao535qt8mvxz","54","[""Asian"",""White""]","No","Female","1075872.199999988","null","","<p></p>","null","rating","cdt","repulsion_1","1","washing machines","null","null","null","null","null","null","2","","","","","","","","","",""
"","","","","","rating_trial","survey-html-form","12","206996","0.0-3.0-1.4","60","1","2025-04-11 14:24:20","bb671e3ae32f654b8954ea4c4635f915","","Mozilla/5.0 (Windows NT 10.0; Win64; x64) AppleWebKit/537.36 (KHTML, like Gecko) Chrome/135.0.0.0 Safari/537.36","WebKit","Chrome","135.0.0.0","Windows","10.0","https://hz8g1ckzuq.cognition.run/","en-US,en;q=0.9","hwnao535qt8mvxz","54","[""Asian"",""White""]","No","Female","1075872.199999988","16487","","","{""price_1"":""700"",""price_2"":""700"",""price_3"":""700""}","rating","cdt","repulsion_1","1","washing machines","null","null","null","null","null","null","2","100","90","100","30","40","25","Average lifespan","Energy savings","",""
"","","","","","rating_trial_setup","html-keyboard-response","13","207298","0.0-3.0-0.5","60","1","2025-04-11 14:24:20","bb671e3ae32f654b8954ea4c4635f915","","Mozilla/5.0 (Windows NT 10.0; Win64; x64) AppleWebKit/537.36 (KHTML, like Gecko) Chrome/135.0.0.0 Safari/537.36","WebKit","Chrome","135.0.0.0","Windows","10.0","https://hz8g1ckzuq.cognition.run/","en-US,en;q=0.9","hwnao535qt8mvxz","54","[""Asian"",""White""]","No","Female","1075872.199999988","null","","<p></p>","null","rating","wwb","catch","null","washing machines","90","95","15","50","30","30","2","","","","","","","","","",""
"","","","","","rating_trial","survey-html-form","14","220038","0.0-3.0-1.5","60","1","2025-04-11 14:24:20","bb671e3ae32f654b8954ea4c4635f915","","Mozilla/5.0 (Windows NT 10.0; Win64; x64) AppleWebKit/537.36 (KHTML, like Gecko) Chrome/135.0.0.0 Safari/537.36","WebKit","Chrome","135.0.0.0","Windows","10.0","https://hz8g1ckzuq.cognition.run/","en-US,en;q=0.9","hwnao535qt8mvxz","54","[""Asian"",""White""]","No","Female","1075872.199999988","12738","","","{""price_1"":""300"",""price_2"":""300"",""price_3"":""300""}","rating","wwb","catch","null","washing machines","90","95","15","50","30","30","2","null","null","null","null","null","null","Average lifespan","Energy savings","",""
"","","","","","rating_trial_setup","html-keyboard-response","15","220342","0.0-3.0-0.6","60","1","2025-04-11 14:24:20","bb671e3ae32f654b8954ea4c4635f915","","Mozilla/5.0 (Windows NT 10.0; Win64; x64) AppleWebKit/537.36 (KHTML, like Gecko) Chrome/135.0.0.0 Safari/537.36","WebKit","Chrome","135.0.0.0","Windows","10.0","https://hz8g1ckzuq.cognition.run/","en-US,en;q=0.9","hwnao535qt8mvxz","54","[""Asian"",""White""]","No","Female","1075872.199999988","null","","<p></p>","null","rating","tcd","attraction_1","2","washing machines","null","null","null","null","null","null","1","","","","","","","","","",""
"","","","","","rating_trial","survey-html-form","16","232808","0.0-3.0-1.6","60","1","2025-04-11 14:24:20","bb671e3ae32f654b8954ea4c4635f915","","Mozilla/5.0 (Windows NT 10.0; Win64; x64) AppleWebKit/537.36 (KHTML, like Gecko) Chrome/135.0.0.0 Safari/537.36","WebKit","Chrome","135.0.0.0","Windows","10.0","https://hz8g1ckzuq.cognition.run/","en-US,en;q=0.9","hwnao535qt8mvxz","54","[""Asian"",""White""]","No","Female","1075872.199999988","12464","","","{""price_1"":""500"",""price_2"":""500"",""price_3"":""500""}","rating","tcd","attraction_1","2","washing machines","null","null","null","null","null","null","1","50","60","45","60","50","60","Average lifespan","Energy savings","",""
"","","","","","rating_trial_setup","html-keyboard-response","17","233123","0.0-3.0-0.7","60","1","2025-04-11 14:24:20","bb671e3ae32f654b8954ea4c4635f915","","Mozilla/5.0 (Windows NT 10.0; Win64; x64) AppleWebKit/537.36 (KHTML, like Gecko) Chrome/135.0.0.0 Safari/537.36","WebKit","Chrome","135.0.0.0","Windows","10.0","https://hz8g1ckzuq.cognition.run/","en-US,en;q=0.9","hwnao535qt8mvxz","54","[""Asian"",""White""]","No","Female","1075872.199999988","null","","<p></p>","null","rating","dtc","repulsion_1","2","microwave ovens","null","null","null","null","null","null","2","","","","","","","","","",""
"","","","","","rating_trial","survey-html-form","18","250618","0.0-3.0-1.7","60","1","2025-04-11 14:24:20","bb671e3ae32f654b8954ea4c4635f915","","Mozilla/5.0 (Windows NT 10.0; Win64; x64) AppleWebKit/537.36 (KHTML, like Gecko) Chrome/135.0.0.0 Safari/537.36","WebKit","Chrome","135.0.0.0","Windows","10.0","https://hz8g1ckzuq.cognition.run/","en-US,en;q=0.9","hwnao535qt8mvxz","54","[""Asian"",""White""]","No","Female","1075872.199999988","17493","","","{""price_1"":""300"",""price_2"":""300"",""price_3"":""300""}","rating","dtc","repulsion_1","2","microwave ovens","null","null","null","null","null","null","2","30","40","25","100","90","100","Warranty","Cooking power","",""
"","","","","","rating_trial_setup","html-keyboard-response","19","250920","0.0-3.0-0.8","60","1","2025-04-11 14:24:20","bb671e3ae32f654b8954ea4c4635f915","","Mozilla/5.0 (Windows NT 10.0; Win64; x64) AppleWebKit/537.36 (KHTML, like Gecko) Chrome/135.0.0.0 Safari/537.36","WebKit","Chrome","135.0.0.0","Windows","10.0","https://hz8g1ckzuq.cognition.run/","en-US,en;q=0.9","hwnao535qt8mvxz","54","[""Asian"",""White""]","No","Female","1075872.199999988","null","","<p></p>","null","rating","wwb","catch","null","televisions","50","65","45","50","5","25","1","","","","","","","","","",""
"","","","","","rating_trial","survey-html-form","20","268787","0.0-3.0-1.8","60","1","2025-04-11 14:24:20","bb671e3ae32f654b8954ea4c4635f915","","Mozilla/5.0 (Windows NT 10.0; Win64; x64) AppleWebKit/537.36 (KHTML, like Gecko) Chrome/135.0.0.0 Safari/537.36","WebKit","Chrome","135.0.0.0","Windows","10.0","https://hz8g1ckzuq.cognition.run/","en-US,en;q=0.9","hwnao535qt8mvxz","54","[""Asian"",""White""]","No","Female","1075872.199999988","17865","","","{""price_1"":""200"",""price_2"":""100"",""price_3"":""200""}","rating","wwb","catch","null","televisions","50","65","45","50","5","25","1","null","null","null","null","null","null","Screen size","Average lifespan","",""
"","","","","","rating_trial_setup","html-keyboard-response","21","269091","0.0-3.0-0.9","60","1","2025-04-11 14:24:20","bb671e3ae32f654b8954ea4c4635f915","","Mozilla/5.0 (Windows NT 10.0; Win64; x64) AppleWebKit/537.36 (KHTML, like Gecko) Chrome/135.0.0.0 Safari/537.36","WebKit","Chrome","135.0.0.0","Windows","10.0","https://hz8g1ckzuq.cognition.run/","en-US,en;q=0.9","hwnao535qt8mvxz","54","[""Asian"",""White""]","No","Female","1075872.199999988","null","","<p></p>","null","rating","wbw","catch","null","microwave ovens","75","55","20","30","15","15","2","","","","","","","","","",""
"","","","","","rating_trial","survey-html-form","22","289805","0.0-3.0-1.9","60","1","2025-04-11 14:24:20","bb671e3ae32f654b8954ea4c4635f915","","Mozilla/5.0 (Windows NT 10.0; Win64; x64) AppleWebKit/537.36 (KHTML, like Gecko) Chrome/135.0.0.0 Safari/537.36","WebKit","Chrome","135.0.0.0","Windows","10.0","https://hz8g1ckzuq.cognition.run/","en-US,en;q=0.9","hwnao535qt8mvxz","54","[""Asian"",""White""]","No","Female","1075872.199999988","20712","","","{""price_1"":""90"",""price_2"":""100"",""price_3"":""75""}","rating","wbw","catch","null","microwave ovens","75","55","20","30","15","15","2","null","null","null","null","null","null","Warranty","Cooking power","",""
"","","","","","rating_trial_setup","html-keyboard-response","23","290108","0.0-3.0-0.10","60","1","2025-04-11 14:24:20","bb671e3ae32f654b8954ea4c4635f915","","Mozilla/5.0 (Windows NT 10.0; Win64; x64) AppleWebKit/537.36 (KHTML, like Gecko) Chrome/135.0.0.0 Safari/537.36","WebKit","Chrome","135.0.0.0","Windows","10.0","https://hz8g1ckzuq.cognition.run/","en-US,en;q=0.9","hwnao535qt8mvxz","54","[""Asian"",""White""]","No","Female","1075872.199999988","null","","<p></p>","null","rating","tdc","repulsion_1","1","laptops","null","null","null","null","null","null","1","","","","","","","","","",""
"","","","","","rating_trial","survey-html-form","24","305343","0.0-3.0-1.10","60","1","2025-04-11 14:24:20","bb671e3ae32f654b8954ea4c4635f915","","Mozilla/5.0 (Windows NT 10.0; Win64; x64) AppleWebKit/537.36 (KHTML, like Gecko) Chrome/135.0.0.0 Safari/537.36","WebKit","Chrome","135.0.0.0","Windows","10.0","https://hz8g1ckzuq.cognition.run/","en-US,en;q=0.9","hwnao535qt8mvxz","54","[""Asian"",""White""]","No","Female","1075872.199999988","15233","","","{""price_1"":""400"",""price_2"":""400"",""price_3"":""400""}","rating","tdc","repulsion_1","1","laptops","null","null","null","null","null","null","1","100","90","100","30","40","25","Processing speed","Memory (RAM)","",""
"","","","","","rating_trial_setup","html-keyboard-response","25","305646","0.0-3.0-0.11","60","1","2025-04-11 14:24:20","bb671e3ae32f654b8954ea4c4635f915","","Mozilla/5.0 (Windows NT 10.0; Win64; x64) AppleWebKit/537.36 (KHTML, like Gecko) Chrome/135.0.0.0 Safari/537.36","WebKit","Chrome","135.0.0.0","Windows","10.0","https://hz8g1ckzuq.cognition.run/","en-US,en;q=0.9","hwnao535qt8mvxz","54","[""Asian"",""White""]","No","Female","1075872.199999988","null","","<p></p>","null","rating","bww","catch","null","televisions","55","70","25","30","25","35","1","","","","","","","","","",""
"","","","","","rating_trial","survey-html-form","26","317985","0.0-3.0-1.11","60","1","2025-04-11 14:24:20","bb671e3ae32f654b8954ea4c4635f915","","Mozilla/5.0 (Windows NT 10.0; Win64; x64) AppleWebKit/537.36 (KHTML, like Gecko) Chrome/135.0.0.0 Safari/537.36","WebKit","Chrome","135.0.0.0","Windows","10.0","https://hz8g1ckzuq.cognition.run/","en-US,en;q=0.9","hwnao535qt8mvxz","54","[""Asian"",""White""]","No","Female","1075872.199999988","12337","","","{""price_1"":""100"",""price_2"":""75"",""price_3"":""75""}","rating","bww","catch","null","televisions","55","70","25","30","25","35","1","null","null","null","null","null","null","Screen size","Average lifespan","",""
"","","","","","rating_trial_setup","html-keyboard-response","27","318287","0.0-3.0-0.12","60","1","2025-04-11 14:24:20","bb671e3ae32f654b8954ea4c4635f915","","Mozilla/5.0 (Windows NT 10.0; Win64; x64) AppleWebKit/537.36 (KHTML, like Gecko) Chrome/135.0.0.0 Safari/537.36","WebKit","Chrome","135.0.0.0","Windows","10.0","https://hz8g1ckzuq.cognition.run/","en-US,en;q=0.9","hwnao535qt8mvxz","54","[""Asian"",""White""]","No","Female","1075872.199999988","null","","<p></p>","null","rating","wbw","catch","null","microwave ovens","60","85","15","15","10","5","1","","","","","","","","","",""
"","","","","","rating_trial","survey-html-form","28","332307","0.0-3.0-1.12","60","1","2025-04-11 14:24:20","bb671e3ae32f654b8954ea4c4635f915","","Mozilla/5.0 (Windows NT 10.0; Win64; x64) AppleWebKit/537.36 (KHTML, like Gecko) Chrome/135.0.0.0 Safari/537.36","WebKit","Chrome","135.0.0.0","Windows","10.0","https://hz8g1ckzuq.cognition.run/","en-US,en;q=0.9","hwnao535qt8mvxz","54","[""Asian"",""White""]","No","Female","1075872.199999988","14017","","","{""price_1"":""65"",""price_2"":""100"",""price_3"":""65""}","rating","wbw","catch","null","microwave ovens","60","85","15","15","10","5","1","null","null","null","null","null","null","Warranty","Cooking power","",""
"","","","","","rating_trial_setup","html-keyboard-response","29","332610","0.0-3.0-0.13","60","1","2025-04-11 14:24:20","bb671e3ae32f654b8954ea4c4635f915","","Mozilla/5.0 (Windows NT 10.0; Win64; x64) AppleWebKit/537.36 (KHTML, like Gecko) Chrome/135.0.0.0 Safari/537.36","WebKit","Chrome","135.0.0.0","Windows","10.0","https://hz8g1ckzuq.cognition.run/","en-US,en;q=0.9","hwnao535qt8mvxz","54","[""Asian"",""White""]","No","Female","1075872.199999988","null","","<p></p>","null","rating","ctd","repulsion_1","2","televisions","null","null","null","null","null","null","2","","","","","","","","","",""
"","","","","","rating_trial","survey-html-form","30","349698","0.0-3.0-1.13","60","1","2025-04-11 14:24:20","bb671e3ae32f654b8954ea4c4635f915","","Mozilla/5.0 (Windows NT 10.0; Win64; x64) AppleWebKit/537.36 (KHTML, like Gecko) Chrome/135.0.0.0 Safari/537.36","WebKit","Chrome","135.0.0.0","Windows","10.0","https://hz8g1ckzuq.cognition.run/","en-US,en;q=0.9","hwnao535qt8mvxz","54","[""Asian"",""White""]","No","Female","1075872.199999988","17086","","","{""price_1"":""200"",""price_2"":""200"",""price_3"":""200""}","rating","ctd","repulsion_1","2","televisions","null","null","null","null","null","null","2","30","40","25","100","90","100","Screen size","Average lifespan","",""
"","","","","","rating_trial_setup","html-keyboard-response","31","350001","0.0-3.0-0.14","60","1","2025-04-11 14:24:20","bb671e3ae32f654b8954ea4c4635f915","","Mozilla/5.0 (Windows NT 10.0; Win64; x64) AppleWebKit/537.36 (KHTML, like Gecko) Chrome/135.0.0.0 Safari/537.36","WebKit","Chrome","135.0.0.0","Windows","10.0","https://hz8g1ckzuq.cognition.run/","en-US,en;q=0.9","hwnao535qt8mvxz","54","[""Asian"",""White""]","No","Female","1075872.199999988","null","","<p></p>","null","rating","dtc","repulsion_2","2","washing machines","null","null","null","null","null","null","1","","","","","","","","","",""
"","","","","","rating_trial","survey-html-form","32","364698","0.0-3.0-1.14","60","1","2025-04-11 14:24:20","bb671e3ae32f654b8954ea4c4635f915","","Mozilla/5.0 (Windows NT 10.0; Win64; x64) AppleWebKit/537.36 (KHTML, like Gecko) Chrome/135.0.0.0 Safari/537.36","WebKit","Chrome","135.0.0.0","Windows","10.0","https://hz8g1ckzuq.cognition.run/","en-US,en;q=0.9","hwnao535qt8mvxz","54","[""Asian"",""White""]","No","Female","1075872.199999988","14695","","","{""price_1"":""600"",""price_2"":""600"",""price_3"":""600""}","rating","dtc","repulsion_2","2","washing machines","null","null","null","null","null","null","1","30","40","20","100","90","100","Average lifespan","Energy savings","",""
"","","","","","rating_trial_setup","html-keyboard-response","33","365000","0.0-3.0-0.15","60","1","2025-04-11 14:24:20","bb671e3ae32f654b8954ea4c4635f915","","Mozilla/5.0 (Windows NT 10.0; Win64; x64) AppleWebKit/537.36 (KHTML, like Gecko) Chrome/135.0.0.0 Safari/537.36","WebKit","Chrome","135.0.0.0","Windows","10.0","https://hz8g1ckzuq.cognition.run/","en-US,en;q=0.9","hwnao535qt8mvxz","54","[""Asian"",""White""]","No","Female","1075872.199999988","null","","<p></p>","null","rating","wbw","catch","null","laptops","55","95","10","20","20","50","1","","","","","","","","","",""
"","","","","","rating_trial","survey-html-form","34","382302","0.0-3.0-1.15","60","1","2025-04-11 14:24:20","bb671e3ae32f654b8954ea4c4635f915","","Mozilla/5.0 (Windows NT 10.0; Win64; x64) AppleWebKit/537.36 (KHTML, like Gecko) Chrome/135.0.0.0 Safari/537.36","WebKit","Chrome","135.0.0.0","Windows","10.0","https://hz8g1ckzuq.cognition.run/","en-US,en;q=0.9","hwnao535qt8mvxz","54","[""Asian"",""White""]","No","Female","1075872.199999988","17300","","","{""price_1"":""285"",""price_2"":""300"",""price_3"":""300""}","rating","wbw","catch","null","laptops","55","95","10","20","20","50","1","null","null","null","null","null","null","Processing speed","Memory (RAM)","",""
"","","","","","rating_trial_setup","html-keyboard-response","35","382606","0.0-3.0-0.16","60","1","2025-04-11 14:24:20","bb671e3ae32f654b8954ea4c4635f915","","Mozilla/5.0 (Windows NT 10.0; Win64; x64) AppleWebKit/537.36 (KHTML, like Gecko) Chrome/135.0.0.0 Safari/537.36","WebKit","Chrome","135.0.0.0","Windows","10.0","https://hz8g1ckzuq.cognition.run/","en-US,en;q=0.9","hwnao535qt8mvxz","54","[""Asian"",""White""]","No","Female","1075872.199999988","null","","<p></p>","null","rating","tcd","attraction_2","2","microwave ovens","null","null","null","null","null","null","1","","","","","","","","","",""
"","","","","","rating_trial","survey-html-form","36","392310","0.0-3.0-1.16","60","1","2025-04-11 14:24:20","bb671e3ae32f654b8954ea4c4635f915","","Mozilla/5.0 (Windows NT 10.0; Win64; x64) AppleWebKit/537.36 (KHTML, like Gecko) Chrome/135.0.0.0 Safari/537.36","WebKit","Chrome","135.0.0.0","Windows","10.0","https://hz8g1ckzuq.cognition.run/","en-US,en;q=0.9","hwnao535qt8mvxz","54","[""Asian"",""White""]","No","Female","1075872.199999988","9702","","","{""price_1"":""75"",""price_2"":""75"",""price_3"":""75""}","rating","tcd","attraction_2","2","microwave ovens","null","null","null","null","null","null","1","50","60","40","60","50","60","Warranty","Cooking power","",""
"","","","","","rating_trial_setup","html-keyboard-response","37","392613","0.0-3.0-0.17","60","1","2025-04-11 14:24:20","bb671e3ae32f654b8954ea4c4635f915","","Mozilla/5.0 (Windows NT 10.0; Win64; x64) AppleWebKit/537.36 (KHTML, like Gecko) Chrome/135.0.0.0 Safari/537.36","WebKit","Chrome","135.0.0.0","Windows","10.0","https://hz8g1ckzuq.cognition.run/","en-US,en;q=0.9","hwnao535qt8mvxz","54","[""Asian"",""White""]","No","Female","1075872.199999988","null","","<p></p>","null","rating","wwb","catch","null","washing machines","65","65","5","30","35","50","2","","","","","","","","","",""
"","","","","","rating_trial","survey-html-form","38","402958","0.0-3.0-1.17","60","1","2025-04-11 14:24:20","bb671e3ae32f654b8954ea4c4635f915","","Mozilla/5.0 (Windows NT 10.0; Win64; x64) AppleWebKit/537.36 (KHTML, like Gecko) Chrome/135.0.0.0 Safari/537.36","WebKit","Chrome","135.0.0.0","Windows","10.0","https://hz8g1ckzuq.cognition.run/","en-US,en;q=0.9","hwnao535qt8mvxz","54","[""Asian"",""White""]","No","Female","1075872.199999988","10340","","","{""price_1"":""150"",""price_2"":""150"",""price_3"":""200""}","rating","wwb","catch","null","washing machines","65","65","5","30","35","50","2","null","null","null","null","null","null","Average lifespan","Energy savings","",""
"","","","","","rating_trial_setup","html-keyboard-response","39","403261","0.0-3.0-0.18","60","1","2025-04-11 14:24:20","bb671e3ae32f654b8954ea4c4635f915","","Mozilla/5.0 (Windows NT 10.0; Win64; x64) AppleWebKit/537.36 (KHTML, like Gecko) Chrome/135.0.0.0 Safari/537.36","WebKit","Chrome","135.0.0.0","Windows","10.0","https://hz8g1ckzuq.cognition.run/","en-US,en;q=0.9","hwnao535qt8mvxz","54","[""Asian"",""White""]","No","Female","1075872.199999988","null","","<p></p>","null","rating","dtc","attraction_2","1","microwave ovens","null","null","null","null","null","null","1","","","","","","","","","",""
"","","","","","rating_trial","survey-html-form","40","416362","0.0-3.0-1.18","60","1","2025-04-11 14:24:20","bb671e3ae32f654b8954ea4c4635f915","","Mozilla/5.0 (Windows NT 10.0; Win64; x64) AppleWebKit/537.36 (KHTML, like Gecko) Chrome/135.0.0.0 Safari/537.36","WebKit","Chrome","135.0.0.0","Windows","10.0","https://hz8g1ckzuq.cognition.run/","en-US,en;q=0.9","hwnao535qt8mvxz","54","[""Asian"",""White""]","No","Female","1075872.199999988","13098","","","{""price_1"":""100"",""price_2"":""100"",""price_3"":""100""}","rating","dtc","attraction_2","1","microwave ovens","null","null","null","null","null","null","1","60","50","60","50","60","40","Warranty","Cooking power","",""
"","","","","","rating_trial_setup","html-keyboard-response","41","416665","0.0-3.0-0.19","60","1","2025-04-11 14:24:20","bb671e3ae32f654b8954ea4c4635f915","","Mozilla/5.0 (Windows NT 10.0; Win64; x64) AppleWebKit/537.36 (KHTML, like Gecko) Chrome/135.0.0.0 Safari/537.36","WebKit","Chrome","135.0.0.0","Windows","10.0","https://hz8g1ckzuq.cognition.run/","en-US,en;q=0.9","hwnao535qt8mvxz","54","[""Asian"",""White""]","No","Female","1075872.199999988","null","","<p></p>","null","rating","dct","repulsion_2","2","televisions","null","null","null","null","null","null","2","","","","","","","","","",""
"","","","","","rating_trial","survey-html-form","42","427828","0.0-3.0-1.19","60","1","2025-04-11 14:24:20","bb671e3ae32f654b8954ea4c4635f915","","Mozilla/5.0 (Windows NT 10.0; Win64; x64) AppleWebKit/537.36 (KHTML, like Gecko) Chrome/135.0.0.0 Safari/537.36","WebKit","Chrome","135.0.0.0","Windows","10.0","https://hz8g1ckzuq.cognition.run/","en-US,en;q=0.9","hwnao535qt8mvxz","54","[""Asian"",""White""]","No","Female","1075872.199999988","11161","","","{""price_1"":""300"",""price_2"":""300"",""price_3"":""300""}","rating","dct","repulsion_2","2","televisions","null","null","null","null","null","null","2","30","40","20","100","90","100","Screen size","Average lifespan","",""
"","","","","","rating_trial_setup","html-keyboard-response","43","428131","0.0-3.0-0.20","60","1","2025-04-11 14:24:20","bb671e3ae32f654b8954ea4c4635f915","","Mozilla/5.0 (Windows NT 10.0; Win64; x64) AppleWebKit/537.36 (KHTML, like Gecko) Chrome/135.0.0.0 Safari/537.36","WebKit","Chrome","135.0.0.0","Windows","10.0","https://hz8g1ckzuq.cognition.run/","en-US,en;q=0.9","hwnao535qt8mvxz","54","[""Asian"",""White""]","No","Female","1075872.199999988","null","","<p></p>","null","rating","cdt","repulsion_1","2","laptops","null","null","null","null","null","null","1","","","","","","","","","",""
"","","","","","rating_trial","survey-html-form","44","445310","0.0-3.0-1.20","60","1","2025-04-11 14:24:20","bb671e3ae32f654b8954ea4c4635f915","","Mozilla/5.0 (Windows NT 10.0; Win64; x64) AppleWebKit/537.36 (KHTML, like Gecko) Chrome/135.0.0.0 Safari/537.36","WebKit","Chrome","135.0.0.0","Windows","10.0","https://hz8g1ckzuq.cognition.run/","en-US,en;q=0.9","hwnao535qt8mvxz","54","[""Asian"",""White""]","No","Female","1075872.199999988","17176","","","{""price_1"":""250"",""price_2"":""200"",""price_3"":""225""}","rating","cdt","repulsion_1","2","laptops","null","null","null","null","null","null","1","30","40","25","100","90","100","Processing speed","Memory (RAM)","",""
"","","","","","rating_trial_setup","html-keyboard-response","45","445613","0.0-3.0-0.21","60","1","2025-04-11 14:24:20","bb671e3ae32f654b8954ea4c4635f915","","Mozilla/5.0 (Windows NT 10.0; Win64; x64) AppleWebKit/537.36 (KHTML, like Gecko) Chrome/135.0.0.0 Safari/537.36","WebKit","Chrome","135.0.0.0","Windows","10.0","https://hz8g1ckzuq.cognition.run/","en-US,en;q=0.9","hwnao535qt8mvxz","54","[""Asian"",""White""]","No","Female","1075872.199999988","null","","<p></p>","null","rating","ctd","attraction_1","1","televisions","null","null","null","null","null","null","1","","","","","","","","","",""
"","","","","","rating_trial","survey-html-form","46","455575","0.0-3.0-1.21","60","1","2025-04-11 14:24:20","bb671e3ae32f654b8954ea4c4635f915","","Mozilla/5.0 (Windows NT 10.0; Win64; x64) AppleWebKit/537.36 (KHTML, like Gecko) Chrome/135.0.0.0 Safari/537.36","WebKit","Chrome","135.0.0.0","Windows","10.0","https://hz8g1ckzuq.cognition.run/","en-US,en;q=0.9","hwnao535qt8mvxz","54","[""Asian"",""White""]","No","Female","1075872.199999988","9960","","","{""price_1"":""200"",""price_2"":""200"",""price_3"":""200""}","rating","ctd","attraction_1","1","televisions","null","null","null","null","null","null","1","60","50","60","50","60","45","Screen size","Average lifespan","",""
"","","","","","rating_trial_setup","html-keyboard-response","47","455878","0.0-3.0-0.22","60","1","2025-04-11 14:24:20","bb671e3ae32f654b8954ea4c4635f915","","Mozilla/5.0 (Windows NT 10.0; Win64; x64) AppleWebKit/537.36 (KHTML, like Gecko) Chrome/135.0.0.0 Safari/537.36","WebKit","Chrome","135.0.0.0","Windows","10.0","https://hz8g1ckzuq.cognition.run/","en-US,en;q=0.9","hwnao535qt8mvxz","54","[""Asian"",""White""]","No","Female","1075872.199999988","null","","<p></p>","null","rating","dtc","attraction_2","2","washing machines","null","null","null","null","null","null","2","","","","","","","","","",""
"","","","","","rating_trial","survey-html-form","48","466507","0.0-3.0-1.22","60","1","2025-04-11 14:24:20","bb671e3ae32f654b8954ea4c4635f915","","Mozilla/5.0 (Windows NT 10.0; Win64; x64) AppleWebKit/537.36 (KHTML, like Gecko) Chrome/135.0.0.0 Safari/537.36","WebKit","Chrome","135.0.0.0","Windows","10.0","https://hz8g1ckzuq.cognition.run/","en-US,en;q=0.9","hwnao535qt8mvxz","54","[""Asian"",""White""]","No","Female","1075872.199999988","10626","","","{""price_1"":""500"",""price_2"":""500"",""price_3"":""500""}","rating","dtc","attraction_2","2","washing machines","null","null","null","null","null","null","2","50","60","40","60","50","60","Average lifespan","Energy savings","",""
"","","","","","rating_trial_setup","html-keyboard-response","49","466810","0.0-3.0-0.23","60","1","2025-04-11 14:24:20","bb671e3ae32f654b8954ea4c4635f915","","Mozilla/5.0 (Windows NT 10.0; Win64; x64) AppleWebKit/537.36 (KHTML, like Gecko) Chrome/135.0.0.0 Safari/537.36","WebKit","Chrome","135.0.0.0","Windows","10.0","https://hz8g1ckzuq.cognition.run/","en-US,en;q=0.9","hwnao535qt8mvxz","54","[""Asian"",""White""]","No","Female","1075872.199999988","null","","<p></p>","null","rating","dtc","repulsion_1","1","televisions","null","null","null","null","null","null","1","","","","","","","","","",""
"","","","","","rating_trial","survey-html-form","50","478295","0.0-3.0-1.23","60","1","2025-04-11 14:24:20","bb671e3ae32f654b8954ea4c4635f915","","Mozilla/5.0 (Windows NT 10.0; Win64; x64) AppleWebKit/537.36 (KHTML, like Gecko) Chrome/135.0.0.0 Safari/537.36","WebKit","Chrome","135.0.0.0","Windows","10.0","https://hz8g1ckzuq.cognition.run/","en-US,en;q=0.9","hwnao535qt8mvxz","54","[""Asian"",""White""]","No","Female","1075872.199999988","11483","","","{""price_1"":""400"",""price_2"":""400"",""price_3"":""400""}","rating","dtc","repulsion_1","1","televisions","null","null","null","null","null","null","1","100","90","100","30","40","25","Screen size","Average lifespan","",""
"","","","","","rating_trial_setup","html-keyboard-response","51","478599","0.0-3.0-0.24","60","1","2025-04-11 14:24:20","bb671e3ae32f654b8954ea4c4635f915","","Mozilla/5.0 (Windows NT 10.0; Win64; x64) AppleWebKit/537.36 (KHTML, like Gecko) Chrome/135.0.0.0 Safari/537.36","WebKit","Chrome","135.0.0.0","Windows","10.0","https://hz8g1ckzuq.cognition.run/","en-US,en;q=0.9","hwnao535qt8mvxz","54","[""Asian"",""White""]","No","Female","1075872.199999988","null","","<p></p>","null","rating","cdt","repulsion_1","1","microwave ovens","null","null","null","null","null","null","1","","","","","","","","","",""
"","","","","","rating_trial","survey-html-form","52","498169","0.0-3.0-1.24","60","1","2025-04-11 14:24:20","bb671e3ae32f654b8954ea4c4635f915","","Mozilla/5.0 (Windows NT 10.0; Win64; x64) AppleWebKit/537.36 (KHTML, like Gecko) Chrome/135.0.0.0 Safari/537.36","WebKit","Chrome","135.0.0.0","Windows","10.0","https://hz8g1ckzuq.cognition.run/","en-US,en;q=0.9","hwnao535qt8mvxz","54","[""Asian"",""White""]","No","Female","1075872.199999988","19568","","","{""price_1"":""75"",""price_2"":""65"",""price_3"":""65""}","rating","cdt","repulsion_1","1","microwave ovens","null","null","null","null","null","null","1","100","90","100","30","40","25","Warranty","Cooking power","",""
"","","","","","rating_trial_setup","html-keyboard-response","53","498472","0.0-3.0-0.25","60","1","2025-04-11 14:24:20","bb671e3ae32f654b8954ea4c4635f915","","Mozilla/5.0 (Windows NT 10.0; Win64; x64) AppleWebKit/537.36 (KHTML, like Gecko) Chrome/135.0.0.0 Safari/537.36","WebKit","Chrome","135.0.0.0","Windows","10.0","https://hz8g1ckzuq.cognition.run/","en-US,en;q=0.9","hwnao535qt8mvxz","54","[""Asian"",""White""]","No","Female","1075872.199999988","null","","<p></p>","null","rating","dtc","repulsion_2","1","laptops","null","null","null","null","null","null","1","","","","","","","","","",""
"","","","","","rating_trial","survey-html-form","54","509824","0.0-3.0-1.25","60","1","2025-04-11 14:24:20","bb671e3ae32f654b8954ea4c4635f915","","Mozilla/5.0 (Windows NT 10.0; Win64; x64) AppleWebKit/537.36 (KHTML, like Gecko) Chrome/135.0.0.0 Safari/537.36","WebKit","Chrome","135.0.0.0","Windows","10.0","https://hz8g1ckzuq.cognition.run/","en-US,en;q=0.9","hwnao535qt8mvxz","54","[""Asian"",""White""]","No","Female","1075872.199999988","11350","","","{""price_1"":""200"",""price_2"":""200"",""price_3"":""200""}","rating","dtc","repulsion_2","1","laptops","null","null","null","null","null","null","1","100","90","100","30","40","20","Processing speed","Memory (RAM)","",""
"","","","","","rating_trial_setup","html-keyboard-response","55","510127","0.0-3.0-0.26","60","1","2025-04-11 14:24:20","bb671e3ae32f654b8954ea4c4635f915","","Mozilla/5.0 (Windows NT 10.0; Win64; x64) AppleWebKit/537.36 (KHTML, like Gecko) Chrome/135.0.0.0 Safari/537.36","WebKit","Chrome","135.0.0.0","Windows","10.0","https://hz8g1ckzuq.cognition.run/","en-US,en;q=0.9","hwnao535qt8mvxz","54","[""Asian"",""White""]","No","Female","1075872.199999988","null","","<p></p>","null","rating","tcd","attraction_1","1","laptops","null","null","null","null","null","null","1","","","","","","","","","",""
"","","","","","rating_trial","survey-html-form","56","520735","0.0-3.0-1.26","60","1","2025-04-11 14:24:20","bb671e3ae32f654b8954ea4c4635f915","","Mozilla/5.0 (Windows NT 10.0; Win64; x64) AppleWebKit/537.36 (KHTML, like Gecko) Chrome/135.0.0.0 Safari/537.36","WebKit","Chrome","135.0.0.0","Windows","10.0","https://hz8g1ckzuq.cognition.run/","en-US,en;q=0.9","hwnao535qt8mvxz","54","[""Asian"",""White""]","No","Female","1075872.199999988","10605","","","{""price_1"":""200"",""price_2"":""200"",""price_3"":""200""}","rating","tcd","attraction_1","1","laptops","null","null","null","null","null","null","1","60","50","60","50","60","45","Processing speed","Memory (RAM)","",""
"","","","","","rating_trial_setup","html-keyboard-response","57","521037","0.0-3.0-0.27","60","1","2025-04-11 14:24:20","bb671e3ae32f654b8954ea4c4635f915","","Mozilla/5.0 (Windows NT 10.0; Win64; x64) AppleWebKit/537.36 (KHTML, like Gecko) Chrome/135.0.0.0 Safari/537.36","WebKit","Chrome","135.0.0.0","Windows","10.0","https://hz8g1ckzuq.cognition.run/","en-US,en;q=0.9","hwnao535qt8mvxz","54","[""Asian"",""White""]","No","Female","1075872.199999988","null","","<p></p>","null","rating","dct","attraction_1","2","laptops","null","null","null","null","null","null","1","","","","","","","","","",""
"","","","","","rating_trial","survey-html-form","58","529998","0.0-3.0-1.27","60","1","2025-04-11 14:24:20","bb671e3ae32f654b8954ea4c4635f915","","Mozilla/5.0 (Windows NT 10.0; Win64; x64) AppleWebKit/537.36 (KHTML, like Gecko) Chrome/135.0.0.0 Safari/537.36","WebKit","Chrome","135.0.0.0","Windows","10.0","https://hz8g1ckzuq.cognition.run/","en-US,en;q=0.9","hwnao535qt8mvxz","54","[""Asian"",""White""]","No","Female","1075872.199999988","8958","","","{""price_1"":""200"",""price_2"":""200"",""price_3"":""200""}","rating","dct","attraction_1","2","laptops","null","null","null","null","null","null","1","50","60","45","60","50","60","Processing speed","Memory (RAM)","",""
"","","","","","rating_trial_setup","html-keyboard-response","59","530301","0.0-3.0-0.28","60","1","2025-04-11 14:24:20","bb671e3ae32f654b8954ea4c4635f915","","Mozilla/5.0 (Windows NT 10.0; Win64; x64) AppleWebKit/537.36 (KHTML, like Gecko) Chrome/135.0.0.0 Safari/537.36","WebKit","Chrome","135.0.0.0","Windows","10.0","https://hz8g1ckzuq.cognition.run/","en-US,en;q=0.9","hwnao535qt8mvxz","54","[""Asian"",""White""]","No","Female","1075872.199999988","null","","<p></p>","null","rating","tcd","attraction_2","1","laptops","null","null","null","null","null","null","1","","","","","","","","","",""
"","","","","","rating_trial","survey-html-form","60","537210","0.0-3.0-1.28","60","1","2025-04-11 14:24:20","bb671e3ae32f654b8954ea4c4635f915","","Mozilla/5.0 (Windows NT 10.0; Win64; x64) AppleWebKit/537.36 (KHTML, like Gecko) Chrome/135.0.0.0 Safari/537.36","WebKit","Chrome","135.0.0.0","Windows","10.0","https://hz8g1ckzuq.cognition.run/","en-US,en;q=0.9","hwnao535qt8mvxz","54","[""Asian"",""White""]","No","Female","1075872.199999988","6906","","","{""price_1"":""200"",""price_2"":""200"",""price_3"":""200""}","rating","tcd","attraction_2","1","laptops","null","null","null","null","null","null","1","60","50","60","50","60","40","Processing speed","Memory (RAM)","",""
"","","","","","rating_trial_setup","html-keyboard-response","61","537514","0.0-3.0-0.29","60","1","2025-04-11 14:24:20","bb671e3ae32f654b8954ea4c4635f915","","Mozilla/5.0 (Windows NT 10.0; Win64; x64) AppleWebKit/537.36 (KHTML, like Gecko) Chrome/135.0.0.0 Safari/537.36","WebKit","Chrome","135.0.0.0","Windows","10.0","https://hz8g1ckzuq.cognition.run/","en-US,en;q=0.9","hwnao535qt8mvxz","54","[""Asian"",""White""]","No","Female","1075872.199999988","null","","<p></p>","null","rating","ctd","repulsion_2","2","microwave ovens","null","null","null","null","null","null","2","","","","","","","","","",""
"","","","","","rating_trial","survey-html-form","62","557798","0.0-3.0-1.29","60","1","2025-04-11 14:24:20","bb671e3ae32f654b8954ea4c4635f915","","Mozilla/5.0 (Windows NT 10.0; Win64; x64) AppleWebKit/537.36 (KHTML, like Gecko) Chrome/135.0.0.0 Safari/537.36","WebKit","Chrome","135.0.0.0","Windows","10.0","https://hz8g1ckzuq.cognition.run/","en-US,en;q=0.9","hwnao535qt8mvxz","54","[""Asian"",""White""]","No","Female","1075872.199999988","20281","","","{""price_1"":""200"",""price_2"":""250"",""price_3"":""250""}","rating","ctd","repulsion_2","2","microwave ovens","null","null","null","null","null","null","2","30","40","20","100","90","100","Warranty","Cooking power","",""
"","","","","","rating_trial_setup","html-keyboard-response","63","558102","0.0-3.0-0.30","60","1","2025-04-11 14:24:20","bb671e3ae32f654b8954ea4c4635f915","","Mozilla/5.0 (Windows NT 10.0; Win64; x64) AppleWebKit/537.36 (KHTML, like Gecko) Chrome/135.0.0.0 Safari/537.36","WebKit","Chrome","135.0.0.0","Windows","10.0","https://hz8g1ckzuq.cognition.run/","en-US,en;q=0.9","hwnao535qt8mvxz","54","[""Asian"",""White""]","No","Female","1075872.199999988","null","","<p></p>","null","rating","tdc","repulsion_2","1","microwave ovens","null","null","null","null","null","null","2","","","","","","","","","",""
"","","","","","rating_trial","survey-html-form","64","566370","0.0-3.0-1.30","60","1","2025-04-11 14:24:20","bb671e3ae32f654b8954ea4c4635f915","","Mozilla/5.0 (Windows NT 10.0; Win64; x64) AppleWebKit/537.36 (KHTML, like Gecko) Chrome/135.0.0.0 Safari/537.36","WebKit","Chrome","135.0.0.0","Windows","10.0","https://hz8g1ckzuq.cognition.run/","en-US,en;q=0.9","hwnao535qt8mvxz","54","[""Asian"",""White""]","No","Female","1075872.199999988","8266","","","{""price_1"":""65"",""price_2"":""65"",""price_3"":""100""}","rating","tdc","repulsion_2","1","microwave ovens","null","null","null","null","null","null","2","100","90","100","30","40","20","Warranty","Cooking power","",""
"","","","","","rating_trial_setup","html-keyboard-response","65","566673","0.0-3.0-0.31","60","1","2025-04-11 14:24:20","bb671e3ae32f654b8954ea4c4635f915","","Mozilla/5.0 (Windows NT 10.0; Win64; x64) AppleWebKit/537.36 (KHTML, like Gecko) Chrome/135.0.0.0 Safari/537.36","WebKit","Chrome","135.0.0.0","Windows","10.0","https://hz8g1ckzuq.cognition.run/","en-US,en;q=0.9","hwnao535qt8mvxz","54","[""Asian"",""White""]","No","Female","1075872.199999988","null","","<p></p>","null","rating","tcd","attraction_1","2","televisions","null","null","null","null","null","null","1","","","","","","","","","",""
"","","","","","rating_trial","survey-html-form","66","578374","0.0-3.0-1.31","60","1","2025-04-11 14:24:20","bb671e3ae32f654b8954ea4c4635f915","","Mozilla/5.0 (Windows NT 10.0; Win64; x64) AppleWebKit/537.36 (KHTML, like Gecko) Chrome/135.0.0.0 Safari/537.36","WebKit","Chrome","135.0.0.0","Windows","10.0","https://hz8g1ckzuq.cognition.run/","en-US,en;q=0.9","hwnao535qt8mvxz","54","[""Asian"",""White""]","No","Female","1075872.199999988","11698","","","{""price_1"":""150"",""price_2"":""150"",""price_3"":""150""}","rating","tcd","attraction_1","2","televisions","null","null","null","null","null","null","1","50","60","45","60","50","60","Screen size","Average lifespan","",""
"","","","","","rating_trial_setup","html-keyboard-response","67","578681","0.0-3.0-0.32","60","1","2025-04-11 14:24:20","bb671e3ae32f654b8954ea4c4635f915","","Mozilla/5.0 (Windows NT 10.0; Win64; x64) AppleWebKit/537.36 (KHTML, like Gecko) Chrome/135.0.0.0 Safari/537.36","WebKit","Chrome","135.0.0.0","Windows","10.0","https://hz8g1ckzuq.cognition.run/","en-US,en;q=0.9","hwnao535qt8mvxz","54","[""Asian"",""White""]","No","Female","1075872.199999988","null","","<p></p>","null","rating","dct","attraction_2","1","washing machines","null","null","null","null","null","null","2","","","","","","","","","",""
"","","","","","rating_trial","survey-html-form","68","586812","0.0-3.0-1.32","60","1","2025-04-11 14:24:20","bb671e3ae32f654b8954ea4c4635f915","","Mozilla/5.0 (Windows NT 10.0; Win64; x64) AppleWebKit/537.36 (KHTML, like Gecko) Chrome/135.0.0.0 Safari/537.36","WebKit","Chrome","135.0.0.0","Windows","10.0","https://hz8g1ckzuq.cognition.run/","en-US,en;q=0.9","hwnao535qt8mvxz","54","[""Asian"",""White""]","No","Female","1075872.199999988","8128","","","{""price_1"":""300"",""price_2"":""300"",""price_3"":""300""}","rating","dct","attraction_2","1","washing machines","null","null","null","null","null","null","2","60","50","60","50","60","40","Average lifespan","Energy savings","",""
"","","","","","rating_trial_setup","html-keyboard-response","69","587115","0.0-3.0-0.33","60","1","2025-04-11 14:24:20","bb671e3ae32f654b8954ea4c4635f915","","Mozilla/5.0 (Windows NT 10.0; Win64; x64) AppleWebKit/537.36 (KHTML, like Gecko) Chrome/135.0.0.0 Safari/537.36","WebKit","Chrome","135.0.0.0","Windows","10.0","https://hz8g1ckzuq.cognition.run/","en-US,en;q=0.9","hwnao535qt8mvxz","54","[""Asian"",""White""]","No","Female","1075872.199999988","null","","<p></p>","null","rating","dct","attraction_1","2","microwave ovens","null","null","null","null","null","null","2","","","","","","","","","",""
"","","","","","rating_trial","survey-html-form","70","597356","0.0-3.0-1.33","60","1","2025-04-11 14:24:20","bb671e3ae32f654b8954ea4c4635f915","","Mozilla/5.0 (Windows NT 10.0; Win64; x64) AppleWebKit/537.36 (KHTML, like Gecko) Chrome/135.0.0.0 Safari/537.36","WebKit","Chrome","135.0.0.0","Windows","10.0","https://hz8g1ckzuq.cognition.run/","en-US,en;q=0.9","hwnao535qt8mvxz","54","[""Asian"",""White""]","No","Female","1075872.199999988","10237","","","{""price_1"":""75"",""price_2"":""75"",""price_3"":""75""}","rating","dct","attraction_1","2","microwave ovens","null","null","null","null","null","null","2","50","60","45","60","50","60","Warranty","Cooking power","",""
"","","","","","rating_trial_setup","html-keyboard-response","71","597659","0.0-3.0-0.34","60","1","2025-04-11 14:24:20","bb671e3ae32f654b8954ea4c4635f915","","Mozilla/5.0 (Windows NT 10.0; Win64; x64) AppleWebKit/537.36 (KHTML, like Gecko) Chrome/135.0.0.0 Safari/537.36","WebKit","Chrome","135.0.0.0","Windows","10.0","https://hz8g1ckzuq.cognition.run/","en-US,en;q=0.9","hwnao535qt8mvxz","54","[""Asian"",""White""]","No","Female","1075872.199999988","null","","<p></p>","null","rating","dtc","attraction_2","2","televisions","null","null","null","null","null","null","2","","","","","","","","","",""
"","","","","","rating_trial","survey-html-form","72","607218","0.0-3.0-1.34","60","1","2025-04-11 14:24:20","bb671e3ae32f654b8954ea4c4635f915","","Mozilla/5.0 (Windows NT 10.0; Win64; x64) AppleWebKit/537.36 (KHTML, like Gecko) Chrome/135.0.0.0 Safari/537.36","WebKit","Chrome","135.0.0.0","Windows","10.0","https://hz8g1ckzuq.cognition.run/","en-US,en;q=0.9","hwnao535qt8mvxz","54","[""Asian"",""White""]","No","Female","1075872.199999988","9556","","","{""price_1"":""150"",""price_2"":""150"",""price_3"":""150""}","rating","dtc","attraction_2","2","televisions","null","null","null","null","null","null","2","50","60","40","60","50","60","Screen size","Average lifespan","",""
"","","","","","rating_trial_setup","html-keyboard-response","73","607521","0.0-3.0-0.35","60","1","2025-04-11 14:24:20","bb671e3ae32f654b8954ea4c4635f915","","Mozilla/5.0 (Windows NT 10.0; Win64; x64) AppleWebKit/537.36 (KHTML, like Gecko) Chrome/135.0.0.0 Safari/537.36","WebKit","Chrome","135.0.0.0","Windows","10.0","https://hz8g1ckzuq.cognition.run/","en-US,en;q=0.9","hwnao535qt8mvxz","54","[""Asian"",""White""]","No","Female","1075872.199999988","null","","<p></p>","null","rating","cdt","repulsion_1","2","washing machines","null","null","null","null","null","null","1","","","","","","","","","",""
"","","","","","rating_trial","survey-html-form","74","620355","0.0-3.0-1.35","60","1","2025-04-11 14:24:20","bb671e3ae32f654b8954ea4c4635f915","","Mozilla/5.0 (Windows NT 10.0; Win64; x64) AppleWebKit/537.36 (KHTML, like Gecko) Chrome/135.0.0.0 Safari/537.36","WebKit","Chrome","135.0.0.0","Windows","10.0","https://hz8g1ckzuq.cognition.run/","en-US,en;q=0.9","hwnao535qt8mvxz","54","[""Asian"",""White""]","No","Female","1075872.199999988","12832","","","{""price_1"":""500"",""price_2"":""475"",""price_3"":""475""}","rating","cdt","repulsion_1","2","washing machines","null","null","null","null","null","null","1","30","40","25","100","90","100","Average lifespan","Energy savings","",""
"","","","","","rating_trial_setup","html-keyboard-response","75","620659","0.0-3.0-0.36","60","1","2025-04-11 14:24:20","bb671e3ae32f654b8954ea4c4635f915","","Mozilla/5.0 (Windows NT 10.0; Win64; x64) AppleWebKit/537.36 (KHTML, like Gecko) Chrome/135.0.0.0 Safari/537.36","WebKit","Chrome","135.0.0.0","Windows","10.0","https://hz8g1ckzuq.cognition.run/","en-US,en;q=0.9","hwnao535qt8mvxz","54","[""Asian"",""White""]","No","Female","1075872.199999988","null","","<p></p>","null","rating","tdc","attraction_2","1","televisions","null","null","null","null","null","null","2","","","","","","","","","",""
"","","","","","rating_trial","survey-html-form","76","630775","0.0-3.0-1.36","60","1","2025-04-11 14:24:20","bb671e3ae32f654b8954ea4c4635f915","","Mozilla/5.0 (Windows NT 10.0; Win64; x64) AppleWebKit/537.36 (KHTML, like Gecko) Chrome/135.0.0.0 Safari/537.36","WebKit","Chrome","135.0.0.0","Windows","10.0","https://hz8g1ckzuq.cognition.run/","en-US,en;q=0.9","hwnao535qt8mvxz","54","[""Asian"",""White""]","No","Female","1075872.199999988","10113","","","{""price_1"":""150"",""price_2"":""150"",""price_3"":""150""}","rating","tdc","attraction_2","1","televisions","null","null","null","null","null","null","2","60","50","60","50","60","40","Screen size","Average lifespan","",""
"","","","","","rating_trial_setup","html-keyboard-response","77","631094","0.0-3.0-0.37","60","1","2025-04-11 14:24:20","bb671e3ae32f654b8954ea4c4635f915","","Mozilla/5.0 (Windows NT 10.0; Win64; x64) AppleWebKit/537.36 (KHTML, like Gecko) Chrome/135.0.0.0 Safari/537.36","WebKit","Chrome","135.0.0.0","Windows","10.0","https://hz8g1ckzuq.cognition.run/","en-US,en;q=0.9","hwnao535qt8mvxz","54","[""Asian"",""White""]","No","Female","1075872.199999988","null","","<p></p>","null","rating","wbw","catch","null","laptops","95","70","50","40","25","35","2","","","","","","","","","",""
"","","","","","rating_trial","survey-html-form","78","646591","0.0-3.0-1.37","60","1","2025-04-11 14:24:20","bb671e3ae32f654b8954ea4c4635f915","","Mozilla/5.0 (Windows NT 10.0; Win64; x64) AppleWebKit/537.36 (KHTML, like Gecko) Chrome/135.0.0.0 Safari/537.36","WebKit","Chrome","135.0.0.0","Windows","10.0","https://hz8g1ckzuq.cognition.run/","en-US,en;q=0.9","hwnao535qt8mvxz","54","[""Asian"",""White""]","No","Female","1075872.199999988","15494","","","{""price_1"":""200"",""price_2"":""400"",""price_3"":""200""}","rating","wbw","catch","null","laptops","95","70","50","40","25","35","2","null","null","null","null","null","null","Processing speed","Memory (RAM)","",""
"","","","","","rating_trial_setup","html-keyboard-response","79","646895","0.0-3.0-0.38","60","1","2025-04-11 14:24:20","bb671e3ae32f654b8954ea4c4635f915","","Mozilla/5.0 (Windows NT 10.0; Win64; x64) AppleWebKit/537.36 (KHTML, like Gecko) Chrome/135.0.0.0 Safari/537.36","WebKit","Chrome","135.0.0.0","Windows","10.0","https://hz8g1ckzuq.cognition.run/","en-US,en;q=0.9","hwnao535qt8mvxz","54","[""Asian"",""White""]","No","Female","1075872.199999988","null","","<p></p>","null","rating","ctd","repulsion_2","1","washing machines","null","null","null","null","null","null","2","","","","","","","","","",""
"","","","","","rating_trial","survey-html-form","80","659543","0.0-3.0-1.38","60","1","2025-04-11 14:24:20","bb671e3ae32f654b8954ea4c4635f915","","Mozilla/5.0 (Windows NT 10.0; Win64; x64) AppleWebKit/537.36 (KHTML, like Gecko) Chrome/135.0.0.0 Safari/537.36","WebKit","Chrome","135.0.0.0","Windows","10.0","https://hz8g1ckzuq.cognition.run/","en-US,en;q=0.9","hwnao535qt8mvxz","54","[""Asian"",""White""]","No","Female","1075872.199999988","12644","","","{""price_1"":""400"",""price_2"":""350"",""price_3"":""350""}","rating","ctd","repulsion_2","1","washing machines","null","null","null","null","null","null","2","100","90","100","30","40","20","Average lifespan","Energy savings","",""
"","","","","","rating_trial_setup","html-keyboard-response","81","659847","0.0-3.0-0.39","60","1","2025-04-11 14:24:20","bb671e3ae32f654b8954ea4c4635f915","","Mozilla/5.0 (Windows NT 10.0; Win64; x64) AppleWebKit/537.36 (KHTML, like Gecko) Chrome/135.0.0.0 Safari/537.36","WebKit","Chrome","135.0.0.0","Windows","10.0","https://hz8g1ckzuq.cognition.run/","en-US,en;q=0.9","hwnao535qt8mvxz","54","[""Asian"",""White""]","No","Female","1075872.199999988","null","","<p></p>","null","rating","tcd","repulsion_2","1","televisions","null","null","null","null","null","null","2","","","","","","","","","",""
"","","","","","rating_trial","survey-html-form","82","689871","0.0-3.0-1.39","60","1","2025-04-11 14:24:20","bb671e3ae32f654b8954ea4c4635f915","","Mozilla/5.0 (Windows NT 10.0; Win64; x64) AppleWebKit/537.36 (KHTML, like Gecko) Chrome/135.0.0.0 Safari/537.36","WebKit","Chrome","135.0.0.0","Windows","10.0","https://hz8g1ckzuq.cognition.run/","en-US,en;q=0.9","hwnao535qt8mvxz","54","[""Asian"",""White""]","No","Female","1075872.199999988","30020","","","{""price_1"":""500"",""price_2"":""500"",""price_3"":""400""}","rating","tcd","repulsion_2","1","televisions","null","null","null","null","null","null","2","100","90","100","30","40","20","Screen size","Average lifespan","",""
"","","","","","","instructions","83","718410","0.0-4.0","60","1","2025-04-11 14:24:20","bb671e3ae32f654b8954ea4c4635f915","","Mozilla/5.0 (Windows NT 10.0; Win64; x64) AppleWebKit/537.36 (KHTML, like Gecko) Chrome/135.0.0.0 Safari/537.36","WebKit","Chrome","135.0.0.0","Windows","10.0","https://hz8g1ckzuq.cognition.run/","en-US,en;q=0.9","hwnao535qt8mvxz","54","[""Asian"",""White""]","No","Female","1075872.199999988","28536","[{""page_index"":0,""viewing_time"":2050},{""page_index"":1,""viewing_time"":1978},{""page_index"":2,""viewing_time"":4558},{""page_index"":3,""viewing_time"":4070},{""page_index"":4,""viewing_time"":3424},{""page_index"":5,""viewing_time"":1268},{""page_index"":6,""viewing_time"":6166},{""page_index"":7,""viewing_time"":5022}]","","","","","","","","","","","","","","","","","","","","","","","",""
"","","","","","choice_trial_setup","html-keyboard-response","84","718714","0.0-5.0-0.0","60","1","2025-04-11 14:24:20","bb671e3ae32f654b8954ea4c4635f915","","Mozilla/5.0 (Windows NT 10.0; Win64; x64) AppleWebKit/537.36 (KHTML, like Gecko) Chrome/135.0.0.0 Safari/537.36","WebKit","Chrome","135.0.0.0","Windows","10.0","https://hz8g1ckzuq.cognition.run/","en-US,en;q=0.9","hwnao535qt8mvxz","54","[""Asian"",""White""]","No","Female","1075872.199999988","null","","<p></p>","null","choice","tdc","repulsion_1","2","televisions","null","null","null","null","null","null","2","","","","","","","","","",""
"","","","","","choice_trial","survey-html-form","85","729854","0.0-5.0-1.0","60","1","2025-04-11 14:24:20","bb671e3ae32f654b8954ea4c4635f915","","Mozilla/5.0 (Windows NT 10.0; Win64; x64) AppleWebKit/537.36 (KHTML, like Gecko) Chrome/135.0.0.0 Safari/537.36","WebKit","Chrome","135.0.0.0","Windows","10.0","https://hz8g1ckzuq.cognition.run/","en-US,en;q=0.9","hwnao535qt8mvxz","54","[""Asian"",""White""]","No","Female","1075872.199999988","11133","","","{""product_choice"":""C""}","choice","tdc","repulsion_1","2","televisions","null","null","null","null","null","null","2","30","40","25","100","90","100","Screen size","Average lifespan","",""
"","","","","","choice_trial_setup","html-keyboard-response","86","730156","0.0-5.0-0.1","60","1","2025-04-11 14:24:20","bb671e3ae32f654b8954ea4c4635f915","","Mozilla/5.0 (Windows NT 10.0; Win64; x64) AppleWebKit/537.36 (KHTML, like Gecko) Chrome/135.0.0.0 Safari/537.36","WebKit","Chrome","135.0.0.0","Windows","10.0","https://hz8g1ckzuq.cognition.run/","en-US,en;q=0.9","hwnao535qt8mvxz","54","[""Asian"",""White""]","No","Female","1075872.199999988","null","","<p></p>","null","choice","dtc","repulsion_1","1","laptops","null","null","null","null","null","null","1","","","","","","","","","",""
"","","","","","choice_trial","survey-html-form","87","737812","0.0-5.0-1.1","60","1","2025-04-11 14:24:20","bb671e3ae32f654b8954ea4c4635f915","","Mozilla/5.0 (Windows NT 10.0; Win64; x64) AppleWebKit/537.36 (KHTML, like Gecko) Chrome/135.0.0.0 Safari/537.36","WebKit","Chrome","135.0.0.0","Windows","10.0","https://hz8g1ckzuq.cognition.run/","en-US,en;q=0.9","hwnao535qt8mvxz","54","[""Asian"",""White""]","No","Female","1075872.199999988","7649","","","{""product_choice"":""C""}","choice","dtc","repulsion_1","1","laptops","null","null","null","null","null","null","1","100","90","100","30","40","25","Processing speed","Memory (RAM)","",""
"","","","","","choice_trial_setup","html-keyboard-response","88","738115","0.0-5.0-0.2","60","1","2025-04-11 14:24:20","bb671e3ae32f654b8954ea4c4635f915","","Mozilla/5.0 (Windows NT 10.0; Win64; x64) AppleWebKit/537.36 (KHTML, like Gecko) Chrome/135.0.0.0 Safari/537.36","WebKit","Chrome","135.0.0.0","Windows","10.0","https://hz8g1ckzuq.cognition.run/","en-US,en;q=0.9","hwnao535qt8mvxz","54","[""Asian"",""White""]","No","Female","1075872.199999988","null","","<p></p>","null","choice","tdc","repulsion_1","2","microwave ovens","null","null","null","null","null","null","1","","","","","","","","","",""
"","","","","","choice_trial","survey-html-form","89","747726","0.0-5.0-1.2","60","1","2025-04-11 14:24:20","bb671e3ae32f654b8954ea4c4635f915","","Mozilla/5.0 (Windows NT 10.0; Win64; x64) AppleWebKit/537.36 (KHTML, like Gecko) Chrome/135.0.0.0 Safari/537.36","WebKit","Chrome","135.0.0.0","Windows","10.0","https://hz8g1ckzuq.cognition.run/","en-US,en;q=0.9","hwnao535qt8mvxz","54","[""Asian"",""White""]","No","Female","1075872.199999988","9604","","","{""product_choice"":""C""}","choice","tdc","repulsion_1","2","microwave ovens","null","null","null","null","null","null","1","30","40","25","100","90","100","Warranty","Cooking power","",""
"","","","","","choice_trial_setup","html-keyboard-response","90","748030","0.0-5.0-0.3","60","1","2025-04-11 14:24:20","bb671e3ae32f654b8954ea4c4635f915","","Mozilla/5.0 (Windows NT 10.0; Win64; x64) AppleWebKit/537.36 (KHTML, like Gecko) Chrome/135.0.0.0 Safari/537.36","WebKit","Chrome","135.0.0.0","Windows","10.0","https://hz8g1ckzuq.cognition.run/","en-US,en;q=0.9","hwnao535qt8mvxz","54","[""Asian"",""White""]","No","Female","1075872.199999988","null","","<p></p>","null","choice","dtc","attraction_2","2","laptops","null","null","null","null","null","null","1","","","","","","","","","",""
"","","","","","choice_trial","survey-html-form","91","759616","0.0-5.0-1.3","60","1","2025-04-11 14:24:20","bb671e3ae32f654b8954ea4c4635f915","","Mozilla/5.0 (Windows NT 10.0; Win64; x64) AppleWebKit/537.36 (KHTML, like Gecko) Chrome/135.0.0.0 Safari/537.36","WebKit","Chrome","135.0.0.0","Windows","10.0","https://hz8g1ckzuq.cognition.run/","en-US,en;q=0.9","hwnao535qt8mvxz","54","[""Asian"",""White""]","No","Female","1075872.199999988","11580","","","{""product_choice"":""B""}","choice","dtc","attraction_2","2","laptops","null","null","null","null","null","null","1","50","60","40","60","50","60","Processing speed","Memory (RAM)","",""
"","","","","","choice_trial_setup","html-keyboard-response","92","759919","0.0-5.0-0.4","60","1","2025-04-11 14:24:20","bb671e3ae32f654b8954ea4c4635f915","","Mozilla/5.0 (Windows NT 10.0; Win64; x64) AppleWebKit/537.36 (KHTML, like Gecko) Chrome/135.0.0.0 Safari/537.36","WebKit","Chrome","135.0.0.0","Windows","10.0","https://hz8g1ckzuq.cognition.run/","en-US,en;q=0.9","hwnao535qt8mvxz","54","[""Asian"",""White""]","No","Female","1075872.199999988","null","","<p></p>","null","choice","cdt","attraction_2","1","televisions","null","null","null","null","null","null","1","","","","","","","","","",""
"","","","","","choice_trial","survey-html-form","93","768265","0.0-5.0-1.4","60","1","2025-04-11 14:24:20","bb671e3ae32f654b8954ea4c4635f915","","Mozilla/5.0 (Windows NT 10.0; Win64; x64) AppleWebKit/537.36 (KHTML, like Gecko) Chrome/135.0.0.0 Safari/537.36","WebKit","Chrome","135.0.0.0","Windows","10.0","https://hz8g1ckzuq.cognition.run/","en-US,en;q=0.9","hwnao535qt8mvxz","54","[""Asian"",""White""]","No","Female","1075872.199999988","8340","","","{""product_choice"":""C""}","choice","cdt","attraction_2","1","televisions","null","null","null","null","null","null","1","60","50","60","50","60","40","Screen size","Average lifespan","",""
"","","","","","choice_trial_setup","html-keyboard-response","94","768569","0.0-5.0-0.5","60","1","2025-04-11 14:24:20","bb671e3ae32f654b8954ea4c4635f915","","Mozilla/5.0 (Windows NT 10.0; Win64; x64) AppleWebKit/537.36 (KHTML, like Gecko) Chrome/135.0.0.0 Safari/537.36","WebKit","Chrome","135.0.0.0","Windows","10.0","https://hz8g1ckzuq.cognition.run/","en-US,en;q=0.9","hwnao535qt8mvxz","54","[""Asian"",""White""]","No","Female","1075872.199999988","null","","<p></p>","null","choice","tcd","attraction_1","1","microwave ovens","null","null","null","null","null","null","1","","","","","","","","","",""
"","","","","","choice_trial","survey-html-form","95","776851","0.0-5.0-1.5","60","1","2025-04-11 14:24:20","bb671e3ae32f654b8954ea4c4635f915","","Mozilla/5.0 (Windows NT 10.0; Win64; x64) AppleWebKit/537.36 (KHTML, like Gecko) Chrome/135.0.0.0 Safari/537.36","WebKit","Chrome","135.0.0.0","Windows","10.0","https://hz8g1ckzuq.cognition.run/","en-US,en;q=0.9","hwnao535qt8mvxz","54","[""Asian"",""White""]","No","Female","1075872.199999988","8276","","","{""product_choice"":""B""}","choice","tcd","attraction_1","1","microwave ovens","null","null","null","null","null","null","1","60","50","60","50","60","45","Warranty","Cooking power","",""
"","","","","","choice_trial_setup","html-keyboard-response","96","777155","0.0-5.0-0.6","60","1","2025-04-11 14:24:20","bb671e3ae32f654b8954ea4c4635f915","","Mozilla/5.0 (Windows NT 10.0; Win64; x64) AppleWebKit/537.36 (KHTML, like Gecko) Chrome/135.0.0.0 Safari/537.36","WebKit","Chrome","135.0.0.0","Windows","10.0","https://hz8g1ckzuq.cognition.run/","en-US,en;q=0.9","hwnao535qt8mvxz","54","[""Asian"",""White""]","No","Female","1075872.199999988","null","","<p></p>","null","choice","bww","catch","null","washing machines","80","80","45","5","10","5","1","","","","","","","","","",""
"","","","","","choice_trial","survey-html-form","97","782503","0.0-5.0-1.6","60","1","2025-04-11 14:24:20","bb671e3ae32f654b8954ea4c4635f915","","Mozilla/5.0 (Windows NT 10.0; Win64; x64) AppleWebKit/537.36 (KHTML, like Gecko) Chrome/135.0.0.0 Safari/537.36","WebKit","Chrome","135.0.0.0","Windows","10.0","https://hz8g1ckzuq.cognition.run/","en-US,en;q=0.9","hwnao535qt8mvxz","54","[""Asian"",""White""]","No","Female","1075872.199999988","5342","","","{""product_choice"":""A""}","choice","bww","catch","null","washing machines","80","80","45","5","10","5","1","null","null","null","null","null","null","Average lifespan","Energy savings","",""
"","","","","","choice_trial_setup","html-keyboard-response","98","782807","0.0-5.0-0.7","60","1","2025-04-11 14:24:20","bb671e3ae32f654b8954ea4c4635f915","","Mozilla/5.0 (Windows NT 10.0; Win64; x64) AppleWebKit/537.36 (KHTML, like Gecko) Chrome/135.0.0.0 Safari/537.36","WebKit","Chrome","135.0.0.0","Windows","10.0","https://hz8g1ckzuq.cognition.run/","en-US,en;q=0.9","hwnao535qt8mvxz","54","[""Asian"",""White""]","No","Female","1075872.199999988","null","","<p></p>","null","choice","dtc","attraction_1","2","televisions","null","null","null","null","null","null","1","","","","","","","","","",""
"","","","","","choice_trial","survey-html-form","99","791919","0.0-5.0-1.7","60","1","2025-04-11 14:24:20","bb671e3ae32f654b8954ea4c4635f915","","Mozilla/5.0 (Windows NT 10.0; Win64; x64) AppleWebKit/537.36 (KHTML, like Gecko) Chrome/135.0.0.0 Safari/537.36","WebKit","Chrome","135.0.0.0","Windows","10.0","https://hz8g1ckzuq.cognition.run/","en-US,en;q=0.9","hwnao535qt8mvxz","54","[""Asian"",""White""]","No","Female","1075872.199999988","9107","","","{""product_choice"":""C""}","choice","dtc","attraction_1","2","televisions","null","null","null","null","null","null","1","50","60","45","60","50","60","Screen size","Average lifespan","",""
"","","","","","choice_trial_setup","html-keyboard-response","100","792223","0.0-5.0-0.8","60","1","2025-04-11 14:24:20","bb671e3ae32f654b8954ea4c4635f915","","Mozilla/5.0 (Windows NT 10.0; Win64; x64) AppleWebKit/537.36 (KHTML, like Gecko) Chrome/135.0.0.0 Safari/537.36","WebKit","Chrome","135.0.0.0","Windows","10.0","https://hz8g1ckzuq.cognition.run/","en-US,en;q=0.9","hwnao535qt8mvxz","54","[""Asian"",""White""]","No","Female","1075872.199999988","null","","<p></p>","null","choice","tdc","repulsion_1","1","washing machines","null","null","null","null","null","null","1","","","","","","","","","",""
"","","","","","choice_trial","survey-html-form","101","798423","0.0-5.0-1.8","60","1","2025-04-11 14:24:20","bb671e3ae32f654b8954ea4c4635f915","","Mozilla/5.0 (Windows NT 10.0; Win64; x64) AppleWebKit/537.36 (KHTML, like Gecko) Chrome/135.0.0.0 Safari/537.36","WebKit","Chrome","135.0.0.0","Windows","10.0","https://hz8g1ckzuq.cognition.run/","en-US,en;q=0.9","hwnao535qt8mvxz","54","[""Asian"",""White""]","No","Female","1075872.199999988","6196","","","{""product_choice"":""C""}","choice","tdc","repulsion_1","1","washing machines","null","null","null","null","null","null","1","100","90","100","30","40","25","Average lifespan","Energy savings","",""
"","","","","","choice_trial_setup","html-keyboard-response","102","798727","0.0-5.0-0.9","60","1","2025-04-11 14:24:20","bb671e3ae32f654b8954ea4c4635f915","","Mozilla/5.0 (Windows NT 10.0; Win64; x64) AppleWebKit/537.36 (KHTML, like Gecko) Chrome/135.0.0.0 Safari/537.36","WebKit","Chrome","135.0.0.0","Windows","10.0","https://hz8g1ckzuq.cognition.run/","en-US,en;q=0.9","hwnao535qt8mvxz","54","[""Asian"",""White""]","No","Female","1075872.199999988","null","","<p></p>","null","choice","tdc","repulsion_1","1","televisions","null","null","null","null","null","null","2","","","","","","","","","",""
"","","","","","choice_trial","survey-html-form","103","807793","0.0-5.0-1.9","60","1","2025-04-11 14:24:20","bb671e3ae32f654b8954ea4c4635f915","","Mozilla/5.0 (Windows NT 10.0; Win64; x64) AppleWebKit/537.36 (KHTML, like Gecko) Chrome/135.0.0.0 Safari/537.36","WebKit","Chrome","135.0.0.0","Windows","10.0","https://hz8g1ckzuq.cognition.run/","en-US,en;q=0.9","hwnao535qt8mvxz","54","[""Asian"",""White""]","No","Female","1075872.199999988","9060","","","{""product_choice"":""C""}","choice","tdc","repulsion_1","1","televisions","null","null","null","null","null","null","2","100","90","100","30","40","25","Screen size","Average lifespan","",""
"","","","","","choice_trial_setup","html-keyboard-response","104","808097","0.0-5.0-0.10","60","1","2025-04-11 14:24:20","bb671e3ae32f654b8954ea4c4635f915","","Mozilla/5.0 (Windows NT 10.0; Win64; x64) AppleWebKit/537.36 (KHTML, like Gecko) Chrome/135.0.0.0 Safari/537.36","WebKit","Chrome","135.0.0.0","Windows","10.0","https://hz8g1ckzuq.cognition.run/","en-US,en;q=0.9","hwnao535qt8mvxz","54","[""Asian"",""White""]","No","Female","1075872.199999988","null","","<p></p>","null","choice","wwb","catch","null","washing machines","55","60","50","15","5","45","2","","","","","","","","","",""
"","","","","","choice_trial","survey-html-form","105","813855","0.0-5.0-1.10","60","1","2025-04-11 14:24:20","bb671e3ae32f654b8954ea4c4635f915","","Mozilla/5.0 (Windows NT 10.0; Win64; x64) AppleWebKit/537.36 (KHTML, like Gecko) Chrome/135.0.0.0 Safari/537.36","WebKit","Chrome","135.0.0.0","Windows","10.0","https://hz8g1ckzuq.cognition.run/","en-US,en;q=0.9","hwnao535qt8mvxz","54","[""Asian"",""White""]","No","Female","1075872.199999988","5752","","","{""product_choice"":""C""}","choice","wwb","catch","null","washing machines","55","60","50","15","5","45","2","null","null","null","null","null","null","Average lifespan","Energy savings","",""
"","","","","","choice_trial_setup","html-keyboard-response","106","814158","0.0-5.0-0.11","60","1","2025-04-11 14:24:20","bb671e3ae32f654b8954ea4c4635f915","","Mozilla/5.0 (Windows NT 10.0; Win64; x64) AppleWebKit/537.36 (KHTML, like Gecko) Chrome/135.0.0.0 Safari/537.36","WebKit","Chrome","135.0.0.0","Windows","10.0","https://hz8g1ckzuq.cognition.run/","en-US,en;q=0.9","hwnao535qt8mvxz","54","[""Asian"",""White""]","No","Female","1075872.199999988","null","","<p></p>","null","choice","cdt","attraction_1","1","laptops","null","null","null","null","null","null","2","","","","","","","","","",""
"","","","","","choice_trial","survey-html-form","107","821609","0.0-5.0-1.11","60","1","2025-04-11 14:24:20","bb671e3ae32f654b8954ea4c4635f915","","Mozilla/5.0 (Windows NT 10.0; Win64; x64) AppleWebKit/537.36 (KHTML, like Gecko) Chrome/135.0.0.0 Safari/537.36","WebKit","Chrome","135.0.0.0","Windows","10.0","https://hz8g1ckzuq.cognition.run/","en-US,en;q=0.9","hwnao535qt8mvxz","54","[""Asian"",""White""]","No","Female","1075872.199999988","7444","","","{""product_choice"":""C""}","choice","cdt","attraction_1","1","laptops","null","null","null","null","null","null","2","60","50","60","50","60","45","Processing speed","Memory (RAM)","",""
"","","","","","choice_trial_setup","html-keyboard-response","108","821914","0.0-5.0-0.12","60","1","2025-04-11 14:24:20","bb671e3ae32f654b8954ea4c4635f915","","Mozilla/5.0 (Windows NT 10.0; Win64; x64) AppleWebKit/537.36 (KHTML, like Gecko) Chrome/135.0.0.0 Safari/537.36","WebKit","Chrome","135.0.0.0","Windows","10.0","https://hz8g1ckzuq.cognition.run/","en-US,en;q=0.9","hwnao535qt8mvxz","54","[""Asian"",""White""]","No","Female","1075872.199999988","null","","<p></p>","null","choice","dct","repulsion_1","1","microwave ovens","null","null","null","null","null","null","1","","","","","","","","","",""
"","","","","","choice_trial","survey-html-form","109","828411","0.0-5.0-1.12","60","1","2025-04-11 14:24:20","bb671e3ae32f654b8954ea4c4635f915","","Mozilla/5.0 (Windows NT 10.0; Win64; x64) AppleWebKit/537.36 (KHTML, like Gecko) Chrome/135.0.0.0 Safari/537.36","WebKit","Chrome","135.0.0.0","Windows","10.0","https://hz8g1ckzuq.cognition.run/","en-US,en;q=0.9","hwnao535qt8mvxz","54","[""Asian"",""White""]","No","Female","1075872.199999988","6490","","","{""product_choice"":""B""}","choice","dct","repulsion_1","1","microwave ovens","null","null","null","null","null","null","1","100","90","100","30","40","25","Warranty","Cooking power","",""
"","","","","","choice_trial_setup","html-keyboard-response","110","828714","0.0-5.0-0.13","60","1","2025-04-11 14:24:20","bb671e3ae32f654b8954ea4c4635f915","","Mozilla/5.0 (Windows NT 10.0; Win64; x64) AppleWebKit/537.36 (KHTML, like Gecko) Chrome/135.0.0.0 Safari/537.36","WebKit","Chrome","135.0.0.0","Windows","10.0","https://hz8g1ckzuq.cognition.run/","en-US,en;q=0.9","hwnao535qt8mvxz","54","[""Asian"",""White""]","No","Female","1075872.199999988","null","","<p></p>","null","choice","ctd","attraction_1","2","laptops","null","null","null","null","null","null","1","","","","","","","","","",""
"","","","","","choice_trial","survey-html-form","111","837894","0.0-5.0-1.13","60","1","2025-04-11 14:24:20","bb671e3ae32f654b8954ea4c4635f915","","Mozilla/5.0 (Windows NT 10.0; Win64; x64) AppleWebKit/537.36 (KHTML, like Gecko) Chrome/135.0.0.0 Safari/537.36","WebKit","Chrome","135.0.0.0","Windows","10.0","https://hz8g1ckzuq.cognition.run/","en-US,en;q=0.9","hwnao535qt8mvxz","54","[""Asian"",""White""]","No","Female","1075872.199999988","9174","","","{""product_choice"":""B""}","choice","ctd","attraction_1","2","laptops","null","null","null","null","null","null","1","50","60","45","60","50","60","Processing speed","Memory (RAM)","",""
"","","","","","choice_trial_setup","html-keyboard-response","112","838199","0.0-5.0-0.14","60","1","2025-04-11 14:24:20","bb671e3ae32f654b8954ea4c4635f915","","Mozilla/5.0 (Windows NT 10.0; Win64; x64) AppleWebKit/537.36 (KHTML, like Gecko) Chrome/135.0.0.0 Safari/537.36","WebKit","Chrome","135.0.0.0","Windows","10.0","https://hz8g1ckzuq.cognition.run/","en-US,en;q=0.9","hwnao535qt8mvxz","54","[""Asian"",""White""]","No","Female","1075872.199999988","null","","<p></p>","null","choice","ctd","repulsion_1","2","washing machines","null","null","null","null","null","null","2","","","","","","","","","",""
"","","","","","choice_trial","survey-html-form","113","847320","0.0-5.0-1.14","60","1","2025-04-11 14:24:20","bb671e3ae32f654b8954ea4c4635f915","","Mozilla/5.0 (Windows NT 10.0; Win64; x64) AppleWebKit/537.36 (KHTML, like Gecko) Chrome/135.0.0.0 Safari/537.36","WebKit","Chrome","135.0.0.0","Windows","10.0","https://hz8g1ckzuq.cognition.run/","en-US,en;q=0.9","hwnao535qt8mvxz","54","[""Asian"",""White""]","No","Female","1075872.199999988","9115","","","{""product_choice"":""A""}","choice","ctd","repulsion_1","2","washing machines","null","null","null","null","null","null","2","30","40","25","100","90","100","Average lifespan","Energy savings","",""
"","","","","","choice_trial_setup","html-keyboard-response","114","847626","0.0-5.0-0.15","60","1","2025-04-11 14:24:20","bb671e3ae32f654b8954ea4c4635f915","","Mozilla/5.0 (Windows NT 10.0; Win64; x64) AppleWebKit/537.36 (KHTML, like Gecko) Chrome/135.0.0.0 Safari/537.36","WebKit","Chrome","135.0.0.0","Windows","10.0","https://hz8g1ckzuq.cognition.run/","en-US,en;q=0.9","hwnao535qt8mvxz","54","[""Asian"",""White""]","No","Female","1075872.199999988","null","","<p></p>","null","choice","cdt","attraction_2","2","microwave ovens","null","null","null","null","null","null","2","","","","","","","","","",""
"","","","","","choice_trial","survey-html-form","115","855162","0.0-5.0-1.15","60","1","2025-04-11 14:24:20","bb671e3ae32f654b8954ea4c4635f915","","Mozilla/5.0 (Windows NT 10.0; Win64; x64) AppleWebKit/537.36 (KHTML, like Gecko) Chrome/135.0.0.0 Safari/537.36","WebKit","Chrome","135.0.0.0","Windows","10.0","https://hz8g1ckzuq.cognition.run/","en-US,en;q=0.9","hwnao535qt8mvxz","54","[""Asian"",""White""]","No","Female","1075872.199999988","7529","","","{""product_choice"":""C""}","choice","cdt","attraction_2","2","microwave ovens","null","null","null","null","null","null","2","50","60","40","60","50","60","Warranty","Cooking power","",""
"","","","","","choice_trial_setup","html-keyboard-response","116","855467","0.0-5.0-0.16","60","1","2025-04-11 14:24:20","bb671e3ae32f654b8954ea4c4635f915","","Mozilla/5.0 (Windows NT 10.0; Win64; x64) AppleWebKit/537.36 (KHTML, like Gecko) Chrome/135.0.0.0 Safari/537.36","WebKit","Chrome","135.0.0.0","Windows","10.0","https://hz8g1ckzuq.cognition.run/","en-US,en;q=0.9","hwnao535qt8mvxz","54","[""Asian"",""White""]","No","Female","1075872.199999988","null","","<p></p>","null","choice","wbw","catch","null","laptops","65","65","50","40","50","40","2","","","","","","","","","",""
"","","","","","choice_trial","survey-html-form","117","863804","0.0-5.0-1.16","60","1","2025-04-11 14:24:20","bb671e3ae32f654b8954ea4c4635f915","","Mozilla/5.0 (Windows NT 10.0; Win64; x64) AppleWebKit/537.36 (KHTML, like Gecko) Chrome/135.0.0.0 Safari/537.36","WebKit","Chrome","135.0.0.0","Windows","10.0","https://hz8g1ckzuq.cognition.run/","en-US,en;q=0.9","hwnao535qt8mvxz","54","[""Asian"",""White""]","No","Female","1075872.199999988","8331","","","{""product_choice"":""B""}","choice","wbw","catch","null","laptops","65","65","50","40","50","40","2","null","null","null","null","null","null","Processing speed","Memory (RAM)","",""
"","","","","","choice_trial_setup","html-keyboard-response","118","864109","0.0-5.0-0.17","60","1","2025-04-11 14:24:20","bb671e3ae32f654b8954ea4c4635f915","","Mozilla/5.0 (Windows NT 10.0; Win64; x64) AppleWebKit/537.36 (KHTML, like Gecko) Chrome/135.0.0.0 Safari/537.36","WebKit","Chrome","135.0.0.0","Windows","10.0","https://hz8g1ckzuq.cognition.run/","en-US,en;q=0.9","hwnao535qt8mvxz","54","[""Asian"",""White""]","No","Female","1075872.199999988","null","","<p></p>","null","choice","tdc","attraction_2","1","microwave ovens","null","null","null","null","null","null","2","","","","","","","","","",""
"","","","","","choice_trial","survey-html-form","119","870606","0.0-5.0-1.17","60","1","2025-04-11 14:24:20","bb671e3ae32f654b8954ea4c4635f915","","Mozilla/5.0 (Windows NT 10.0; Win64; x64) AppleWebKit/537.36 (KHTML, like Gecko) Chrome/135.0.0.0 Safari/537.36","WebKit","Chrome","135.0.0.0","Windows","10.0","https://hz8g1ckzuq.cognition.run/","en-US,en;q=0.9","hwnao535qt8mvxz","54","[""Asian"",""White""]","No","Female","1075872.199999988","6490","","","{""product_choice"":""C""}","choice","tdc","attraction_2","1","microwave ovens","null","null","null","null","null","null","2","60","50","60","50","60","40","Warranty","Cooking power","",""
"","","","","","choice_trial_setup","html-keyboard-response","120","870911","0.0-5.0-0.18","60","1","2025-04-11 14:24:20","bb671e3ae32f654b8954ea4c4635f915","","Mozilla/5.0 (Windows NT 10.0; Win64; x64) AppleWebKit/537.36 (KHTML, like Gecko) Chrome/135.0.0.0 Safari/537.36","WebKit","Chrome","135.0.0.0","Windows","10.0","https://hz8g1ckzuq.cognition.run/","en-US,en;q=0.9","hwnao535qt8mvxz","54","[""Asian"",""White""]","No","Female","1075872.199999988","null","","<p></p>","null","choice","ctd","attraction_1","2","microwave ovens","null","null","null","null","null","null","2","","","","","","","","","",""
"","","","","","choice_trial","survey-html-form","121","877134","0.0-5.0-1.18","60","1","2025-04-11 14:24:20","bb671e3ae32f654b8954ea4c4635f915","","Mozilla/5.0 (Windows NT 10.0; Win64; x64) AppleWebKit/537.36 (KHTML, like Gecko) Chrome/135.0.0.0 Safari/537.36","WebKit","Chrome","135.0.0.0","Windows","10.0","https://hz8g1ckzuq.cognition.run/","en-US,en;q=0.9","hwnao535qt8mvxz","54","[""Asian"",""White""]","No","Female","1075872.199999988","6216","","","{""product_choice"":""B""}","choice","ctd","attraction_1","2","microwave ovens","null","null","null","null","null","null","2","50","60","45","60","50","60","Warranty","Cooking power","",""
"","","","","","choice_trial_setup","html-keyboard-response","122","877439","0.0-5.0-0.19","60","1","2025-04-11 14:24:20","bb671e3ae32f654b8954ea4c4635f915","","Mozilla/5.0 (Windows NT 10.0; Win64; x64) AppleWebKit/537.36 (KHTML, like Gecko) Chrome/135.0.0.0 Safari/537.36","WebKit","Chrome","135.0.0.0","Windows","10.0","https://hz8g1ckzuq.cognition.run/","en-US,en;q=0.9","hwnao535qt8mvxz","54","[""Asian"",""White""]","No","Female","1075872.199999988","null","","<p></p>","null","choice","ctd","attraction_2","2","washing machines","null","null","null","null","null","null","2","","","","","","","","","",""
"","","","","","choice_trial","survey-html-form","123","882814","0.0-5.0-1.19","60","1","2025-04-11 14:24:20","bb671e3ae32f654b8954ea4c4635f915","","Mozilla/5.0 (Windows NT 10.0; Win64; x64) AppleWebKit/537.36 (KHTML, like Gecko) Chrome/135.0.0.0 Safari/537.36","WebKit","Chrome","135.0.0.0","Windows","10.0","https://hz8g1ckzuq.cognition.run/","en-US,en;q=0.9","hwnao535qt8mvxz","54","[""Asian"",""White""]","No","Female","1075872.199999988","5368","","","{""product_choice"":""B""}","choice","ctd","attraction_2","2","washing machines","null","null","null","null","null","null","2","50","60","40","60","50","60","Average lifespan","Energy savings","",""
"","","","","","choice_trial_setup","html-keyboard-response","124","883118","0.0-5.0-0.20","60","1","2025-04-11 14:24:20","bb671e3ae32f654b8954ea4c4635f915","","Mozilla/5.0 (Windows NT 10.0; Win64; x64) AppleWebKit/537.36 (KHTML, like Gecko) Chrome/135.0.0.0 Safari/537.36","WebKit","Chrome","135.0.0.0","Windows","10.0","https://hz8g1ckzuq.cognition.run/","en-US,en;q=0.9","hwnao535qt8mvxz","54","[""Asian"",""White""]","No","Female","1075872.199999988","null","","<p></p>","null","choice","bww","catch","null","televisions","60","65","40","25","30","25","1","","","","","","","","","",""
"","","","","","choice_trial","survey-html-form","125","890006","0.0-5.0-1.20","60","1","2025-04-11 14:24:20","bb671e3ae32f654b8954ea4c4635f915","","Mozilla/5.0 (Windows NT 10.0; Win64; x64) AppleWebKit/537.36 (KHTML, like Gecko) Chrome/135.0.0.0 Safari/537.36","WebKit","Chrome","135.0.0.0","Windows","10.0","https://hz8g1ckzuq.cognition.run/","en-US,en;q=0.9","hwnao535qt8mvxz","54","[""Asian"",""White""]","No","Female","1075872.199999988","6881","","","{""product_choice"":""A""}","choice","bww","catch","null","televisions","60","65","40","25","30","25","1","null","null","null","null","null","null","Screen size","Average lifespan","",""
"","","","","","choice_trial_setup","html-keyboard-response","126","890310","0.0-5.0-0.21","60","1","2025-04-11 14:24:20","bb671e3ae32f654b8954ea4c4635f915","","Mozilla/5.0 (Windows NT 10.0; Win64; x64) AppleWebKit/537.36 (KHTML, like Gecko) Chrome/135.0.0.0 Safari/537.36","WebKit","Chrome","135.0.0.0","Windows","10.0","https://hz8g1ckzuq.cognition.run/","en-US,en;q=0.9","hwnao535qt8mvxz","54","[""Asian"",""White""]","No","Female","1075872.199999988","null","","<p></p>","null","choice","cdt","repulsion_2","1","televisions","null","null","null","null","null","null","2","","","","","","","","","",""
"","","","","","choice_trial","survey-html-form","127","896276","0.0-5.0-1.21","60","1","2025-04-11 14:24:20","bb671e3ae32f654b8954ea4c4635f915","","Mozilla/5.0 (Windows NT 10.0; Win64; x64) AppleWebKit/537.36 (KHTML, like Gecko) Chrome/135.0.0.0 Safari/537.36","WebKit","Chrome","135.0.0.0","Windows","10.0","https://hz8g1ckzuq.cognition.run/","en-US,en;q=0.9","hwnao535qt8mvxz","54","[""Asian"",""White""]","No","Female","1075872.199999988","5959","","","{""product_choice"":""A""}","choice","cdt","repulsion_2","1","televisions","null","null","null","null","null","null","2","100","90","100","30","40","20","Screen size","Average lifespan","",""
"","","","","","choice_trial_setup","html-keyboard-response","128","896581","0.0-5.0-0.22","60","1","2025-04-11 14:24:20","bb671e3ae32f654b8954ea4c4635f915","","Mozilla/5.0 (Windows NT 10.0; Win64; x64) AppleWebKit/537.36 (KHTML, like Gecko) Chrome/135.0.0.0 Safari/537.36","WebKit","Chrome","135.0.0.0","Windows","10.0","https://hz8g1ckzuq.cognition.run/","en-US,en;q=0.9","hwnao535qt8mvxz","54","[""Asian"",""White""]","No","Female","1075872.199999988","null","","<p></p>","null","choice","tcd","repulsion_2","1","laptops","null","null","null","null","null","null","1","","","","","","","","","",""
"","","","","","choice_trial","survey-html-form","129","902954","0.0-5.0-1.22","60","1","2025-04-11 14:24:20","bb671e3ae32f654b8954ea4c4635f915","","Mozilla/5.0 (Windows NT 10.0; Win64; x64) AppleWebKit/537.36 (KHTML, like Gecko) Chrome/135.0.0.0 Safari/537.36","WebKit","Chrome","135.0.0.0","Windows","10.0","https://hz8g1ckzuq.cognition.run/","en-US,en;q=0.9","hwnao535qt8mvxz","54","[""Asian"",""White""]","No","Female","1075872.199999988","6365","","","{""product_choice"":""B""}","choice","tcd","repulsion_2","1","laptops","null","null","null","null","null","null","1","100","90","100","30","40","20","Processing speed","Memory (RAM)","",""
"","","","","","choice_trial_setup","html-keyboard-response","130","903258","0.0-5.0-0.23","60","1","2025-04-11 14:24:20","bb671e3ae32f654b8954ea4c4635f915","","Mozilla/5.0 (Windows NT 10.0; Win64; x64) AppleWebKit/537.36 (KHTML, like Gecko) Chrome/135.0.0.0 Safari/537.36","WebKit","Chrome","135.0.0.0","Windows","10.0","https://hz8g1ckzuq.cognition.run/","en-US,en;q=0.9","hwnao535qt8mvxz","54","[""Asian"",""White""]","No","Female","1075872.199999988","null","","<p></p>","null","choice","tcd","attraction_1","1","televisions","null","null","null","null","null","null","2","","","","","","","","","",""
"","","","","","choice_trial","survey-html-form","131","911462","0.0-5.0-1.23","60","1","2025-04-11 14:24:20","bb671e3ae32f654b8954ea4c4635f915","","Mozilla/5.0 (Windows NT 10.0; Win64; x64) AppleWebKit/537.36 (KHTML, like Gecko) Chrome/135.0.0.0 Safari/537.36","WebKit","Chrome","135.0.0.0","Windows","10.0","https://hz8g1ckzuq.cognition.run/","en-US,en;q=0.9","hwnao535qt8mvxz","54","[""Asian"",""White""]","No","Female","1075872.199999988","8196","","","{""product_choice"":""A""}","choice","tcd","attraction_1","1","televisions","null","null","null","null","null","null","2","60","50","60","50","60","45","Screen size","Average lifespan","",""
"","","","","","choice_trial_setup","html-keyboard-response","132","911766","0.0-5.0-0.24","60","1","2025-04-11 14:24:20","bb671e3ae32f654b8954ea4c4635f915","","Mozilla/5.0 (Windows NT 10.0; Win64; x64) AppleWebKit/537.36 (KHTML, like Gecko) Chrome/135.0.0.0 Safari/537.36","WebKit","Chrome","135.0.0.0","Windows","10.0","https://hz8g1ckzuq.cognition.run/","en-US,en;q=0.9","hwnao535qt8mvxz","54","[""Asian"",""White""]","No","Female","1075872.199999988","null","","<p></p>","null","choice","wbw","catch","null","microwave ovens","55","55","50","20","35","45","1","","","","","","","","","",""
"","","","","","choice_trial","survey-html-form","133","918481","0.0-5.0-1.24","60","1","2025-04-11 14:24:20","bb671e3ae32f654b8954ea4c4635f915","","Mozilla/5.0 (Windows NT 10.0; Win64; x64) AppleWebKit/537.36 (KHTML, like Gecko) Chrome/135.0.0.0 Safari/537.36","WebKit","Chrome","135.0.0.0","Windows","10.0","https://hz8g1ckzuq.cognition.run/","en-US,en;q=0.9","hwnao535qt8mvxz","54","[""Asian"",""White""]","No","Female","1075872.199999988","6711","","","{""product_choice"":""B""}","choice","wbw","catch","null","microwave ovens","55","55","50","20","35","45","1","null","null","null","null","null","null","Warranty","Cooking power","",""
"","","","","","choice_trial_setup","html-keyboard-response","134","918786","0.0-5.0-0.25","60","1","2025-04-11 14:24:20","bb671e3ae32f654b8954ea4c4635f915","","Mozilla/5.0 (Windows NT 10.0; Win64; x64) AppleWebKit/537.36 (KHTML, like Gecko) Chrome/135.0.0.0 Safari/537.36","WebKit","Chrome","135.0.0.0","Windows","10.0","https://hz8g1ckzuq.cognition.run/","en-US,en;q=0.9","hwnao535qt8mvxz","54","[""Asian"",""White""]","No","Female","1075872.199999988","null","","<p></p>","null","choice","cdt","attraction_2","1","laptops","null","null","null","null","null","null","2","","","","","","","","","",""
"","","","","","choice_trial","survey-html-form","135","926343","0.0-5.0-1.25","60","1","2025-04-11 14:24:20","bb671e3ae32f654b8954ea4c4635f915","","Mozilla/5.0 (Windows NT 10.0; Win64; x64) AppleWebKit/537.36 (KHTML, like Gecko) Chrome/135.0.0.0 Safari/537.36","WebKit","Chrome","135.0.0.0","Windows","10.0","https://hz8g1ckzuq.cognition.run/","en-US,en;q=0.9","hwnao535qt8mvxz","54","[""Asian"",""White""]","No","Female","1075872.199999988","7550","","","{""product_choice"":""A""}","choice","cdt","attraction_2","1","laptops","null","null","null","null","null","null","2","60","50","60","50","60","40","Processing speed","Memory (RAM)","",""
"","","","","","choice_trial_setup","html-keyboard-response","136","926648","0.0-5.0-0.26","60","1","2025-04-11 14:24:20","bb671e3ae32f654b8954ea4c4635f915","","Mozilla/5.0 (Windows NT 10.0; Win64; x64) AppleWebKit/537.36 (KHTML, like Gecko) Chrome/135.0.0.0 Safari/537.36","WebKit","Chrome","135.0.0.0","Windows","10.0","https://hz8g1ckzuq.cognition.run/","en-US,en;q=0.9","hwnao535qt8mvxz","54","[""Asian"",""White""]","No","Female","1075872.199999988","null","","<p></p>","null","choice","tcd","attraction_1","2","washing machines","null","null","null","null","null","null","2","","","","","","","","","",""
"","","","","","choice_trial","survey-html-form","137","936927","0.0-5.0-1.26","60","1","2025-04-11 14:24:20","bb671e3ae32f654b8954ea4c4635f915","","Mozilla/5.0 (Windows NT 10.0; Win64; x64) AppleWebKit/537.36 (KHTML, like Gecko) Chrome/135.0.0.0 Safari/537.36","WebKit","Chrome","135.0.0.0","Windows","10.0","https://hz8g1ckzuq.cognition.run/","en-US,en;q=0.9","hwnao535qt8mvxz","54","[""Asian"",""White""]","No","Female","1075872.199999988","10272","","","{""product_choice"":""A""}","choice","tcd","attraction_1","2","washing machines","null","null","null","null","null","null","2","50","60","45","60","50","60","Average lifespan","Energy savings","",""
"","","","","","choice_trial_setup","html-keyboard-response","138","937231","0.0-5.0-0.27","60","1","2025-04-11 14:24:20","bb671e3ae32f654b8954ea4c4635f915","","Mozilla/5.0 (Windows NT 10.0; Win64; x64) AppleWebKit/537.36 (KHTML, like Gecko) Chrome/135.0.0.0 Safari/537.36","WebKit","Chrome","135.0.0.0","Windows","10.0","https://hz8g1ckzuq.cognition.run/","en-US,en;q=0.9","hwnao535qt8mvxz","54","[""Asian"",""White""]","No","Female","1075872.199999988","null","","<p></p>","null","choice","cdt","repulsion_2","2","laptops","null","null","null","null","null","null","1","","","","","","","","","",""
"","","","","","choice_trial","survey-html-form","139","943395","0.0-5.0-1.27","60","1","2025-04-11 14:24:20","bb671e3ae32f654b8954ea4c4635f915","","Mozilla/5.0 (Windows NT 10.0; Win64; x64) AppleWebKit/537.36 (KHTML, like Gecko) Chrome/135.0.0.0 Safari/537.36","WebKit","Chrome","135.0.0.0","Windows","10.0","https://hz8g1ckzuq.cognition.run/","en-US,en;q=0.9","hwnao535qt8mvxz","54","[""Asian"",""White""]","No","Female","1075872.199999988","6156","","","{""product_choice"":""A""}","choice","cdt","repulsion_2","2","laptops","null","null","null","null","null","null","1","30","40","20","100","90","100","Processing speed","Memory (RAM)","",""
"","","","","","choice_trial_setup","html-keyboard-response","140","943700","0.0-5.0-0.28","60","1","2025-04-11 14:24:20","bb671e3ae32f654b8954ea4c4635f915","","Mozilla/5.0 (Windows NT 10.0; Win64; x64) AppleWebKit/537.36 (KHTML, like Gecko) Chrome/135.0.0.0 Safari/537.36","WebKit","Chrome","135.0.0.0","Windows","10.0","https://hz8g1ckzuq.cognition.run/","en-US,en;q=0.9","hwnao535qt8mvxz","54","[""Asian"",""White""]","No","Female","1075872.199999988","null","","<p></p>","null","choice","wwb","catch","null","televisions","70","65","45","45","50","15","1","","","","","","","","","",""
"","","","","","choice_trial","survey-html-form","141","950857","0.0-5.0-1.28","60","1","2025-04-11 14:24:20","bb671e3ae32f654b8954ea4c4635f915","","Mozilla/5.0 (Windows NT 10.0; Win64; x64) AppleWebKit/537.36 (KHTML, like Gecko) Chrome/135.0.0.0 Safari/537.36","WebKit","Chrome","135.0.0.0","Windows","10.0","https://hz8g1ckzuq.cognition.run/","en-US,en;q=0.9","hwnao535qt8mvxz","54","[""Asian"",""White""]","No","Female","1075872.199999988","7153","","","{""product_choice"":""C""}","choice","wwb","catch","null","televisions","70","65","45","45","50","15","1","null","null","null","null","null","null","Screen size","Average lifespan","",""
"","","","","","choice_trial_setup","html-keyboard-response","142","951162","0.0-5.0-0.29","60","1","2025-04-11 14:24:20","bb671e3ae32f654b8954ea4c4635f915","","Mozilla/5.0 (Windows NT 10.0; Win64; x64) AppleWebKit/537.36 (KHTML, like Gecko) Chrome/135.0.0.0 Safari/537.36","WebKit","Chrome","135.0.0.0","Windows","10.0","https://hz8g1ckzuq.cognition.run/","en-US,en;q=0.9","hwnao535qt8mvxz","54","[""Asian"",""White""]","No","Female","1075872.199999988","null","","<p></p>","null","choice","cdt","repulsion_2","1","washing machines","null","null","null","null","null","null","2","","","","","","","","","",""
"","","","","","choice_trial","survey-html-form","143","956645","0.0-5.0-1.29","60","1","2025-04-11 14:24:20","bb671e3ae32f654b8954ea4c4635f915","","Mozilla/5.0 (Windows NT 10.0; Win64; x64) AppleWebKit/537.36 (KHTML, like Gecko) Chrome/135.0.0.0 Safari/537.36","WebKit","Chrome","135.0.0.0","Windows","10.0","https://hz8g1ckzuq.cognition.run/","en-US,en;q=0.9","hwnao535qt8mvxz","54","[""Asian"",""White""]","No","Female","1075872.199999988","5479","","","{""product_choice"":""A""}","choice","cdt","repulsion_2","1","washing machines","null","null","null","null","null","null","2","100","90","100","30","40","20","Average lifespan","Energy savings","",""
"","","","","","choice_trial_setup","html-keyboard-response","144","956950","0.0-5.0-0.30","60","1","2025-04-11 14:24:20","bb671e3ae32f654b8954ea4c4635f915","","Mozilla/5.0 (Windows NT 10.0; Win64; x64) AppleWebKit/537.36 (KHTML, like Gecko) Chrome/135.0.0.0 Safari/537.36","WebKit","Chrome","135.0.0.0","Windows","10.0","https://hz8g1ckzuq.cognition.run/","en-US,en;q=0.9","hwnao535qt8mvxz","54","[""Asian"",""White""]","No","Female","1075872.199999988","null","","<p></p>","null","choice","wwb","catch","null","microwave ovens","60","75","10","30","5","30","2","","","","","","","","","",""
"","","","","","choice_trial","survey-html-form","145","962577","0.0-5.0-1.30","60","1","2025-04-11 14:24:20","bb671e3ae32f654b8954ea4c4635f915","","Mozilla/5.0 (Windows NT 10.0; Win64; x64) AppleWebKit/537.36 (KHTML, like Gecko) Chrome/135.0.0.0 Safari/537.36","WebKit","Chrome","135.0.0.0","Windows","10.0","https://hz8g1ckzuq.cognition.run/","en-US,en;q=0.9","hwnao535qt8mvxz","54","[""Asian"",""White""]","No","Female","1075872.199999988","5619","","","{""product_choice"":""C""}","choice","wwb","catch","null","microwave ovens","60","75","10","30","5","30","2","null","null","null","null","null","null","Warranty","Cooking power","",""
"","","","","","choice_trial_setup","html-keyboard-response","146","962881","0.0-5.0-0.31","60","1","2025-04-11 14:24:20","bb671e3ae32f654b8954ea4c4635f915","","Mozilla/5.0 (Windows NT 10.0; Win64; x64) AppleWebKit/537.36 (KHTML, like Gecko) Chrome/135.0.0.0 Safari/537.36","WebKit","Chrome","135.0.0.0","Windows","10.0","https://hz8g1ckzuq.cognition.run/","en-US,en;q=0.9","hwnao535qt8mvxz","54","[""Asian"",""White""]","No","Female","1075872.199999988","null","","<p></p>","null","choice","cdt","attraction_2","1","washing machines","null","null","null","null","null","null","2","","","","","","","","","",""
"","","","","","choice_trial","survey-html-form","147","968945","0.0-5.0-1.31","60","1","2025-04-11 14:24:20","bb671e3ae32f654b8954ea4c4635f915","","Mozilla/5.0 (Windows NT 10.0; Win64; x64) AppleWebKit/537.36 (KHTML, like Gecko) Chrome/135.0.0.0 Safari/537.36","WebKit","Chrome","135.0.0.0","Windows","10.0","https://hz8g1ckzuq.cognition.run/","en-US,en;q=0.9","hwnao535qt8mvxz","54","[""Asian"",""White""]","No","Female","1075872.199999988","6056","","","{""product_choice"":""A""}","choice","cdt","attraction_2","1","washing machines","null","null","null","null","null","null","2","60","50","60","50","60","40","Average lifespan","Energy savings","",""
"","","","","","choice_trial_setup","html-keyboard-response","148","969251","0.0-5.0-0.32","60","1","2025-04-11 14:24:20","bb671e3ae32f654b8954ea4c4635f915","","Mozilla/5.0 (Windows NT 10.0; Win64; x64) AppleWebKit/537.36 (KHTML, like Gecko) Chrome/135.0.0.0 Safari/537.36","WebKit","Chrome","135.0.0.0","Windows","10.0","https://hz8g1ckzuq.cognition.run/","en-US,en;q=0.9","hwnao535qt8mvxz","54","[""Asian"",""White""]","No","Female","1075872.199999988","null","","<p></p>","null","choice","cdt","repulsion_1","2","laptops","null","null","null","null","null","null","1","","","","","","","","","",""
"","","","","","choice_trial","survey-html-form","149","975349","0.0-5.0-1.32","60","1","2025-04-11 14:24:20","bb671e3ae32f654b8954ea4c4635f915","","Mozilla/5.0 (Windows NT 10.0; Win64; x64) AppleWebKit/537.36 (KHTML, like Gecko) Chrome/135.0.0.0 Safari/537.36","WebKit","Chrome","135.0.0.0","Windows","10.0","https://hz8g1ckzuq.cognition.run/","en-US,en;q=0.9","hwnao535qt8mvxz","54","[""Asian"",""White""]","No","Female","1075872.199999988","6090","","","{""product_choice"":""A""}","choice","cdt","repulsion_1","2","laptops","null","null","null","null","null","null","1","30","40","25","100","90","100","Processing speed","Memory (RAM)","",""
"","","","","","choice_trial_setup","html-keyboard-response","150","975654","0.0-5.0-0.33","60","1","2025-04-11 14:24:20","bb671e3ae32f654b8954ea4c4635f915","","Mozilla/5.0 (Windows NT 10.0; Win64; x64) AppleWebKit/537.36 (KHTML, like Gecko) Chrome/135.0.0.0 Safari/537.36","WebKit","Chrome","135.0.0.0","Windows","10.0","https://hz8g1ckzuq.cognition.run/","en-US,en;q=0.9","hwnao535qt8mvxz","54","[""Asian"",""White""]","No","Female","1075872.199999988","null","","<p></p>","null","choice","wwb","catch","null","laptops","65","70","20","45","40","40","2","","","","","","","","","",""
"","","","","","choice_trial","survey-html-form","151","981257","0.0-5.0-1.33","60","1","2025-04-11 14:24:20","bb671e3ae32f654b8954ea4c4635f915","","Mozilla/5.0 (Windows NT 10.0; Win64; x64) AppleWebKit/537.36 (KHTML, like Gecko) Chrome/135.0.0.0 Safari/537.36","WebKit","Chrome","135.0.0.0","Windows","10.0","https://hz8g1ckzuq.cognition.run/","en-US,en;q=0.9","hwnao535qt8mvxz","54","[""Asian"",""White""]","No","Female","1075872.199999988","5593","","","{""product_choice"":""C""}","choice","wwb","catch","null","laptops","65","70","20","45","40","40","2","null","null","null","null","null","null","Processing speed","Memory (RAM)","",""
"","","","","","choice_trial_setup","html-keyboard-response","152","981561","0.0-5.0-0.34","60","1","2025-04-11 14:24:20","bb671e3ae32f654b8954ea4c4635f915","","Mozilla/5.0 (Windows NT 10.0; Win64; x64) AppleWebKit/537.36 (KHTML, like Gecko) Chrome/135.0.0.0 Safari/537.36","WebKit","Chrome","135.0.0.0","Windows","10.0","https://hz8g1ckzuq.cognition.run/","en-US,en;q=0.9","hwnao535qt8mvxz","54","[""Asian"",""White""]","No","Female","1075872.199999988","null","","<p></p>","null","choice","dct","repulsion_2","2","microwave ovens","null","null","null","null","null","null","2","","","","","","","","","",""
"","","","","","choice_trial","survey-html-form","153","989123","0.0-5.0-1.34","60","1","2025-04-11 14:24:20","bb671e3ae32f654b8954ea4c4635f915","","Mozilla/5.0 (Windows NT 10.0; Win64; x64) AppleWebKit/537.36 (KHTML, like Gecko) Chrome/135.0.0.0 Safari/537.36","WebKit","Chrome","135.0.0.0","Windows","10.0","https://hz8g1ckzuq.cognition.run/","en-US,en;q=0.9","hwnao535qt8mvxz","54","[""Asian"",""White""]","No","Female","1075872.199999988","7553","","","{""product_choice"":""C""}","choice","dct","repulsion_2","2","microwave ovens","null","null","null","null","null","null","2","30","40","20","100","90","100","Warranty","Cooking power","",""
"","","","","","choice_trial_setup","html-keyboard-response","154","989427","0.0-5.0-0.35","60","1","2025-04-11 14:24:20","bb671e3ae32f654b8954ea4c4635f915","","Mozilla/5.0 (Windows NT 10.0; Win64; x64) AppleWebKit/537.36 (KHTML, like Gecko) Chrome/135.0.0.0 Safari/537.36","WebKit","Chrome","135.0.0.0","Windows","10.0","https://hz8g1ckzuq.cognition.run/","en-US,en;q=0.9","hwnao535qt8mvxz","54","[""Asian"",""White""]","No","Female","1075872.199999988","null","","<p></p>","null","choice","tcd","repulsion_2","2","washing machines","null","null","null","null","null","null","1","","","","","","","","","",""
"","","","","","choice_trial","survey-html-form","155","998109","0.0-5.0-1.35","60","1","2025-04-11 14:24:20","bb671e3ae32f654b8954ea4c4635f915","","Mozilla/5.0 (Windows NT 10.0; Win64; x64) AppleWebKit/537.36 (KHTML, like Gecko) Chrome/135.0.0.0 Safari/537.36","WebKit","Chrome","135.0.0.0","Windows","10.0","https://hz8g1ckzuq.cognition.run/","en-US,en;q=0.9","hwnao535qt8mvxz","54","[""Asian"",""White""]","No","Female","1075872.199999988","8673","","","{""product_choice"":""B""}","choice","tcd","repulsion_2","2","washing machines","null","null","null","null","null","null","1","30","40","20","100","90","100","Average lifespan","Energy savings","",""
