"success","timeout","failed_images","failed_audio","failed_video","screen_id","trial_type","trial_index","time_elapsed","internal_node_id","run_id","condition","recorded_at","source_code_version","ip","user_agent","device","browser","browser_version","platform","platform_version","referer","accept_language","ppt_id","age","race","ethnicity","gender","exp_duration","rt","view_history","stimulus","response","phase","order","effect","t_high","category","d1_best","d2_best","d1_worst1","d2_worst1","d1_worst2","d2_worst2","first_dim","d1_t","d1_c","d1_d","d2_t","d2_c","d2_d","d1_name","d2_name","strategy_response","question_order"
"true","false","[]","[]","[]","img preload","preload","0","7177","0.0-0.0","67","1","2025-04-11 14:29:36","bb671e3ae32f654b8954ea4c4635f915","","Mozilla/5.0 (Windows NT 10.0; Win64; x64) AppleWebKit/537.36 (KHTML, like Gecko) Chrome/135.0.0.0 Safari/537.36","WebKit","Chrome","135.0.0.0","Windows","10.0","https://hz8g1ckzuq.cognition.run/","en-US,en;q=0.9,de-DE;q=0.8,de;q=0.7","ugfh3008hhvncmv","26","[""White""]","No","Female","2038045.099999994","","","","","","","","","","","","","","","","","","","","","","","","","",""
"true","","","","","","fullscreen","1","43867","0.0-1.0","67","1","2025-04-11 14:29:36","bb671e3ae32f654b8954ea4c4635f915","","Mozilla/5.0 (Windows NT 10.0; Win64; x64) AppleWebKit/537.36 (KHTML, like Gecko) Chrome/135.0.0.0 Safari/537.36","WebKit","Chrome","135.0.0.0","Windows","10.0","https://hz8g1ckzuq.cognition.run/","en-US,en;q=0.9,de-DE;q=0.8,de;q=0.7","ugfh3008hhvncmv","26","[""White""]","No","Female","2038045.099999994","35687","","","","","","","","","","","","","","","","","","","","","","","","",""
"","","","","","","instructions","2","124956","0.0-2.0","67","1","2025-04-11 14:29:36","bb671e3ae32f654b8954ea4c4635f915","","Mozilla/5.0 (Windows NT 10.0; Win64; x64) AppleWebKit/537.36 (KHTML, like Gecko) Chrome/135.0.0.0 Safari/537.36","WebKit","Chrome","135.0.0.0","Windows","10.0","https://hz8g1ckzuq.cognition.run/","en-US,en;q=0.9,de-DE;q=0.8,de;q=0.7","ugfh3008hhvncmv","26","[""White""]","No","Female","2038045.099999994","81088","[{""page_index"":0,""viewing_time"":10887},{""page_index"":1,""viewing_time"":13334},{""page_index"":2,""viewing_time"":8396},{""page_index"":3,""viewing_time"":3046},{""page_index"":4,""viewing_time"":2629},{""page_index"":5,""viewing_time"":1584},{""page_index"":6,""viewing_time"":2490},{""page_index"":7,""viewing_time"":34025},{""page_index"":8,""viewing_time"":2764},{""page_index"":9,""viewing_time"":1934}]","","","","","","","","","","","","","","","","","","","","","","","",""
"","","","","","rating_trial_setup","html-keyboard-response","3","125257","0.0-3.0-0.0","67","1","2025-04-11 14:29:36","bb671e3ae32f654b8954ea4c4635f915","","Mozilla/5.0 (Windows NT 10.0; Win64; x64) AppleWebKit/537.36 (KHTML, like Gecko) Chrome/135.0.0.0 Safari/537.36","WebKit","Chrome","135.0.0.0","Windows","10.0","https://hz8g1ckzuq.cognition.run/","en-US,en;q=0.9,de-DE;q=0.8,de;q=0.7","ugfh3008hhvncmv","26","[""White""]","No","Female","2038045.099999994","null","","<p></p>","null","rating","dtc","attraction_2","1","washing machines","null","null","null","null","null","null","2","","","","","","","","","",""
"","","","","","rating_trial","survey-html-form","4","177756","0.0-3.0-1.0","67","1","2025-04-11 14:29:36","bb671e3ae32f654b8954ea4c4635f915","","Mozilla/5.0 (Windows NT 10.0; Win64; x64) AppleWebKit/537.36 (KHTML, like Gecko) Chrome/135.0.0.0 Safari/537.36","WebKit","Chrome","135.0.0.0","Windows","10.0","https://hz8g1ckzuq.cognition.run/","en-US,en;q=0.9,de-DE;q=0.8,de;q=0.7","ugfh3008hhvncmv","26","[""White""]","No","Female","2038045.099999994","52497","","","{""price_1"":""200"",""price_2"":""300"",""price_3"":""350""}","rating","dtc","attraction_2","1","washing machines","null","null","null","null","null","null","2","60","50","60","50","60","40","Average lifespan","Energy savings","",""
"","","","","","rating_trial_setup","html-keyboard-response","5","178057","0.0-3.0-0.1","67","1","2025-04-11 14:29:36","bb671e3ae32f654b8954ea4c4635f915","","Mozilla/5.0 (Windows NT 10.0; Win64; x64) AppleWebKit/537.36 (KHTML, like Gecko) Chrome/135.0.0.0 Safari/537.36","WebKit","Chrome","135.0.0.0","Windows","10.0","https://hz8g1ckzuq.cognition.run/","en-US,en;q=0.9,de-DE;q=0.8,de;q=0.7","ugfh3008hhvncmv","26","[""White""]","No","Female","2038045.099999994","null","","<p></p>","null","rating","wbw","catch","null","televisions","65","90","50","10","10","35","1","","","","","","","","","",""
"","","","","","rating_trial","survey-html-form","6","272070","0.0-3.0-1.1","67","1","2025-04-11 14:29:36","bb671e3ae32f654b8954ea4c4635f915","","Mozilla/5.0 (Windows NT 10.0; Win64; x64) AppleWebKit/537.36 (KHTML, like Gecko) Chrome/135.0.0.0 Safari/537.36","WebKit","Chrome","135.0.0.0","Windows","10.0","https://hz8g1ckzuq.cognition.run/","en-US,en;q=0.9,de-DE;q=0.8,de;q=0.7","ugfh3008hhvncmv","26","[""White""]","No","Female","2038045.099999994","94011","","","{""price_1"":""200"",""price_2"":""300"",""price_3"":""250""}","rating","wbw","catch","null","televisions","65","90","50","10","10","35","1","null","null","null","null","null","null","Screen size","Average lifespan","",""
"","","","","","rating_trial_setup","html-keyboard-response","7","272373","0.0-3.0-0.2","67","1","2025-04-11 14:29:36","bb671e3ae32f654b8954ea4c4635f915","","Mozilla/5.0 (Windows NT 10.0; Win64; x64) AppleWebKit/537.36 (KHTML, like Gecko) Chrome/135.0.0.0 Safari/537.36","WebKit","Chrome","135.0.0.0","Windows","10.0","https://hz8g1ckzuq.cognition.run/","en-US,en;q=0.9,de-DE;q=0.8,de;q=0.7","ugfh3008hhvncmv","26","[""White""]","No","Female","2038045.099999994","null","","<p></p>","null","rating","tdc","repulsion_1","1","microwave ovens","null","null","null","null","null","null","2","","","","","","","","","",""
"","","","","","rating_trial","survey-html-form","8","291808","0.0-3.0-1.2","67","1","2025-04-11 14:29:36","bb671e3ae32f654b8954ea4c4635f915","","Mozilla/5.0 (Windows NT 10.0; Win64; x64) AppleWebKit/537.36 (KHTML, like Gecko) Chrome/135.0.0.0 Safari/537.36","WebKit","Chrome","135.0.0.0","Windows","10.0","https://hz8g1ckzuq.cognition.run/","en-US,en;q=0.9,de-DE;q=0.8,de;q=0.7","ugfh3008hhvncmv","26","[""White""]","No","Female","2038045.099999994","19434","","","{""price_1"":""100"",""price_2"":""75"",""price_3"":""65""}","rating","tdc","repulsion_1","1","microwave ovens","null","null","null","null","null","null","2","100","90","100","30","40","25","Warranty","Cooking power","",""
"","","","","","rating_trial_setup","html-keyboard-response","9","292110","0.0-3.0-0.3","67","1","2025-04-11 14:29:36","bb671e3ae32f654b8954ea4c4635f915","","Mozilla/5.0 (Windows NT 10.0; Win64; x64) AppleWebKit/537.36 (KHTML, like Gecko) Chrome/135.0.0.0 Safari/537.36","WebKit","Chrome","135.0.0.0","Windows","10.0","https://hz8g1ckzuq.cognition.run/","en-US,en;q=0.9,de-DE;q=0.8,de;q=0.7","ugfh3008hhvncmv","26","[""White""]","No","Female","2038045.099999994","null","","<p></p>","null","rating","tdc","attraction_2","2","laptops","null","null","null","null","null","null","2","","","","","","","","","",""
"","","","","","rating_trial","survey-html-form","10","468718","0.0-3.0-1.3","67","1","2025-04-11 14:29:36","bb671e3ae32f654b8954ea4c4635f915","","Mozilla/5.0 (Windows NT 10.0; Win64; x64) AppleWebKit/537.36 (KHTML, like Gecko) Chrome/135.0.0.0 Safari/537.36","WebKit","Chrome","135.0.0.0","Windows","10.0","https://hz8g1ckzuq.cognition.run/","en-US,en;q=0.9,de-DE;q=0.8,de;q=0.7","ugfh3008hhvncmv","26","[""White""]","No","Female","2038045.099999994","176606","","","{""price_1"":""400"",""price_2"":""350"",""price_3"":""325""}","rating","tdc","attraction_2","2","laptops","null","null","null","null","null","null","2","50","60","40","60","50","60","Processing speed","Memory (RAM)","",""
"","","","","","rating_trial_setup","html-keyboard-response","11","469019","0.0-3.0-0.4","67","1","2025-04-11 14:29:36","bb671e3ae32f654b8954ea4c4635f915","","Mozilla/5.0 (Windows NT 10.0; Win64; x64) AppleWebKit/537.36 (KHTML, like Gecko) Chrome/135.0.0.0 Safari/537.36","WebKit","Chrome","135.0.0.0","Windows","10.0","https://hz8g1ckzuq.cognition.run/","en-US,en;q=0.9,de-DE;q=0.8,de;q=0.7","ugfh3008hhvncmv","26","[""White""]","No","Female","2038045.099999994","null","","<p></p>","null","rating","dtc","attraction_2","1","microwave ovens","null","null","null","null","null","null","1","","","","","","","","","",""
"","","","","","rating_trial","survey-html-form","12","568289","0.0-3.0-1.4","67","1","2025-04-11 14:29:36","bb671e3ae32f654b8954ea4c4635f915","","Mozilla/5.0 (Windows NT 10.0; Win64; x64) AppleWebKit/537.36 (KHTML, like Gecko) Chrome/135.0.0.0 Safari/537.36","WebKit","Chrome","135.0.0.0","Windows","10.0","https://hz8g1ckzuq.cognition.run/","en-US,en;q=0.9,de-DE;q=0.8,de;q=0.7","ugfh3008hhvncmv","26","[""White""]","No","Female","2038045.099999994","99269","","","{""price_1"":""70"",""price_2"":""100"",""price_3"":""75""}","rating","dtc","attraction_2","1","microwave ovens","null","null","null","null","null","null","1","60","50","60","50","60","40","Warranty","Cooking power","",""
"","","","","","rating_trial_setup","html-keyboard-response","13","568591","0.0-3.0-0.5","67","1","2025-04-11 14:29:36","bb671e3ae32f654b8954ea4c4635f915","","Mozilla/5.0 (Windows NT 10.0; Win64; x64) AppleWebKit/537.36 (KHTML, like Gecko) Chrome/135.0.0.0 Safari/537.36","WebKit","Chrome","135.0.0.0","Windows","10.0","https://hz8g1ckzuq.cognition.run/","en-US,en;q=0.9,de-DE;q=0.8,de;q=0.7","ugfh3008hhvncmv","26","[""White""]","No","Female","2038045.099999994","null","","<p></p>","null","rating","ctd","repulsion_1","2","microwave ovens","null","null","null","null","null","null","1","","","","","","","","","",""
"","","","","","rating_trial","survey-html-form","14","654278","0.0-3.0-1.5","67","1","2025-04-11 14:29:36","bb671e3ae32f654b8954ea4c4635f915","","Mozilla/5.0 (Windows NT 10.0; Win64; x64) AppleWebKit/537.36 (KHTML, like Gecko) Chrome/135.0.0.0 Safari/537.36","WebKit","Chrome","135.0.0.0","Windows","10.0","https://hz8g1ckzuq.cognition.run/","en-US,en;q=0.9,de-DE;q=0.8,de;q=0.7","ugfh3008hhvncmv","26","[""White""]","No","Female","2038045.099999994","85687","","","{""price_1"":""60"",""price_2"":""100"",""price_3"":""70""}","rating","ctd","repulsion_1","2","microwave ovens","null","null","null","null","null","null","1","30","40","25","100","90","100","Warranty","Cooking power","",""
"","","","","","rating_trial_setup","html-keyboard-response","15","654580","0.0-3.0-0.6","67","1","2025-04-11 14:29:36","bb671e3ae32f654b8954ea4c4635f915","","Mozilla/5.0 (Windows NT 10.0; Win64; x64) AppleWebKit/537.36 (KHTML, like Gecko) Chrome/135.0.0.0 Safari/537.36","WebKit","Chrome","135.0.0.0","Windows","10.0","https://hz8g1ckzuq.cognition.run/","en-US,en;q=0.9,de-DE;q=0.8,de;q=0.7","ugfh3008hhvncmv","26","[""White""]","No","Female","2038045.099999994","null","","<p></p>","null","rating","tdc","repulsion_2","1","televisions","null","null","null","null","null","null","1","","","","","","","","","",""
"","","","","","rating_trial","survey-html-form","16","717495","0.0-3.0-1.6","67","1","2025-04-11 14:29:36","bb671e3ae32f654b8954ea4c4635f915","","Mozilla/5.0 (Windows NT 10.0; Win64; x64) AppleWebKit/537.36 (KHTML, like Gecko) Chrome/135.0.0.0 Safari/537.36","WebKit","Chrome","135.0.0.0","Windows","10.0","https://hz8g1ckzuq.cognition.run/","en-US,en;q=0.9,de-DE;q=0.8,de;q=0.7","ugfh3008hhvncmv","26","[""White""]","No","Female","2038045.099999994","62914","","","{""price_1"":""300"",""price_2"":""275"",""price_3"":""200""}","rating","tdc","repulsion_2","1","televisions","null","null","null","null","null","null","1","100","90","100","30","40","20","Screen size","Average lifespan","",""
"","","","","","rating_trial_setup","html-keyboard-response","17","717798","0.0-3.0-0.7","67","1","2025-04-11 14:29:36","bb671e3ae32f654b8954ea4c4635f915","","Mozilla/5.0 (Windows NT 10.0; Win64; x64) AppleWebKit/537.36 (KHTML, like Gecko) Chrome/135.0.0.0 Safari/537.36","WebKit","Chrome","135.0.0.0","Windows","10.0","https://hz8g1ckzuq.cognition.run/","en-US,en;q=0.9,de-DE;q=0.8,de;q=0.7","ugfh3008hhvncmv","26","[""White""]","No","Female","2038045.099999994","null","","<p></p>","null","rating","tdc","attraction_1","1","laptops","null","null","null","null","null","null","1","","","","","","","","","",""
"","","","","","rating_trial","survey-html-form","18","735981","0.0-3.0-1.7","67","1","2025-04-11 14:29:36","bb671e3ae32f654b8954ea4c4635f915","","Mozilla/5.0 (Windows NT 10.0; Win64; x64) AppleWebKit/537.36 (KHTML, like Gecko) Chrome/135.0.0.0 Safari/537.36","WebKit","Chrome","135.0.0.0","Windows","10.0","https://hz8g1ckzuq.cognition.run/","en-US,en;q=0.9,de-DE;q=0.8,de;q=0.7","ugfh3008hhvncmv","26","[""White""]","No","Female","2038045.099999994","18182","","","{""price_1"":""200"",""price_2"":""175"",""price_3"":""150""}","rating","tdc","attraction_1","1","laptops","null","null","null","null","null","null","1","60","50","60","50","60","45","Processing speed","Memory (RAM)","",""
"","","","","","rating_trial_setup","html-keyboard-response","19","736283","0.0-3.0-0.8","67","1","2025-04-11 14:29:36","bb671e3ae32f654b8954ea4c4635f915","","Mozilla/5.0 (Windows NT 10.0; Win64; x64) AppleWebKit/537.36 (KHTML, like Gecko) Chrome/135.0.0.0 Safari/537.36","WebKit","Chrome","135.0.0.0","Windows","10.0","https://hz8g1ckzuq.cognition.run/","en-US,en;q=0.9,de-DE;q=0.8,de;q=0.7","ugfh3008hhvncmv","26","[""White""]","No","Female","2038045.099999994","null","","<p></p>","null","rating","tcd","repulsion_1","2","laptops","null","null","null","null","null","null","2","","","","","","","","","",""
"","","","","","rating_trial","survey-html-form","20","753500","0.0-3.0-1.8","67","1","2025-04-11 14:29:36","bb671e3ae32f654b8954ea4c4635f915","","Mozilla/5.0 (Windows NT 10.0; Win64; x64) AppleWebKit/537.36 (KHTML, like Gecko) Chrome/135.0.0.0 Safari/537.36","WebKit","Chrome","135.0.0.0","Windows","10.0","https://hz8g1ckzuq.cognition.run/","en-US,en;q=0.9,de-DE;q=0.8,de;q=0.7","ugfh3008hhvncmv","26","[""White""]","No","Female","2038045.099999994","17214","","","{""price_1"":""300"",""price_2"":""274"",""price_3"":""300""}","rating","tcd","repulsion_1","2","laptops","null","null","null","null","null","null","2","30","40","25","100","90","100","Processing speed","Memory (RAM)","",""
"","","","","","rating_trial_setup","html-keyboard-response","21","753803","0.0-3.0-0.9","67","1","2025-04-11 14:29:36","bb671e3ae32f654b8954ea4c4635f915","","Mozilla/5.0 (Windows NT 10.0; Win64; x64) AppleWebKit/537.36 (KHTML, like Gecko) Chrome/135.0.0.0 Safari/537.36","WebKit","Chrome","135.0.0.0","Windows","10.0","https://hz8g1ckzuq.cognition.run/","en-US,en;q=0.9,de-DE;q=0.8,de;q=0.7","ugfh3008hhvncmv","26","[""White""]","No","Female","2038045.099999994","null","","<p></p>","null","rating","ctd","attraction_2","1","laptops","null","null","null","null","null","null","1","","","","","","","","","",""
"","","","","","rating_trial","survey-html-form","22","804843","0.0-3.0-1.9","67","1","2025-04-11 14:29:36","bb671e3ae32f654b8954ea4c4635f915","","Mozilla/5.0 (Windows NT 10.0; Win64; x64) AppleWebKit/537.36 (KHTML, like Gecko) Chrome/135.0.0.0 Safari/537.36","WebKit","Chrome","135.0.0.0","Windows","10.0","https://hz8g1ckzuq.cognition.run/","en-US,en;q=0.9,de-DE;q=0.8,de;q=0.7","ugfh3008hhvncmv","26","[""White""]","No","Female","2038045.099999994","51038","","","{""price_1"":""200"",""price_2"":""200"",""price_3"":""200""}","rating","ctd","attraction_2","1","laptops","null","null","null","null","null","null","1","60","50","60","50","60","40","Processing speed","Memory (RAM)","",""
"","","","","","rating_trial_setup","html-keyboard-response","23","805157","0.0-3.0-0.10","67","1","2025-04-11 14:29:36","bb671e3ae32f654b8954ea4c4635f915","","Mozilla/5.0 (Windows NT 10.0; Win64; x64) AppleWebKit/537.36 (KHTML, like Gecko) Chrome/135.0.0.0 Safari/537.36","WebKit","Chrome","135.0.0.0","Windows","10.0","https://hz8g1ckzuq.cognition.run/","en-US,en;q=0.9,de-DE;q=0.8,de;q=0.7","ugfh3008hhvncmv","26","[""White""]","No","Female","2038045.099999994","null","","<p></p>","null","rating","ctd","attraction_1","1","washing machines","null","null","null","null","null","null","2","","","","","","","","","",""
"","","","","","rating_trial","survey-html-form","24","910222","0.0-3.0-1.10","67","1","2025-04-11 14:29:36","bb671e3ae32f654b8954ea4c4635f915","","Mozilla/5.0 (Windows NT 10.0; Win64; x64) AppleWebKit/537.36 (KHTML, like Gecko) Chrome/135.0.0.0 Safari/537.36","WebKit","Chrome","135.0.0.0","Windows","10.0","https://hz8g1ckzuq.cognition.run/","en-US,en;q=0.9,de-DE;q=0.8,de;q=0.7","ugfh3008hhvncmv","26","[""White""]","No","Female","2038045.099999994","105063","","","{""price_1"":""300"",""price_2"":""250"",""price_3"":""250""}","rating","ctd","attraction_1","1","washing machines","null","null","null","null","null","null","2","60","50","60","50","60","45","Average lifespan","Energy savings","",""
"","","","","","rating_trial_setup","html-keyboard-response","25","910525","0.0-3.0-0.11","67","1","2025-04-11 14:29:36","bb671e3ae32f654b8954ea4c4635f915","","Mozilla/5.0 (Windows NT 10.0; Win64; x64) AppleWebKit/537.36 (KHTML, like Gecko) Chrome/135.0.0.0 Safari/537.36","WebKit","Chrome","135.0.0.0","Windows","10.0","https://hz8g1ckzuq.cognition.run/","en-US,en;q=0.9,de-DE;q=0.8,de;q=0.7","ugfh3008hhvncmv","26","[""White""]","No","Female","2038045.099999994","null","","<p></p>","null","rating","ctd","repulsion_2","1","microwave ovens","null","null","null","null","null","null","1","","","","","","","","","",""
"","","","","","rating_trial","survey-html-form","26","928106","0.0-3.0-1.11","67","1","2025-04-11 14:29:36","bb671e3ae32f654b8954ea4c4635f915","","Mozilla/5.0 (Windows NT 10.0; Win64; x64) AppleWebKit/537.36 (KHTML, like Gecko) Chrome/135.0.0.0 Safari/537.36","WebKit","Chrome","135.0.0.0","Windows","10.0","https://hz8g1ckzuq.cognition.run/","en-US,en;q=0.9,de-DE;q=0.8,de;q=0.7","ugfh3008hhvncmv","26","[""White""]","No","Female","2038045.099999994","17581","","","{""price_1"":""90"",""price_2"":""100"",""price_3"":""80""}","rating","ctd","repulsion_2","1","microwave ovens","null","null","null","null","null","null","1","100","90","100","30","40","20","Warranty","Cooking power","",""
"","","","","","rating_trial_setup","html-keyboard-response","27","928408","0.0-3.0-0.12","67","1","2025-04-11 14:29:36","bb671e3ae32f654b8954ea4c4635f915","","Mozilla/5.0 (Windows NT 10.0; Win64; x64) AppleWebKit/537.36 (KHTML, like Gecko) Chrome/135.0.0.0 Safari/537.36","WebKit","Chrome","135.0.0.0","Windows","10.0","https://hz8g1ckzuq.cognition.run/","en-US,en;q=0.9,de-DE;q=0.8,de;q=0.7","ugfh3008hhvncmv","26","[""White""]","No","Female","2038045.099999994","null","","<p></p>","null","rating","dct","attraction_1","1","microwave ovens","null","null","null","null","null","null","2","","","","","","","","","",""
"","","","","","rating_trial","survey-html-form","28","995649","0.0-3.0-1.12","67","1","2025-04-11 14:29:36","bb671e3ae32f654b8954ea4c4635f915","","Mozilla/5.0 (Windows NT 10.0; Win64; x64) AppleWebKit/537.36 (KHTML, like Gecko) Chrome/135.0.0.0 Safari/537.36","WebKit","Chrome","135.0.0.0","Windows","10.0","https://hz8g1ckzuq.cognition.run/","en-US,en;q=0.9,de-DE;q=0.8,de;q=0.7","ugfh3008hhvncmv","26","[""White""]","No","Female","2038045.099999994","67239","","","{""price_1"":""85"",""price_2"":""85"",""price_3"":""100""}","rating","dct","attraction_1","1","microwave ovens","null","null","null","null","null","null","2","60","50","60","50","60","45","Warranty","Cooking power","",""
"","","","","","rating_trial_setup","html-keyboard-response","29","995951","0.0-3.0-0.13","67","1","2025-04-11 14:29:36","bb671e3ae32f654b8954ea4c4635f915","","Mozilla/5.0 (Windows NT 10.0; Win64; x64) AppleWebKit/537.36 (KHTML, like Gecko) Chrome/135.0.0.0 Safari/537.36","WebKit","Chrome","135.0.0.0","Windows","10.0","https://hz8g1ckzuq.cognition.run/","en-US,en;q=0.9,de-DE;q=0.8,de;q=0.7","ugfh3008hhvncmv","26","[""White""]","No","Female","2038045.099999994","null","","<p></p>","null","rating","dct","attraction_1","2","laptops","null","null","null","null","null","null","1","","","","","","","","","",""
"","","","","","rating_trial","survey-html-form","30","1014443","0.0-3.0-1.13","67","1","2025-04-11 14:29:36","bb671e3ae32f654b8954ea4c4635f915","","Mozilla/5.0 (Windows NT 10.0; Win64; x64) AppleWebKit/537.36 (KHTML, like Gecko) Chrome/135.0.0.0 Safari/537.36","WebKit","Chrome","135.0.0.0","Windows","10.0","https://hz8g1ckzuq.cognition.run/","en-US,en;q=0.9,de-DE;q=0.8,de;q=0.7","ugfh3008hhvncmv","26","[""White""]","No","Female","2038045.099999994","18490","","","{""price_1"":""325"",""price_2"":""350"",""price_3"":""350""}","rating","dct","attraction_1","2","laptops","null","null","null","null","null","null","1","50","60","45","60","50","60","Processing speed","Memory (RAM)","",""
"","","","","","rating_trial_setup","html-keyboard-response","31","1014745","0.0-3.0-0.14","67","1","2025-04-11 14:29:36","bb671e3ae32f654b8954ea4c4635f915","","Mozilla/5.0 (Windows NT 10.0; Win64; x64) AppleWebKit/537.36 (KHTML, like Gecko) Chrome/135.0.0.0 Safari/537.36","WebKit","Chrome","135.0.0.0","Windows","10.0","https://hz8g1ckzuq.cognition.run/","en-US,en;q=0.9,de-DE;q=0.8,de;q=0.7","ugfh3008hhvncmv","26","[""White""]","No","Female","2038045.099999994","null","","<p></p>","null","rating","tcd","attraction_1","2","televisions","null","null","null","null","null","null","1","","","","","","","","","",""
"","","","","","rating_trial","survey-html-form","32","1061572","0.0-3.0-1.14","67","1","2025-04-11 14:29:36","bb671e3ae32f654b8954ea4c4635f915","","Mozilla/5.0 (Windows NT 10.0; Win64; x64) AppleWebKit/537.36 (KHTML, like Gecko) Chrome/135.0.0.0 Safari/537.36","WebKit","Chrome","135.0.0.0","Windows","10.0","https://hz8g1ckzuq.cognition.run/","en-US,en;q=0.9,de-DE;q=0.8,de;q=0.7","ugfh3008hhvncmv","26","[""White""]","No","Female","2038045.099999994","46825","","","{""price_1"":""300"",""price_2"":""300"",""price_3"":""300""}","rating","tcd","attraction_1","2","televisions","null","null","null","null","null","null","1","50","60","45","60","50","60","Screen size","Average lifespan","",""
"","","","","","rating_trial_setup","html-keyboard-response","33","1061874","0.0-3.0-0.15","67","1","2025-04-11 14:29:36","bb671e3ae32f654b8954ea4c4635f915","","Mozilla/5.0 (Windows NT 10.0; Win64; x64) AppleWebKit/537.36 (KHTML, like Gecko) Chrome/135.0.0.0 Safari/537.36","WebKit","Chrome","135.0.0.0","Windows","10.0","https://hz8g1ckzuq.cognition.run/","en-US,en;q=0.9,de-DE;q=0.8,de;q=0.7","ugfh3008hhvncmv","26","[""White""]","No","Female","2038045.099999994","null","","<p></p>","null","rating","tdc","attraction_1","1","televisions","null","null","null","null","null","null","1","","","","","","","","","",""
"","","","","","rating_trial","survey-html-form","34","1070178","0.0-3.0-1.15","67","1","2025-04-11 14:29:36","bb671e3ae32f654b8954ea4c4635f915","","Mozilla/5.0 (Windows NT 10.0; Win64; x64) AppleWebKit/537.36 (KHTML, like Gecko) Chrome/135.0.0.0 Safari/537.36","WebKit","Chrome","135.0.0.0","Windows","10.0","https://hz8g1ckzuq.cognition.run/","en-US,en;q=0.9,de-DE;q=0.8,de;q=0.7","ugfh3008hhvncmv","26","[""White""]","No","Female","2038045.099999994","8301","","","{""price_1"":""300"",""price_2"":""250"",""price_3"":""300""}","rating","tdc","attraction_1","1","televisions","null","null","null","null","null","null","1","60","50","60","50","60","45","Screen size","Average lifespan","",""
"","","","","","rating_trial_setup","html-keyboard-response","35","1070480","0.0-3.0-0.16","67","1","2025-04-11 14:29:36","bb671e3ae32f654b8954ea4c4635f915","","Mozilla/5.0 (Windows NT 10.0; Win64; x64) AppleWebKit/537.36 (KHTML, like Gecko) Chrome/135.0.0.0 Safari/537.36","WebKit","Chrome","135.0.0.0","Windows","10.0","https://hz8g1ckzuq.cognition.run/","en-US,en;q=0.9,de-DE;q=0.8,de;q=0.7","ugfh3008hhvncmv","26","[""White""]","No","Female","2038045.099999994","null","","<p></p>","null","rating","dct","repulsion_2","1","washing machines","null","null","null","null","null","null","2","","","","","","","","","",""
"","","","","","rating_trial","survey-html-form","36","1096098","0.0-3.0-1.16","67","1","2025-04-11 14:29:36","bb671e3ae32f654b8954ea4c4635f915","","Mozilla/5.0 (Windows NT 10.0; Win64; x64) AppleWebKit/537.36 (KHTML, like Gecko) Chrome/135.0.0.0 Safari/537.36","WebKit","Chrome","135.0.0.0","Windows","10.0","https://hz8g1ckzuq.cognition.run/","en-US,en;q=0.9,de-DE;q=0.8,de;q=0.7","ugfh3008hhvncmv","26","[""White""]","No","Female","2038045.099999994","25617","","","{""price_1"":""300"",""price_2"":""200"",""price_3"":""300""}","rating","dct","repulsion_2","1","washing machines","null","null","null","null","null","null","2","100","90","100","30","40","20","Average lifespan","Energy savings","",""
"","","","","","rating_trial_setup","html-keyboard-response","37","1096400","0.0-3.0-0.17","67","1","2025-04-11 14:29:36","bb671e3ae32f654b8954ea4c4635f915","","Mozilla/5.0 (Windows NT 10.0; Win64; x64) AppleWebKit/537.36 (KHTML, like Gecko) Chrome/135.0.0.0 Safari/537.36","WebKit","Chrome","135.0.0.0","Windows","10.0","https://hz8g1ckzuq.cognition.run/","en-US,en;q=0.9,de-DE;q=0.8,de;q=0.7","ugfh3008hhvncmv","26","[""White""]","No","Female","2038045.099999994","null","","<p></p>","null","rating","cdt","repulsion_1","1","televisions","null","null","null","null","null","null","1","","","","","","","","","",""
"","","","","","rating_trial","survey-html-form","38","1104747","0.0-3.0-1.17","67","1","2025-04-11 14:29:36","bb671e3ae32f654b8954ea4c4635f915","","Mozilla/5.0 (Windows NT 10.0; Win64; x64) AppleWebKit/537.36 (KHTML, like Gecko) Chrome/135.0.0.0 Safari/537.36","WebKit","Chrome","135.0.0.0","Windows","10.0","https://hz8g1ckzuq.cognition.run/","en-US,en;q=0.9,de-DE;q=0.8,de;q=0.7","ugfh3008hhvncmv","26","[""White""]","No","Female","2038045.099999994","8345","","","{""price_1"":""200"",""price_2"":""250"",""price_3"":""250""}","rating","cdt","repulsion_1","1","televisions","null","null","null","null","null","null","1","100","90","100","30","40","25","Screen size","Average lifespan","",""
"","","","","","rating_trial_setup","html-keyboard-response","39","1105049","0.0-3.0-0.18","67","1","2025-04-11 14:29:36","bb671e3ae32f654b8954ea4c4635f915","","Mozilla/5.0 (Windows NT 10.0; Win64; x64) AppleWebKit/537.36 (KHTML, like Gecko) Chrome/135.0.0.0 Safari/537.36","WebKit","Chrome","135.0.0.0","Windows","10.0","https://hz8g1ckzuq.cognition.run/","en-US,en;q=0.9,de-DE;q=0.8,de;q=0.7","ugfh3008hhvncmv","26","[""White""]","No","Female","2038045.099999994","null","","<p></p>","null","rating","tdc","repulsion_2","1","laptops","null","null","null","null","null","null","2","","","","","","","","","",""
"","","","","","rating_trial","survey-html-form","40","1112523","0.0-3.0-1.18","67","1","2025-04-11 14:29:36","bb671e3ae32f654b8954ea4c4635f915","","Mozilla/5.0 (Windows NT 10.0; Win64; x64) AppleWebKit/537.36 (KHTML, like Gecko) Chrome/135.0.0.0 Safari/537.36","WebKit","Chrome","135.0.0.0","Windows","10.0","https://hz8g1ckzuq.cognition.run/","en-US,en;q=0.9,de-DE;q=0.8,de;q=0.7","ugfh3008hhvncmv","26","[""White""]","No","Female","2038045.099999994","7473","","","{""price_1"":""300"",""price_2"":""300"",""price_3"":""250""}","rating","tdc","repulsion_2","1","laptops","null","null","null","null","null","null","2","100","90","100","30","40","20","Processing speed","Memory (RAM)","",""
"","","","","","rating_trial_setup","html-keyboard-response","41","1112826","0.0-3.0-0.19","67","1","2025-04-11 14:29:36","bb671e3ae32f654b8954ea4c4635f915","","Mozilla/5.0 (Windows NT 10.0; Win64; x64) AppleWebKit/537.36 (KHTML, like Gecko) Chrome/135.0.0.0 Safari/537.36","WebKit","Chrome","135.0.0.0","Windows","10.0","https://hz8g1ckzuq.cognition.run/","en-US,en;q=0.9,de-DE;q=0.8,de;q=0.7","ugfh3008hhvncmv","26","[""White""]","No","Female","2038045.099999994","null","","<p></p>","null","rating","tdc","repulsion_2","2","washing machines","null","null","null","null","null","null","2","","","","","","","","","",""
"","","","","","rating_trial","survey-html-form","42","1122569","0.0-3.0-1.19","67","1","2025-04-11 14:29:36","bb671e3ae32f654b8954ea4c4635f915","","Mozilla/5.0 (Windows NT 10.0; Win64; x64) AppleWebKit/537.36 (KHTML, like Gecko) Chrome/135.0.0.0 Safari/537.36","WebKit","Chrome","135.0.0.0","Windows","10.0","https://hz8g1ckzuq.cognition.run/","en-US,en;q=0.9,de-DE;q=0.8,de;q=0.7","ugfh3008hhvncmv","26","[""White""]","No","Female","2038045.099999994","9741","","","{""price_1"":""350"",""price_2"":""350"",""price_3"":""200""}","rating","tdc","repulsion_2","2","washing machines","null","null","null","null","null","null","2","30","40","20","100","90","100","Average lifespan","Energy savings","",""
"","","","","","rating_trial_setup","html-keyboard-response","43","1122871","0.0-3.0-0.20","67","1","2025-04-11 14:29:36","bb671e3ae32f654b8954ea4c4635f915","","Mozilla/5.0 (Windows NT 10.0; Win64; x64) AppleWebKit/537.36 (KHTML, like Gecko) Chrome/135.0.0.0 Safari/537.36","WebKit","Chrome","135.0.0.0","Windows","10.0","https://hz8g1ckzuq.cognition.run/","en-US,en;q=0.9,de-DE;q=0.8,de;q=0.7","ugfh3008hhvncmv","26","[""White""]","No","Female","2038045.099999994","null","","<p></p>","null","rating","tcd","repulsion_1","2","washing machines","null","null","null","null","null","null","2","","","","","","","","","",""
"","","","","","rating_trial","survey-html-form","44","1134064","0.0-3.0-1.20","67","1","2025-04-11 14:29:36","bb671e3ae32f654b8954ea4c4635f915","","Mozilla/5.0 (Windows NT 10.0; Win64; x64) AppleWebKit/537.36 (KHTML, like Gecko) Chrome/135.0.0.0 Safari/537.36","WebKit","Chrome","135.0.0.0","Windows","10.0","https://hz8g1ckzuq.cognition.run/","en-US,en;q=0.9,de-DE;q=0.8,de;q=0.7","ugfh3008hhvncmv","26","[""White""]","No","Female","2038045.099999994","11192","","","{""price_1"":""325"",""price_2"":""250"",""price_3"":""300""}","rating","tcd","repulsion_1","2","washing machines","null","null","null","null","null","null","2","30","40","25","100","90","100","Average lifespan","Energy savings","",""
"","","","","","rating_trial_setup","html-keyboard-response","45","1134367","0.0-3.0-0.21","67","1","2025-04-11 14:29:36","bb671e3ae32f654b8954ea4c4635f915","","Mozilla/5.0 (Windows NT 10.0; Win64; x64) AppleWebKit/537.36 (KHTML, like Gecko) Chrome/135.0.0.0 Safari/537.36","WebKit","Chrome","135.0.0.0","Windows","10.0","https://hz8g1ckzuq.cognition.run/","en-US,en;q=0.9,de-DE;q=0.8,de;q=0.7","ugfh3008hhvncmv","26","[""White""]","No","Female","2038045.099999994","null","","<p></p>","null","rating","ctd","repulsion_2","2","microwave ovens","null","null","null","null","null","null","2","","","","","","","","","",""
"","","","","","rating_trial","survey-html-form","46","1143279","0.0-3.0-1.21","67","1","2025-04-11 14:29:36","bb671e3ae32f654b8954ea4c4635f915","","Mozilla/5.0 (Windows NT 10.0; Win64; x64) AppleWebKit/537.36 (KHTML, like Gecko) Chrome/135.0.0.0 Safari/537.36","WebKit","Chrome","135.0.0.0","Windows","10.0","https://hz8g1ckzuq.cognition.run/","en-US,en;q=0.9,de-DE;q=0.8,de;q=0.7","ugfh3008hhvncmv","26","[""White""]","No","Female","2038045.099999994","8909","","","{""price_1"":""75"",""price_2"":""100"",""price_3"":""70""}","rating","ctd","repulsion_2","2","microwave ovens","null","null","null","null","null","null","2","30","40","20","100","90","100","Warranty","Cooking power","",""
"","","","","","rating_trial_setup","html-keyboard-response","47","1143582","0.0-3.0-0.22","67","1","2025-04-11 14:29:36","bb671e3ae32f654b8954ea4c4635f915","","Mozilla/5.0 (Windows NT 10.0; Win64; x64) AppleWebKit/537.36 (KHTML, like Gecko) Chrome/135.0.0.0 Safari/537.36","WebKit","Chrome","135.0.0.0","Windows","10.0","https://hz8g1ckzuq.cognition.run/","en-US,en;q=0.9,de-DE;q=0.8,de;q=0.7","ugfh3008hhvncmv","26","[""White""]","No","Female","2038045.099999994","null","","<p></p>","null","rating","dtc","attraction_2","1","televisions","null","null","null","null","null","null","2","","","","","","","","","",""
"","","","","","rating_trial","survey-html-form","48","1200601","0.0-3.0-1.22","67","1","2025-04-11 14:29:36","bb671e3ae32f654b8954ea4c4635f915","","Mozilla/5.0 (Windows NT 10.0; Win64; x64) AppleWebKit/537.36 (KHTML, like Gecko) Chrome/135.0.0.0 Safari/537.36","WebKit","Chrome","135.0.0.0","Windows","10.0","https://hz8g1ckzuq.cognition.run/","en-US,en;q=0.9,de-DE;q=0.8,de;q=0.7","ugfh3008hhvncmv","26","[""White""]","No","Female","2038045.099999994","57018","","","{""price_1"":""350"",""price_2"":""250"",""price_3"":""250""}","rating","dtc","attraction_2","1","televisions","null","null","null","null","null","null","2","60","50","60","50","60","40","Screen size","Average lifespan","",""
"","","","","","rating_trial_setup","html-keyboard-response","49","1200903","0.0-3.0-0.23","67","1","2025-04-11 14:29:36","bb671e3ae32f654b8954ea4c4635f915","","Mozilla/5.0 (Windows NT 10.0; Win64; x64) AppleWebKit/537.36 (KHTML, like Gecko) Chrome/135.0.0.0 Safari/537.36","WebKit","Chrome","135.0.0.0","Windows","10.0","https://hz8g1ckzuq.cognition.run/","en-US,en;q=0.9,de-DE;q=0.8,de;q=0.7","ugfh3008hhvncmv","26","[""White""]","No","Female","2038045.099999994","null","","<p></p>","null","rating","dtc","repulsion_2","2","televisions","null","null","null","null","null","null","1","","","","","","","","","",""
"","","","","","rating_trial","survey-html-form","50","1308654","0.0-3.0-1.23","67","1","2025-04-11 14:29:36","bb671e3ae32f654b8954ea4c4635f915","","Mozilla/5.0 (Windows NT 10.0; Win64; x64) AppleWebKit/537.36 (KHTML, like Gecko) Chrome/135.0.0.0 Safari/537.36","WebKit","Chrome","135.0.0.0","Windows","10.0","https://hz8g1ckzuq.cognition.run/","en-US,en;q=0.9,de-DE;q=0.8,de;q=0.7","ugfh3008hhvncmv","26","[""White""]","No","Female","2038045.099999994","107750","","","{""price_1"":""300"",""price_2"":""300"",""price_3"":""250""}","rating","dtc","repulsion_2","2","televisions","null","null","null","null","null","null","1","30","40","20","100","90","100","Screen size","Average lifespan","",""
"","","","","","rating_trial_setup","html-keyboard-response","51","1308956","0.0-3.0-0.24","67","1","2025-04-11 14:29:36","bb671e3ae32f654b8954ea4c4635f915","","Mozilla/5.0 (Windows NT 10.0; Win64; x64) AppleWebKit/537.36 (KHTML, like Gecko) Chrome/135.0.0.0 Safari/537.36","WebKit","Chrome","135.0.0.0","Windows","10.0","https://hz8g1ckzuq.cognition.run/","en-US,en;q=0.9,de-DE;q=0.8,de;q=0.7","ugfh3008hhvncmv","26","[""White""]","No","Female","2038045.099999994","null","","<p></p>","null","rating","ctd","attraction_2","2","washing machines","null","null","null","null","null","null","1","","","","","","","","","",""
"","","","","","rating_trial","survey-html-form","52","1318302","0.0-3.0-1.24","67","1","2025-04-11 14:29:36","bb671e3ae32f654b8954ea4c4635f915","","Mozilla/5.0 (Windows NT 10.0; Win64; x64) AppleWebKit/537.36 (KHTML, like Gecko) Chrome/135.0.0.0 Safari/537.36","WebKit","Chrome","135.0.0.0","Windows","10.0","https://hz8g1ckzuq.cognition.run/","en-US,en;q=0.9,de-DE;q=0.8,de;q=0.7","ugfh3008hhvncmv","26","[""White""]","No","Female","2038045.099999994","9344","","","{""price_1"":""300"",""price_2"":""250"",""price_3"":""250""}","rating","ctd","attraction_2","2","washing machines","null","null","null","null","null","null","1","50","60","40","60","50","60","Average lifespan","Energy savings","",""
"","","","","","rating_trial_setup","html-keyboard-response","53","1318605","0.0-3.0-0.25","67","1","2025-04-11 14:29:36","bb671e3ae32f654b8954ea4c4635f915","","Mozilla/5.0 (Windows NT 10.0; Win64; x64) AppleWebKit/537.36 (KHTML, like Gecko) Chrome/135.0.0.0 Safari/537.36","WebKit","Chrome","135.0.0.0","Windows","10.0","https://hz8g1ckzuq.cognition.run/","en-US,en;q=0.9,de-DE;q=0.8,de;q=0.7","ugfh3008hhvncmv","26","[""White""]","No","Female","2038045.099999994","null","","<p></p>","null","rating","bww","catch","null","microwave ovens","50","95","40","15","20","5","1","","","","","","","","","",""
"","","","","","rating_trial","survey-html-form","54","1329414","0.0-3.0-1.25","67","1","2025-04-11 14:29:36","bb671e3ae32f654b8954ea4c4635f915","","Mozilla/5.0 (Windows NT 10.0; Win64; x64) AppleWebKit/537.36 (KHTML, like Gecko) Chrome/135.0.0.0 Safari/537.36","WebKit","Chrome","135.0.0.0","Windows","10.0","https://hz8g1ckzuq.cognition.run/","en-US,en;q=0.9,de-DE;q=0.8,de;q=0.7","ugfh3008hhvncmv","26","[""White""]","No","Female","2038045.099999994","10808","","","{""price_1"":""100"",""price_2"":""75"",""price_3"":""50""}","rating","bww","catch","null","microwave ovens","50","95","40","15","20","5","1","null","null","null","null","null","null","Warranty","Cooking power","",""
"","","","","","rating_trial_setup","html-keyboard-response","55","1329716","0.0-3.0-0.26","67","1","2025-04-11 14:29:36","bb671e3ae32f654b8954ea4c4635f915","","Mozilla/5.0 (Windows NT 10.0; Win64; x64) AppleWebKit/537.36 (KHTML, like Gecko) Chrome/135.0.0.0 Safari/537.36","WebKit","Chrome","135.0.0.0","Windows","10.0","https://hz8g1ckzuq.cognition.run/","en-US,en;q=0.9,de-DE;q=0.8,de;q=0.7","ugfh3008hhvncmv","26","[""White""]","No","Female","2038045.099999994","null","","<p></p>","null","rating","wbw","catch","null","televisions","75","55","25","30","45","30","2","","","","","","","","","",""
"","","","","","rating_trial","survey-html-form","56","1393678","0.0-3.0-1.26","67","1","2025-04-11 14:29:36","bb671e3ae32f654b8954ea4c4635f915","","Mozilla/5.0 (Windows NT 10.0; Win64; x64) AppleWebKit/537.36 (KHTML, like Gecko) Chrome/135.0.0.0 Safari/537.36","WebKit","Chrome","135.0.0.0","Windows","10.0","https://hz8g1ckzuq.cognition.run/","en-US,en;q=0.9,de-DE;q=0.8,de;q=0.7","ugfh3008hhvncmv","26","[""White""]","No","Female","2038045.099999994","63959","","","{""price_1"":""250"",""price_2"":""250"",""price_3"":""250""}","rating","wbw","catch","null","televisions","75","55","25","30","45","30","2","null","null","null","null","null","null","Screen size","Average lifespan","",""
"","","","","","rating_trial_setup","html-keyboard-response","57","1393982","0.0-3.0-0.27","67","1","2025-04-11 14:29:36","bb671e3ae32f654b8954ea4c4635f915","","Mozilla/5.0 (Windows NT 10.0; Win64; x64) AppleWebKit/537.36 (KHTML, like Gecko) Chrome/135.0.0.0 Safari/537.36","WebKit","Chrome","135.0.0.0","Windows","10.0","https://hz8g1ckzuq.cognition.run/","en-US,en;q=0.9,de-DE;q=0.8,de;q=0.7","ugfh3008hhvncmv","26","[""White""]","No","Female","2038045.099999994","null","","<p></p>","null","rating","bww","catch","null","washing machines","80","85","15","25","10","35","2","","","","","","","","","",""
"","","","","","rating_trial","survey-html-form","58","1402721","0.0-3.0-1.27","67","1","2025-04-11 14:29:36","bb671e3ae32f654b8954ea4c4635f915","","Mozilla/5.0 (Windows NT 10.0; Win64; x64) AppleWebKit/537.36 (KHTML, like Gecko) Chrome/135.0.0.0 Safari/537.36","WebKit","Chrome","135.0.0.0","Windows","10.0","https://hz8g1ckzuq.cognition.run/","en-US,en;q=0.9,de-DE;q=0.8,de;q=0.7","ugfh3008hhvncmv","26","[""White""]","No","Female","2038045.099999994","8735","","","{""price_1"":""300"",""price_2"":""250"",""price_3"":""250""}","rating","bww","catch","null","washing machines","80","85","15","25","10","35","2","null","null","null","null","null","null","Average lifespan","Energy savings","",""
"","","","","","rating_trial_setup","html-keyboard-response","59","1403023","0.0-3.0-0.28","67","1","2025-04-11 14:29:36","bb671e3ae32f654b8954ea4c4635f915","","Mozilla/5.0 (Windows NT 10.0; Win64; x64) AppleWebKit/537.36 (KHTML, like Gecko) Chrome/135.0.0.0 Safari/537.36","WebKit","Chrome","135.0.0.0","Windows","10.0","https://hz8g1ckzuq.cognition.run/","en-US,en;q=0.9,de-DE;q=0.8,de;q=0.7","ugfh3008hhvncmv","26","[""White""]","No","Female","2038045.099999994","null","","<p></p>","null","rating","dct","repulsion_1","2","televisions","null","null","null","null","null","null","1","","","","","","","","","",""
"","","","","","rating_trial","survey-html-form","60","1409894","0.0-3.0-1.28","67","1","2025-04-11 14:29:36","bb671e3ae32f654b8954ea4c4635f915","","Mozilla/5.0 (Windows NT 10.0; Win64; x64) AppleWebKit/537.36 (KHTML, like Gecko) Chrome/135.0.0.0 Safari/537.36","WebKit","Chrome","135.0.0.0","Windows","10.0","https://hz8g1ckzuq.cognition.run/","en-US,en;q=0.9,de-DE;q=0.8,de;q=0.7","ugfh3008hhvncmv","26","[""White""]","No","Female","2038045.099999994","6868","","","{""price_1"":""200"",""price_2"":""300"",""price_3"":""300""}","rating","dct","repulsion_1","2","televisions","null","null","null","null","null","null","1","30","40","25","100","90","100","Screen size","Average lifespan","",""
"","","","","","rating_trial_setup","html-keyboard-response","61","1410197","0.0-3.0-0.29","67","1","2025-04-11 14:29:36","bb671e3ae32f654b8954ea4c4635f915","","Mozilla/5.0 (Windows NT 10.0; Win64; x64) AppleWebKit/537.36 (KHTML, like Gecko) Chrome/135.0.0.0 Safari/537.36","WebKit","Chrome","135.0.0.0","Windows","10.0","https://hz8g1ckzuq.cognition.run/","en-US,en;q=0.9,de-DE;q=0.8,de;q=0.7","ugfh3008hhvncmv","26","[""White""]","No","Female","2038045.099999994","null","","<p></p>","null","rating","wwb","catch","null","laptops","85","70","25","20","45","40","2","","","","","","","","","",""
"","","","","","rating_trial","survey-html-form","62","1416758","0.0-3.0-1.29","67","1","2025-04-11 14:29:36","bb671e3ae32f654b8954ea4c4635f915","","Mozilla/5.0 (Windows NT 10.0; Win64; x64) AppleWebKit/537.36 (KHTML, like Gecko) Chrome/135.0.0.0 Safari/537.36","WebKit","Chrome","135.0.0.0","Windows","10.0","https://hz8g1ckzuq.cognition.run/","en-US,en;q=0.9,de-DE;q=0.8,de;q=0.7","ugfh3008hhvncmv","26","[""White""]","No","Female","2038045.099999994","6560","","","{""price_1"":""200"",""price_2"":""300"",""price_3"":""300""}","rating","wwb","catch","null","laptops","85","70","25","20","45","40","2","null","null","null","null","null","null","Processing speed","Memory (RAM)","",""
"","","","","","rating_trial_setup","html-keyboard-response","63","1417062","0.0-3.0-0.30","67","1","2025-04-11 14:29:36","bb671e3ae32f654b8954ea4c4635f915","","Mozilla/5.0 (Windows NT 10.0; Win64; x64) AppleWebKit/537.36 (KHTML, like Gecko) Chrome/135.0.0.0 Safari/537.36","WebKit","Chrome","135.0.0.0","Windows","10.0","https://hz8g1ckzuq.cognition.run/","en-US,en;q=0.9,de-DE;q=0.8,de;q=0.7","ugfh3008hhvncmv","26","[""White""]","No","Female","2038045.099999994","null","","<p></p>","null","rating","cdt","attraction_1","2","washing machines","null","null","null","null","null","null","1","","","","","","","","","",""
"","","","","","rating_trial","survey-html-form","64","1420323","0.0-3.0-1.30","67","1","2025-04-11 14:29:36","bb671e3ae32f654b8954ea4c4635f915","","Mozilla/5.0 (Windows NT 10.0; Win64; x64) AppleWebKit/537.36 (KHTML, like Gecko) Chrome/135.0.0.0 Safari/537.36","WebKit","Chrome","135.0.0.0","Windows","10.0","https://hz8g1ckzuq.cognition.run/","en-US,en;q=0.9,de-DE;q=0.8,de;q=0.7","ugfh3008hhvncmv","26","[""White""]","No","Female","2038045.099999994","3260","","","{""price_1"":""300"",""price_2"":""300"",""price_3"":""300""}","rating","cdt","attraction_1","2","washing machines","null","null","null","null","null","null","1","50","60","45","60","50","60","Average lifespan","Energy savings","",""
"","","","","","rating_trial_setup","html-keyboard-response","65","1420626","0.0-3.0-0.31","67","1","2025-04-11 14:29:36","bb671e3ae32f654b8954ea4c4635f915","","Mozilla/5.0 (Windows NT 10.0; Win64; x64) AppleWebKit/537.36 (KHTML, like Gecko) Chrome/135.0.0.0 Safari/537.36","WebKit","Chrome","135.0.0.0","Windows","10.0","https://hz8g1ckzuq.cognition.run/","en-US,en;q=0.9,de-DE;q=0.8,de;q=0.7","ugfh3008hhvncmv","26","[""White""]","No","Female","2038045.099999994","null","","<p></p>","null","rating","cdt","attraction_2","2","microwave ovens","null","null","null","null","null","null","2","","","","","","","","","",""
"","","","","","rating_trial","survey-html-form","66","1458997","0.0-3.0-1.31","67","1","2025-04-11 14:29:36","bb671e3ae32f654b8954ea4c4635f915","","Mozilla/5.0 (Windows NT 10.0; Win64; x64) AppleWebKit/537.36 (KHTML, like Gecko) Chrome/135.0.0.0 Safari/537.36","WebKit","Chrome","135.0.0.0","Windows","10.0","https://hz8g1ckzuq.cognition.run/","en-US,en;q=0.9,de-DE;q=0.8,de;q=0.7","ugfh3008hhvncmv","26","[""White""]","No","Female","2038045.099999994","38369","","","{""price_1"":""200"",""price_2"":""200"",""price_3"":""200""}","rating","cdt","attraction_2","2","microwave ovens","null","null","null","null","null","null","2","50","60","40","60","50","60","Warranty","Cooking power","",""
"","","","","","rating_trial_setup","html-keyboard-response","67","1459299","0.0-3.0-0.32","67","1","2025-04-11 14:29:36","bb671e3ae32f654b8954ea4c4635f915","","Mozilla/5.0 (Windows NT 10.0; Win64; x64) AppleWebKit/537.36 (KHTML, like Gecko) Chrome/135.0.0.0 Safari/537.36","WebKit","Chrome","135.0.0.0","Windows","10.0","https://hz8g1ckzuq.cognition.run/","en-US,en;q=0.9,de-DE;q=0.8,de;q=0.7","ugfh3008hhvncmv","26","[""White""]","No","Female","2038045.099999994","null","","<p></p>","null","rating","tcd","repulsion_1","1","laptops","null","null","null","null","null","null","1","","","","","","","","","",""
"","","","","","rating_trial","survey-html-form","68","1463108","0.0-3.0-1.32","67","1","2025-04-11 14:29:36","bb671e3ae32f654b8954ea4c4635f915","","Mozilla/5.0 (Windows NT 10.0; Win64; x64) AppleWebKit/537.36 (KHTML, like Gecko) Chrome/135.0.0.0 Safari/537.36","WebKit","Chrome","135.0.0.0","Windows","10.0","https://hz8g1ckzuq.cognition.run/","en-US,en;q=0.9,de-DE;q=0.8,de;q=0.7","ugfh3008hhvncmv","26","[""White""]","No","Female","2038045.099999994","3807","","","{""price_1"":""300"",""price_2"":""300"",""price_3"":""330""}","rating","tcd","repulsion_1","1","laptops","null","null","null","null","null","null","1","100","90","100","30","40","25","Processing speed","Memory (RAM)","",""
"","","","","","rating_trial_setup","html-keyboard-response","69","1463411","0.0-3.0-0.33","67","1","2025-04-11 14:29:36","bb671e3ae32f654b8954ea4c4635f915","","Mozilla/5.0 (Windows NT 10.0; Win64; x64) AppleWebKit/537.36 (KHTML, like Gecko) Chrome/135.0.0.0 Safari/537.36","WebKit","Chrome","135.0.0.0","Windows","10.0","https://hz8g1ckzuq.cognition.run/","en-US,en;q=0.9,de-DE;q=0.8,de;q=0.7","ugfh3008hhvncmv","26","[""White""]","No","Female","2038045.099999994","null","","<p></p>","null","rating","wbw","catch","null","laptops","70","50","15","15","15","35","2","","","","","","","","","",""
"","","","","","rating_trial","survey-html-form","70","1485445","0.0-3.0-1.33","67","1","2025-04-11 14:29:36","bb671e3ae32f654b8954ea4c4635f915","","Mozilla/5.0 (Windows NT 10.0; Win64; x64) AppleWebKit/537.36 (KHTML, like Gecko) Chrome/135.0.0.0 Safari/537.36","WebKit","Chrome","135.0.0.0","Windows","10.0","https://hz8g1ckzuq.cognition.run/","en-US,en;q=0.9,de-DE;q=0.8,de;q=0.7","ugfh3008hhvncmv","26","[""White""]","No","Female","2038045.099999994","22032","","","{""price_1"":""200"",""price_2"":""250"",""price_3"":""200""}","rating","wbw","catch","null","laptops","70","50","15","15","15","35","2","null","null","null","null","null","null","Processing speed","Memory (RAM)","",""
"","","","","","rating_trial_setup","html-keyboard-response","71","1485749","0.0-3.0-0.34","67","1","2025-04-11 14:29:36","bb671e3ae32f654b8954ea4c4635f915","","Mozilla/5.0 (Windows NT 10.0; Win64; x64) AppleWebKit/537.36 (KHTML, like Gecko) Chrome/135.0.0.0 Safari/537.36","WebKit","Chrome","135.0.0.0","Windows","10.0","https://hz8g1ckzuq.cognition.run/","en-US,en;q=0.9,de-DE;q=0.8,de;q=0.7","ugfh3008hhvncmv","26","[""White""]","No","Female","2038045.099999994","null","","<p></p>","null","rating","dtc","repulsion_2","2","laptops","null","null","null","null","null","null","2","","","","","","","","","",""
"","","","","","rating_trial","survey-html-form","72","1621740","0.0-3.0-1.34","67","1","2025-04-11 14:29:36","bb671e3ae32f654b8954ea4c4635f915","","Mozilla/5.0 (Windows NT 10.0; Win64; x64) AppleWebKit/537.36 (KHTML, like Gecko) Chrome/135.0.0.0 Safari/537.36","WebKit","Chrome","135.0.0.0","Windows","10.0","https://hz8g1ckzuq.cognition.run/","en-US,en;q=0.9,de-DE;q=0.8,de;q=0.7","ugfh3008hhvncmv","26","[""White""]","No","Female","2038045.099999994","135988","","","{""price_1"":""200"",""price_2"":""200"",""price_3"":""200""}","rating","dtc","repulsion_2","2","laptops","null","null","null","null","null","null","2","30","40","20","100","90","100","Processing speed","Memory (RAM)","",""
"","","","","","rating_trial_setup","html-keyboard-response","73","1622045","0.0-3.0-0.35","67","1","2025-04-11 14:29:36","bb671e3ae32f654b8954ea4c4635f915","","Mozilla/5.0 (Windows NT 10.0; Win64; x64) AppleWebKit/537.36 (KHTML, like Gecko) Chrome/135.0.0.0 Safari/537.36","WebKit","Chrome","135.0.0.0","Windows","10.0","https://hz8g1ckzuq.cognition.run/","en-US,en;q=0.9,de-DE;q=0.8,de;q=0.7","ugfh3008hhvncmv","26","[""White""]","No","Female","2038045.099999994","null","","<p></p>","null","rating","cdt","attraction_1","2","microwave ovens","null","null","null","null","null","null","1","","","","","","","","","",""
"","","","","","rating_trial","survey-html-form","74","1628325","0.0-3.0-1.35","67","1","2025-04-11 14:29:36","bb671e3ae32f654b8954ea4c4635f915","","Mozilla/5.0 (Windows NT 10.0; Win64; x64) AppleWebKit/537.36 (KHTML, like Gecko) Chrome/135.0.0.0 Safari/537.36","WebKit","Chrome","135.0.0.0","Windows","10.0","https://hz8g1ckzuq.cognition.run/","en-US,en;q=0.9,de-DE;q=0.8,de;q=0.7","ugfh3008hhvncmv","26","[""White""]","No","Female","2038045.099999994","6278","","","{""price_1"":""100"",""price_2"":""75"",""price_3"":""100""}","rating","cdt","attraction_1","2","microwave ovens","null","null","null","null","null","null","1","50","60","45","60","50","60","Warranty","Cooking power","",""
"","","","","","rating_trial_setup","html-keyboard-response","75","1628629","0.0-3.0-0.36","67","1","2025-04-11 14:29:36","bb671e3ae32f654b8954ea4c4635f915","","Mozilla/5.0 (Windows NT 10.0; Win64; x64) AppleWebKit/537.36 (KHTML, like Gecko) Chrome/135.0.0.0 Safari/537.36","WebKit","Chrome","135.0.0.0","Windows","10.0","https://hz8g1ckzuq.cognition.run/","en-US,en;q=0.9,de-DE;q=0.8,de;q=0.7","ugfh3008hhvncmv","26","[""White""]","No","Female","2038045.099999994","null","","<p></p>","null","rating","wwb","catch","null","microwave ovens","60","90","5","45","35","15","2","","","","","","","","","",""
"","","","","","rating_trial","survey-html-form","76","1663189","0.0-3.0-1.36","67","1","2025-04-11 14:29:36","bb671e3ae32f654b8954ea4c4635f915","","Mozilla/5.0 (Windows NT 10.0; Win64; x64) AppleWebKit/537.36 (KHTML, like Gecko) Chrome/135.0.0.0 Safari/537.36","WebKit","Chrome","135.0.0.0","Windows","10.0","https://hz8g1ckzuq.cognition.run/","en-US,en;q=0.9,de-DE;q=0.8,de;q=0.7","ugfh3008hhvncmv","26","[""White""]","No","Female","2038045.099999994","34557","","","{""price_1"":""100"",""price_2"":""75"",""price_3"":""80""}","rating","wwb","catch","null","microwave ovens","60","90","5","45","35","15","2","null","null","null","null","null","null","Warranty","Cooking power","",""
"","","","","","rating_trial_setup","html-keyboard-response","77","1663492","0.0-3.0-0.37","67","1","2025-04-11 14:29:36","bb671e3ae32f654b8954ea4c4635f915","","Mozilla/5.0 (Windows NT 10.0; Win64; x64) AppleWebKit/537.36 (KHTML, like Gecko) Chrome/135.0.0.0 Safari/537.36","WebKit","Chrome","135.0.0.0","Windows","10.0","https://hz8g1ckzuq.cognition.run/","en-US,en;q=0.9,de-DE;q=0.8,de;q=0.7","ugfh3008hhvncmv","26","[""White""]","No","Female","2038045.099999994","null","","<p></p>","null","rating","dtc","repulsion_1","1","washing machines","null","null","null","null","null","null","2","","","","","","","","","",""
"","","","","","rating_trial","survey-html-form","78","1672846","0.0-3.0-1.37","67","1","2025-04-11 14:29:36","bb671e3ae32f654b8954ea4c4635f915","","Mozilla/5.0 (Windows NT 10.0; Win64; x64) AppleWebKit/537.36 (KHTML, like Gecko) Chrome/135.0.0.0 Safari/537.36","WebKit","Chrome","135.0.0.0","Windows","10.0","https://hz8g1ckzuq.cognition.run/","en-US,en;q=0.9,de-DE;q=0.8,de;q=0.7","ugfh3008hhvncmv","26","[""White""]","No","Female","2038045.099999994","9352","","","{""price_1"":""300"",""price_2"":""300"",""price_3"":""200""}","rating","dtc","repulsion_1","1","washing machines","null","null","null","null","null","null","2","100","90","100","30","40","25","Average lifespan","Energy savings","",""
"","","","","","rating_trial_setup","html-keyboard-response","79","1673148","0.0-3.0-0.38","67","1","2025-04-11 14:29:36","bb671e3ae32f654b8954ea4c4635f915","","Mozilla/5.0 (Windows NT 10.0; Win64; x64) AppleWebKit/537.36 (KHTML, like Gecko) Chrome/135.0.0.0 Safari/537.36","WebKit","Chrome","135.0.0.0","Windows","10.0","https://hz8g1ckzuq.cognition.run/","en-US,en;q=0.9,de-DE;q=0.8,de;q=0.7","ugfh3008hhvncmv","26","[""White""]","No","Female","2038045.099999994","null","","<p></p>","null","rating","bww","catch","null","washing machines","50","60","10","10","20","25","1","","","","","","","","","",""
"","","","","","rating_trial","survey-html-form","80","1678270","0.0-3.0-1.38","67","1","2025-04-11 14:29:36","bb671e3ae32f654b8954ea4c4635f915","","Mozilla/5.0 (Windows NT 10.0; Win64; x64) AppleWebKit/537.36 (KHTML, like Gecko) Chrome/135.0.0.0 Safari/537.36","WebKit","Chrome","135.0.0.0","Windows","10.0","https://hz8g1ckzuq.cognition.run/","en-US,en;q=0.9,de-DE;q=0.8,de;q=0.7","ugfh3008hhvncmv","26","[""White""]","No","Female","2038045.099999994","5118","","","{""price_1"":""300"",""price_2"":""300"",""price_3"":""200""}","rating","bww","catch","null","washing machines","50","60","10","10","20","25","1","null","null","null","null","null","null","Average lifespan","Energy savings","",""
"","","","","","rating_trial_setup","html-keyboard-response","81","1678572","0.0-3.0-0.39","67","1","2025-04-11 14:29:36","bb671e3ae32f654b8954ea4c4635f915","","Mozilla/5.0 (Windows NT 10.0; Win64; x64) AppleWebKit/537.36 (KHTML, like Gecko) Chrome/135.0.0.0 Safari/537.36","WebKit","Chrome","135.0.0.0","Windows","10.0","https://hz8g1ckzuq.cognition.run/","en-US,en;q=0.9,de-DE;q=0.8,de;q=0.7","ugfh3008hhvncmv","26","[""White""]","No","Female","2038045.099999994","null","","<p></p>","null","rating","dct","attraction_2","2","televisions","null","null","null","null","null","null","2","","","","","","","","","",""
"","","","","","rating_trial","survey-html-form","82","1684673","0.0-3.0-1.39","67","1","2025-04-11 14:29:36","bb671e3ae32f654b8954ea4c4635f915","","Mozilla/5.0 (Windows NT 10.0; Win64; x64) AppleWebKit/537.36 (KHTML, like Gecko) Chrome/135.0.0.0 Safari/537.36","WebKit","Chrome","135.0.0.0","Windows","10.0","https://hz8g1ckzuq.cognition.run/","en-US,en;q=0.9,de-DE;q=0.8,de;q=0.7","ugfh3008hhvncmv","26","[""White""]","No","Female","2038045.099999994","6098","","","{""price_1"":""200"",""price_2"":""250"",""price_3"":""200""}","rating","dct","attraction_2","2","televisions","null","null","null","null","null","null","2","50","60","40","60","50","60","Screen size","Average lifespan","",""
"","","","","","","instructions","83","1701664","0.0-4.0","67","1","2025-04-11 14:29:36","bb671e3ae32f654b8954ea4c4635f915","","Mozilla/5.0 (Windows NT 10.0; Win64; x64) AppleWebKit/537.36 (KHTML, like Gecko) Chrome/135.0.0.0 Safari/537.36","WebKit","Chrome","135.0.0.0","Windows","10.0","https://hz8g1ckzuq.cognition.run/","en-US,en;q=0.9,de-DE;q=0.8,de;q=0.7","ugfh3008hhvncmv","26","[""White""]","No","Female","2038045.099999994","16989","[{""page_index"":0,""viewing_time"":1355},{""page_index"":1,""viewing_time"":1438},{""page_index"":2,""viewing_time"":1609},{""page_index"":3,""viewing_time"":2124},{""page_index"":4,""viewing_time"":2613},{""page_index"":5,""viewing_time"":1385},{""page_index"":6,""viewing_time"":3369},{""page_index"":7,""viewing_time"":3095}]","","","","","","","","","","","","","","","","","","","","","","","",""
"","","","","","choice_trial_setup","html-keyboard-response","84","1701969","0.0-5.0-0.0","67","1","2025-04-11 14:29:36","bb671e3ae32f654b8954ea4c4635f915","","Mozilla/5.0 (Windows NT 10.0; Win64; x64) AppleWebKit/537.36 (KHTML, like Gecko) Chrome/135.0.0.0 Safari/537.36","WebKit","Chrome","135.0.0.0","Windows","10.0","https://hz8g1ckzuq.cognition.run/","en-US,en;q=0.9,de-DE;q=0.8,de;q=0.7","ugfh3008hhvncmv","26","[""White""]","No","Female","2038045.099999994","null","","<p></p>","null","choice","cdt","repulsion_1","1","washing machines","null","null","null","null","null","null","2","","","","","","","","","",""
"","","","","","choice_trial","survey-html-form","85","1706668","0.0-5.0-1.0","67","1","2025-04-11 14:29:36","bb671e3ae32f654b8954ea4c4635f915","","Mozilla/5.0 (Windows NT 10.0; Win64; x64) AppleWebKit/537.36 (KHTML, like Gecko) Chrome/135.0.0.0 Safari/537.36","WebKit","Chrome","135.0.0.0","Windows","10.0","https://hz8g1ckzuq.cognition.run/","en-US,en;q=0.9,de-DE;q=0.8,de;q=0.7","ugfh3008hhvncmv","26","[""White""]","No","Female","2038045.099999994","4696","","","{""product_choice"":""A""}","choice","cdt","repulsion_1","1","washing machines","null","null","null","null","null","null","2","100","90","100","30","40","25","Average lifespan","Energy savings","",""
"","","","","","choice_trial_setup","html-keyboard-response","86","1706972","0.0-5.0-0.1","67","1","2025-04-11 14:29:36","bb671e3ae32f654b8954ea4c4635f915","","Mozilla/5.0 (Windows NT 10.0; Win64; x64) AppleWebKit/537.36 (KHTML, like Gecko) Chrome/135.0.0.0 Safari/537.36","WebKit","Chrome","135.0.0.0","Windows","10.0","https://hz8g1ckzuq.cognition.run/","en-US,en;q=0.9,de-DE;q=0.8,de;q=0.7","ugfh3008hhvncmv","26","[""White""]","No","Female","2038045.099999994","null","","<p></p>","null","choice","wwb","catch","null","televisions","55","95","10","30","25","50","1","","","","","","","","","",""
"","","","","","choice_trial","survey-html-form","87","1711674","0.0-5.0-1.1","67","1","2025-04-11 14:29:36","bb671e3ae32f654b8954ea4c4635f915","","Mozilla/5.0 (Windows NT 10.0; Win64; x64) AppleWebKit/537.36 (KHTML, like Gecko) Chrome/135.0.0.0 Safari/537.36","WebKit","Chrome","135.0.0.0","Windows","10.0","https://hz8g1ckzuq.cognition.run/","en-US,en;q=0.9,de-DE;q=0.8,de;q=0.7","ugfh3008hhvncmv","26","[""White""]","No","Female","2038045.099999994","4699","","","{""product_choice"":""C""}","choice","wwb","catch","null","televisions","55","95","10","30","25","50","1","null","null","null","null","null","null","Screen size","Average lifespan","",""
"","","","","","choice_trial_setup","html-keyboard-response","88","1711976","0.0-5.0-0.2","67","1","2025-04-11 14:29:36","bb671e3ae32f654b8954ea4c4635f915","","Mozilla/5.0 (Windows NT 10.0; Win64; x64) AppleWebKit/537.36 (KHTML, like Gecko) Chrome/135.0.0.0 Safari/537.36","WebKit","Chrome","135.0.0.0","Windows","10.0","https://hz8g1ckzuq.cognition.run/","en-US,en;q=0.9,de-DE;q=0.8,de;q=0.7","ugfh3008hhvncmv","26","[""White""]","No","Female","2038045.099999994","null","","<p></p>","null","choice","cdt","repulsion_1","2","microwave ovens","null","null","null","null","null","null","2","","","","","","","","","",""
"","","","","","choice_trial","survey-html-form","89","1721280","0.0-5.0-1.2","67","1","2025-04-11 14:29:36","bb671e3ae32f654b8954ea4c4635f915","","Mozilla/5.0 (Windows NT 10.0; Win64; x64) AppleWebKit/537.36 (KHTML, like Gecko) Chrome/135.0.0.0 Safari/537.36","WebKit","Chrome","135.0.0.0","Windows","10.0","https://hz8g1ckzuq.cognition.run/","en-US,en;q=0.9,de-DE;q=0.8,de;q=0.7","ugfh3008hhvncmv","26","[""White""]","No","Female","2038045.099999994","9301","","","{""product_choice"":""A""}","choice","cdt","repulsion_1","2","microwave ovens","null","null","null","null","null","null","2","30","40","25","100","90","100","Warranty","Cooking power","",""
"","","","","","choice_trial_setup","html-keyboard-response","90","1721583","0.0-5.0-0.3","67","1","2025-04-11 14:29:36","bb671e3ae32f654b8954ea4c4635f915","","Mozilla/5.0 (Windows NT 10.0; Win64; x64) AppleWebKit/537.36 (KHTML, like Gecko) Chrome/135.0.0.0 Safari/537.36","WebKit","Chrome","135.0.0.0","Windows","10.0","https://hz8g1ckzuq.cognition.run/","en-US,en;q=0.9,de-DE;q=0.8,de;q=0.7","ugfh3008hhvncmv","26","[""White""]","No","Female","2038045.099999994","null","","<p></p>","null","choice","cdt","attraction_2","2","microwave ovens","null","null","null","null","null","null","1","","","","","","","","","",""
"","","","","","choice_trial","survey-html-form","91","1724279","0.0-5.0-1.3","67","1","2025-04-11 14:29:36","bb671e3ae32f654b8954ea4c4635f915","","Mozilla/5.0 (Windows NT 10.0; Win64; x64) AppleWebKit/537.36 (KHTML, like Gecko) Chrome/135.0.0.0 Safari/537.36","WebKit","Chrome","135.0.0.0","Windows","10.0","https://hz8g1ckzuq.cognition.run/","en-US,en;q=0.9,de-DE;q=0.8,de;q=0.7","ugfh3008hhvncmv","26","[""White""]","No","Female","2038045.099999994","2693","","","{""product_choice"":""C""}","choice","cdt","attraction_2","2","microwave ovens","null","null","null","null","null","null","1","50","60","40","60","50","60","Warranty","Cooking power","",""
"","","","","","choice_trial_setup","html-keyboard-response","92","1724582","0.0-5.0-0.4","67","1","2025-04-11 14:29:36","bb671e3ae32f654b8954ea4c4635f915","","Mozilla/5.0 (Windows NT 10.0; Win64; x64) AppleWebKit/537.36 (KHTML, like Gecko) Chrome/135.0.0.0 Safari/537.36","WebKit","Chrome","135.0.0.0","Windows","10.0","https://hz8g1ckzuq.cognition.run/","en-US,en;q=0.9,de-DE;q=0.8,de;q=0.7","ugfh3008hhvncmv","26","[""White""]","No","Female","2038045.099999994","null","","<p></p>","null","choice","wwb","catch","null","microwave ovens","85","95","45","50","50","20","1","","","","","","","","","",""
"","","","","","choice_trial","survey-html-form","93","1726301","0.0-5.0-1.4","67","1","2025-04-11 14:29:36","bb671e3ae32f654b8954ea4c4635f915","","Mozilla/5.0 (Windows NT 10.0; Win64; x64) AppleWebKit/537.36 (KHTML, like Gecko) Chrome/135.0.0.0 Safari/537.36","WebKit","Chrome","135.0.0.0","Windows","10.0","https://hz8g1ckzuq.cognition.run/","en-US,en;q=0.9,de-DE;q=0.8,de;q=0.7","ugfh3008hhvncmv","26","[""White""]","No","Female","2038045.099999994","1717","","","{""product_choice"":""C""}","choice","wwb","catch","null","microwave ovens","85","95","45","50","50","20","1","null","null","null","null","null","null","Warranty","Cooking power","",""
"","","","","","choice_trial_setup","html-keyboard-response","94","1726604","0.0-5.0-0.5","67","1","2025-04-11 14:29:36","bb671e3ae32f654b8954ea4c4635f915","","Mozilla/5.0 (Windows NT 10.0; Win64; x64) AppleWebKit/537.36 (KHTML, like Gecko) Chrome/135.0.0.0 Safari/537.36","WebKit","Chrome","135.0.0.0","Windows","10.0","https://hz8g1ckzuq.cognition.run/","en-US,en;q=0.9,de-DE;q=0.8,de;q=0.7","ugfh3008hhvncmv","26","[""White""]","No","Female","2038045.099999994","null","","<p></p>","null","choice","tdc","repulsion_1","1","microwave ovens","null","null","null","null","null","null","2","","","","","","","","","",""
"","","","","","choice_trial","survey-html-form","95","1735613","0.0-5.0-1.5","67","1","2025-04-11 14:29:36","bb671e3ae32f654b8954ea4c4635f915","","Mozilla/5.0 (Windows NT 10.0; Win64; x64) AppleWebKit/537.36 (KHTML, like Gecko) Chrome/135.0.0.0 Safari/537.36","WebKit","Chrome","135.0.0.0","Windows","10.0","https://hz8g1ckzuq.cognition.run/","en-US,en;q=0.9,de-DE;q=0.8,de;q=0.7","ugfh3008hhvncmv","26","[""White""]","No","Female","2038045.099999994","9007","","","{""product_choice"":""C""}","choice","tdc","repulsion_1","1","microwave ovens","null","null","null","null","null","null","2","100","90","100","30","40","25","Warranty","Cooking power","",""
"","","","","","choice_trial_setup","html-keyboard-response","96","1735916","0.0-5.0-0.6","67","1","2025-04-11 14:29:36","bb671e3ae32f654b8954ea4c4635f915","","Mozilla/5.0 (Windows NT 10.0; Win64; x64) AppleWebKit/537.36 (KHTML, like Gecko) Chrome/135.0.0.0 Safari/537.36","WebKit","Chrome","135.0.0.0","Windows","10.0","https://hz8g1ckzuq.cognition.run/","en-US,en;q=0.9,de-DE;q=0.8,de;q=0.7","ugfh3008hhvncmv","26","[""White""]","No","Female","2038045.099999994","null","","<p></p>","null","choice","tcd","attraction_1","1","washing machines","null","null","null","null","null","null","2","","","","","","","","","",""
"","","","","","choice_trial","survey-html-form","97","1753855","0.0-5.0-1.6","67","1","2025-04-11 14:29:36","bb671e3ae32f654b8954ea4c4635f915","","Mozilla/5.0 (Windows NT 10.0; Win64; x64) AppleWebKit/537.36 (KHTML, like Gecko) Chrome/135.0.0.0 Safari/537.36","WebKit","Chrome","135.0.0.0","Windows","10.0","https://hz8g1ckzuq.cognition.run/","en-US,en;q=0.9,de-DE;q=0.8,de;q=0.7","ugfh3008hhvncmv","26","[""White""]","No","Female","2038045.099999994","17937","","","{""product_choice"":""A""}","choice","tcd","attraction_1","1","washing machines","null","null","null","null","null","null","2","60","50","60","50","60","45","Average lifespan","Energy savings","",""
"","","","","","choice_trial_setup","html-keyboard-response","98","1754159","0.0-5.0-0.7","67","1","2025-04-11 14:29:36","bb671e3ae32f654b8954ea4c4635f915","","Mozilla/5.0 (Windows NT 10.0; Win64; x64) AppleWebKit/537.36 (KHTML, like Gecko) Chrome/135.0.0.0 Safari/537.36","WebKit","Chrome","135.0.0.0","Windows","10.0","https://hz8g1ckzuq.cognition.run/","en-US,en;q=0.9,de-DE;q=0.8,de;q=0.7","ugfh3008hhvncmv","26","[""White""]","No","Female","2038045.099999994","null","","<p></p>","null","choice","tcd","repulsion_2","1","washing machines","null","null","null","null","null","null","1","","","","","","","","","",""
"","","","","","choice_trial","survey-html-form","99","1756878","0.0-5.0-1.7","67","1","2025-04-11 14:29:36","bb671e3ae32f654b8954ea4c4635f915","","Mozilla/5.0 (Windows NT 10.0; Win64; x64) AppleWebKit/537.36 (KHTML, like Gecko) Chrome/135.0.0.0 Safari/537.36","WebKit","Chrome","135.0.0.0","Windows","10.0","https://hz8g1ckzuq.cognition.run/","en-US,en;q=0.9,de-DE;q=0.8,de;q=0.7","ugfh3008hhvncmv","26","[""White""]","No","Female","2038045.099999994","2717","","","{""product_choice"":""B""}","choice","tcd","repulsion_2","1","washing machines","null","null","null","null","null","null","1","100","90","100","30","40","20","Average lifespan","Energy savings","",""
"","","","","","choice_trial_setup","html-keyboard-response","100","1757181","0.0-5.0-0.8","67","1","2025-04-11 14:29:36","bb671e3ae32f654b8954ea4c4635f915","","Mozilla/5.0 (Windows NT 10.0; Win64; x64) AppleWebKit/537.36 (KHTML, like Gecko) Chrome/135.0.0.0 Safari/537.36","WebKit","Chrome","135.0.0.0","Windows","10.0","https://hz8g1ckzuq.cognition.run/","en-US,en;q=0.9,de-DE;q=0.8,de;q=0.7","ugfh3008hhvncmv","26","[""White""]","No","Female","2038045.099999994","null","","<p></p>","null","choice","bww","catch","null","washing machines","50","80","50","40","50","10","2","","","","","","","","","",""
"","","","","","choice_trial","survey-html-form","101","1761795","0.0-5.0-1.8","67","1","2025-04-11 14:29:36","bb671e3ae32f654b8954ea4c4635f915","","Mozilla/5.0 (Windows NT 10.0; Win64; x64) AppleWebKit/537.36 (KHTML, like Gecko) Chrome/135.0.0.0 Safari/537.36","WebKit","Chrome","135.0.0.0","Windows","10.0","https://hz8g1ckzuq.cognition.run/","en-US,en;q=0.9,de-DE;q=0.8,de;q=0.7","ugfh3008hhvncmv","26","[""White""]","No","Female","2038045.099999994","4612","","","{""product_choice"":""A""}","choice","bww","catch","null","washing machines","50","80","50","40","50","10","2","null","null","null","null","null","null","Average lifespan","Energy savings","",""
"","","","","","choice_trial_setup","html-keyboard-response","102","1762099","0.0-5.0-0.9","67","1","2025-04-11 14:29:36","bb671e3ae32f654b8954ea4c4635f915","","Mozilla/5.0 (Windows NT 10.0; Win64; x64) AppleWebKit/537.36 (KHTML, like Gecko) Chrome/135.0.0.0 Safari/537.36","WebKit","Chrome","135.0.0.0","Windows","10.0","https://hz8g1ckzuq.cognition.run/","en-US,en;q=0.9,de-DE;q=0.8,de;q=0.7","ugfh3008hhvncmv","26","[""White""]","No","Female","2038045.099999994","null","","<p></p>","null","choice","wbw","catch","null","washing machines","95","50","35","50","25","15","2","","","","","","","","","",""
"","","","","","choice_trial","survey-html-form","103","1766351","0.0-5.0-1.9","67","1","2025-04-11 14:29:36","bb671e3ae32f654b8954ea4c4635f915","","Mozilla/5.0 (Windows NT 10.0; Win64; x64) AppleWebKit/537.36 (KHTML, like Gecko) Chrome/135.0.0.0 Safari/537.36","WebKit","Chrome","135.0.0.0","Windows","10.0","https://hz8g1ckzuq.cognition.run/","en-US,en;q=0.9,de-DE;q=0.8,de;q=0.7","ugfh3008hhvncmv","26","[""White""]","No","Female","2038045.099999994","4250","","","{""product_choice"":""B""}","choice","wbw","catch","null","washing machines","95","50","35","50","25","15","2","null","null","null","null","null","null","Average lifespan","Energy savings","",""
"","","","","","choice_trial_setup","html-keyboard-response","104","1766654","0.0-5.0-0.10","67","1","2025-04-11 14:29:36","bb671e3ae32f654b8954ea4c4635f915","","Mozilla/5.0 (Windows NT 10.0; Win64; x64) AppleWebKit/537.36 (KHTML, like Gecko) Chrome/135.0.0.0 Safari/537.36","WebKit","Chrome","135.0.0.0","Windows","10.0","https://hz8g1ckzuq.cognition.run/","en-US,en;q=0.9,de-DE;q=0.8,de;q=0.7","ugfh3008hhvncmv","26","[""White""]","No","Female","2038045.099999994","null","","<p></p>","null","choice","tcd","repulsion_2","1","televisions","null","null","null","null","null","null","2","","","","","","","","","",""
"","","","","","choice_trial","survey-html-form","105","1770260","0.0-5.0-1.10","67","1","2025-04-11 14:29:36","bb671e3ae32f654b8954ea4c4635f915","","Mozilla/5.0 (Windows NT 10.0; Win64; x64) AppleWebKit/537.36 (KHTML, like Gecko) Chrome/135.0.0.0 Safari/537.36","WebKit","Chrome","135.0.0.0","Windows","10.0","https://hz8g1ckzuq.cognition.run/","en-US,en;q=0.9,de-DE;q=0.8,de;q=0.7","ugfh3008hhvncmv","26","[""White""]","No","Female","2038045.099999994","3604","","","{""product_choice"":""B""}","choice","tcd","repulsion_2","1","televisions","null","null","null","null","null","null","2","100","90","100","30","40","20","Screen size","Average lifespan","",""
"","","","","","choice_trial_setup","html-keyboard-response","106","1770562","0.0-5.0-0.11","67","1","2025-04-11 14:29:36","bb671e3ae32f654b8954ea4c4635f915","","Mozilla/5.0 (Windows NT 10.0; Win64; x64) AppleWebKit/537.36 (KHTML, like Gecko) Chrome/135.0.0.0 Safari/537.36","WebKit","Chrome","135.0.0.0","Windows","10.0","https://hz8g1ckzuq.cognition.run/","en-US,en;q=0.9,de-DE;q=0.8,de;q=0.7","ugfh3008hhvncmv","26","[""White""]","No","Female","2038045.099999994","null","","<p></p>","null","choice","tcd","attraction_1","1","televisions","null","null","null","null","null","null","2","","","","","","","","","",""
"","","","","","choice_trial","survey-html-form","107","1774512","0.0-5.0-1.11","67","1","2025-04-11 14:29:36","bb671e3ae32f654b8954ea4c4635f915","","Mozilla/5.0 (Windows NT 10.0; Win64; x64) AppleWebKit/537.36 (KHTML, like Gecko) Chrome/135.0.0.0 Safari/537.36","WebKit","Chrome","135.0.0.0","Windows","10.0","https://hz8g1ckzuq.cognition.run/","en-US,en;q=0.9,de-DE;q=0.8,de;q=0.7","ugfh3008hhvncmv","26","[""White""]","No","Female","2038045.099999994","3948","","","{""product_choice"":""A""}","choice","tcd","attraction_1","1","televisions","null","null","null","null","null","null","2","60","50","60","50","60","45","Screen size","Average lifespan","",""
"","","","","","choice_trial_setup","html-keyboard-response","108","1774815","0.0-5.0-0.12","67","1","2025-04-11 14:29:36","bb671e3ae32f654b8954ea4c4635f915","","Mozilla/5.0 (Windows NT 10.0; Win64; x64) AppleWebKit/537.36 (KHTML, like Gecko) Chrome/135.0.0.0 Safari/537.36","WebKit","Chrome","135.0.0.0","Windows","10.0","https://hz8g1ckzuq.cognition.run/","en-US,en;q=0.9,de-DE;q=0.8,de;q=0.7","ugfh3008hhvncmv","26","[""White""]","No","Female","2038045.099999994","null","","<p></p>","null","choice","wwb","catch","null","laptops","90","65","35","10","10","20","2","","","","","","","","","",""
"","","","","","choice_trial","survey-html-form","109","1785722","0.0-5.0-1.12","67","1","2025-04-11 14:29:36","bb671e3ae32f654b8954ea4c4635f915","","Mozilla/5.0 (Windows NT 10.0; Win64; x64) AppleWebKit/537.36 (KHTML, like Gecko) Chrome/135.0.0.0 Safari/537.36","WebKit","Chrome","135.0.0.0","Windows","10.0","https://hz8g1ckzuq.cognition.run/","en-US,en;q=0.9,de-DE;q=0.8,de;q=0.7","ugfh3008hhvncmv","26","[""White""]","No","Female","2038045.099999994","10905","","","{""product_choice"":""C""}","choice","wwb","catch","null","laptops","90","65","35","10","10","20","2","null","null","null","null","null","null","Processing speed","Memory (RAM)","",""
"","","","","","choice_trial_setup","html-keyboard-response","110","1786027","0.0-5.0-0.13","67","1","2025-04-11 14:29:36","bb671e3ae32f654b8954ea4c4635f915","","Mozilla/5.0 (Windows NT 10.0; Win64; x64) AppleWebKit/537.36 (KHTML, like Gecko) Chrome/135.0.0.0 Safari/537.36","WebKit","Chrome","135.0.0.0","Windows","10.0","https://hz8g1ckzuq.cognition.run/","en-US,en;q=0.9,de-DE;q=0.8,de;q=0.7","ugfh3008hhvncmv","26","[""White""]","No","Female","2038045.099999994","null","","<p></p>","null","choice","dct","repulsion_2","2","washing machines","null","null","null","null","null","null","1","","","","","","","","","",""
"","","","","","choice_trial","survey-html-form","111","1788742","0.0-5.0-1.13","67","1","2025-04-11 14:29:36","bb671e3ae32f654b8954ea4c4635f915","","Mozilla/5.0 (Windows NT 10.0; Win64; x64) AppleWebKit/537.36 (KHTML, like Gecko) Chrome/135.0.0.0 Safari/537.36","WebKit","Chrome","135.0.0.0","Windows","10.0","https://hz8g1ckzuq.cognition.run/","en-US,en;q=0.9,de-DE;q=0.8,de;q=0.7","ugfh3008hhvncmv","26","[""White""]","No","Female","2038045.099999994","2714","","","{""product_choice"":""B""}","choice","dct","repulsion_2","2","washing machines","null","null","null","null","null","null","1","30","40","20","100","90","100","Average lifespan","Energy savings","",""
"","","","","","choice_trial_setup","html-keyboard-response","112","1789045","0.0-5.0-0.14","67","1","2025-04-11 14:29:36","bb671e3ae32f654b8954ea4c4635f915","","Mozilla/5.0 (Windows NT 10.0; Win64; x64) AppleWebKit/537.36 (KHTML, like Gecko) Chrome/135.0.0.0 Safari/537.36","WebKit","Chrome","135.0.0.0","Windows","10.0","https://hz8g1ckzuq.cognition.run/","en-US,en;q=0.9,de-DE;q=0.8,de;q=0.7","ugfh3008hhvncmv","26","[""White""]","No","Female","2038045.099999994","null","","<p></p>","null","choice","wbw","catch","null","microwave ovens","85","65","20","15","45","20","1","","","","","","","","","",""
"","","","","","choice_trial","survey-html-form","113","1791018","0.0-5.0-1.14","67","1","2025-04-11 14:29:36","bb671e3ae32f654b8954ea4c4635f915","","Mozilla/5.0 (Windows NT 10.0; Win64; x64) AppleWebKit/537.36 (KHTML, like Gecko) Chrome/135.0.0.0 Safari/537.36","WebKit","Chrome","135.0.0.0","Windows","10.0","https://hz8g1ckzuq.cognition.run/","en-US,en;q=0.9,de-DE;q=0.8,de;q=0.7","ugfh3008hhvncmv","26","[""White""]","No","Female","2038045.099999994","1971","","","{""product_choice"":""B""}","choice","wbw","catch","null","microwave ovens","85","65","20","15","45","20","1","null","null","null","null","null","null","Warranty","Cooking power","",""
"","","","","","choice_trial_setup","html-keyboard-response","114","1791321","0.0-5.0-0.15","67","1","2025-04-11 14:29:36","bb671e3ae32f654b8954ea4c4635f915","","Mozilla/5.0 (Windows NT 10.0; Win64; x64) AppleWebKit/537.36 (KHTML, like Gecko) Chrome/135.0.0.0 Safari/537.36","WebKit","Chrome","135.0.0.0","Windows","10.0","https://hz8g1ckzuq.cognition.run/","en-US,en;q=0.9,de-DE;q=0.8,de;q=0.7","ugfh3008hhvncmv","26","[""White""]","No","Female","2038045.099999994","null","","<p></p>","null","choice","cdt","repulsion_1","1","laptops","null","null","null","null","null","null","2","","","","","","","","","",""
"","","","","","choice_trial","survey-html-form","115","1793492","0.0-5.0-1.15","67","1","2025-04-11 14:29:36","bb671e3ae32f654b8954ea4c4635f915","","Mozilla/5.0 (Windows NT 10.0; Win64; x64) AppleWebKit/537.36 (KHTML, like Gecko) Chrome/135.0.0.0 Safari/537.36","WebKit","Chrome","135.0.0.0","Windows","10.0","https://hz8g1ckzuq.cognition.run/","en-US,en;q=0.9,de-DE;q=0.8,de;q=0.7","ugfh3008hhvncmv","26","[""White""]","No","Female","2038045.099999994","2169","","","{""product_choice"":""A""}","choice","cdt","repulsion_1","1","laptops","null","null","null","null","null","null","2","100","90","100","30","40","25","Processing speed","Memory (RAM)","",""
"","","","","","choice_trial_setup","html-keyboard-response","116","1793796","0.0-5.0-0.16","67","1","2025-04-11 14:29:36","bb671e3ae32f654b8954ea4c4635f915","","Mozilla/5.0 (Windows NT 10.0; Win64; x64) AppleWebKit/537.36 (KHTML, like Gecko) Chrome/135.0.0.0 Safari/537.36","WebKit","Chrome","135.0.0.0","Windows","10.0","https://hz8g1ckzuq.cognition.run/","en-US,en;q=0.9,de-DE;q=0.8,de;q=0.7","ugfh3008hhvncmv","26","[""White""]","No","Female","2038045.099999994","null","","<p></p>","null","choice","dtc","repulsion_1","2","laptops","null","null","null","null","null","null","1","","","","","","","","","",""
"","","","","","choice_trial","survey-html-form","117","1797405","0.0-5.0-1.16","67","1","2025-04-11 14:29:36","bb671e3ae32f654b8954ea4c4635f915","","Mozilla/5.0 (Windows NT 10.0; Win64; x64) AppleWebKit/537.36 (KHTML, like Gecko) Chrome/135.0.0.0 Safari/537.36","WebKit","Chrome","135.0.0.0","Windows","10.0","https://hz8g1ckzuq.cognition.run/","en-US,en;q=0.9,de-DE;q=0.8,de;q=0.7","ugfh3008hhvncmv","26","[""White""]","No","Female","2038045.099999994","3607","","","{""product_choice"":""C""}","choice","dtc","repulsion_1","2","laptops","null","null","null","null","null","null","1","30","40","25","100","90","100","Processing speed","Memory (RAM)","",""
"","","","","","choice_trial_setup","html-keyboard-response","118","1797708","0.0-5.0-0.17","67","1","2025-04-11 14:29:36","bb671e3ae32f654b8954ea4c4635f915","","Mozilla/5.0 (Windows NT 10.0; Win64; x64) AppleWebKit/537.36 (KHTML, like Gecko) Chrome/135.0.0.0 Safari/537.36","WebKit","Chrome","135.0.0.0","Windows","10.0","https://hz8g1ckzuq.cognition.run/","en-US,en;q=0.9,de-DE;q=0.8,de;q=0.7","ugfh3008hhvncmv","26","[""White""]","No","Female","2038045.099999994","null","","<p></p>","null","choice","wwb","catch","null","laptops","95","90","10","45","40","25","1","","","","","","","","","",""
"","","","","","choice_trial","survey-html-form","119","1803037","0.0-5.0-1.17","67","1","2025-04-11 14:29:36","bb671e3ae32f654b8954ea4c4635f915","","Mozilla/5.0 (Windows NT 10.0; Win64; x64) AppleWebKit/537.36 (KHTML, like Gecko) Chrome/135.0.0.0 Safari/537.36","WebKit","Chrome","135.0.0.0","Windows","10.0","https://hz8g1ckzuq.cognition.run/","en-US,en;q=0.9,de-DE;q=0.8,de;q=0.7","ugfh3008hhvncmv","26","[""White""]","No","Female","2038045.099999994","5326","","","{""product_choice"":""C""}","choice","wwb","catch","null","laptops","95","90","10","45","40","25","1","null","null","null","null","null","null","Processing speed","Memory (RAM)","",""
"","","","","","choice_trial_setup","html-keyboard-response","120","1803341","0.0-5.0-0.18","67","1","2025-04-11 14:29:36","bb671e3ae32f654b8954ea4c4635f915","","Mozilla/5.0 (Windows NT 10.0; Win64; x64) AppleWebKit/537.36 (KHTML, like Gecko) Chrome/135.0.0.0 Safari/537.36","WebKit","Chrome","135.0.0.0","Windows","10.0","https://hz8g1ckzuq.cognition.run/","en-US,en;q=0.9,de-DE;q=0.8,de;q=0.7","ugfh3008hhvncmv","26","[""White""]","No","Female","2038045.099999994","null","","<p></p>","null","choice","tcd","attraction_2","1","laptops","null","null","null","null","null","null","2","","","","","","","","","",""
"","","","","","choice_trial","survey-html-form","121","1808625","0.0-5.0-1.18","67","1","2025-04-11 14:29:36","bb671e3ae32f654b8954ea4c4635f915","","Mozilla/5.0 (Windows NT 10.0; Win64; x64) AppleWebKit/537.36 (KHTML, like Gecko) Chrome/135.0.0.0 Safari/537.36","WebKit","Chrome","135.0.0.0","Windows","10.0","https://hz8g1ckzuq.cognition.run/","en-US,en;q=0.9,de-DE;q=0.8,de;q=0.7","ugfh3008hhvncmv","26","[""White""]","No","Female","2038045.099999994","5282","","","{""product_choice"":""A""}","choice","tcd","attraction_2","1","laptops","null","null","null","null","null","null","2","60","50","60","50","60","40","Processing speed","Memory (RAM)","",""
"","","","","","choice_trial_setup","html-keyboard-response","122","1808930","0.0-5.0-0.19","67","1","2025-04-11 14:29:36","bb671e3ae32f654b8954ea4c4635f915","","Mozilla/5.0 (Windows NT 10.0; Win64; x64) AppleWebKit/537.36 (KHTML, like Gecko) Chrome/135.0.0.0 Safari/537.36","WebKit","Chrome","135.0.0.0","Windows","10.0","https://hz8g1ckzuq.cognition.run/","en-US,en;q=0.9,de-DE;q=0.8,de;q=0.7","ugfh3008hhvncmv","26","[""White""]","No","Female","2038045.099999994","null","","<p></p>","null","choice","tdc","repulsion_2","1","microwave ovens","null","null","null","null","null","null","2","","","","","","","","","",""
"","","","","","choice_trial","survey-html-form","123","1812502","0.0-5.0-1.19","67","1","2025-04-11 14:29:36","bb671e3ae32f654b8954ea4c4635f915","","Mozilla/5.0 (Windows NT 10.0; Win64; x64) AppleWebKit/537.36 (KHTML, like Gecko) Chrome/135.0.0.0 Safari/537.36","WebKit","Chrome","135.0.0.0","Windows","10.0","https://hz8g1ckzuq.cognition.run/","en-US,en;q=0.9,de-DE;q=0.8,de;q=0.7","ugfh3008hhvncmv","26","[""White""]","No","Female","2038045.099999994","3569","","","{""product_choice"":""C""}","choice","tdc","repulsion_2","1","microwave ovens","null","null","null","null","null","null","2","100","90","100","30","40","20","Warranty","Cooking power","",""
"","","","","","choice_trial_setup","html-keyboard-response","124","1812807","0.0-5.0-0.20","67","1","2025-04-11 14:29:36","bb671e3ae32f654b8954ea4c4635f915","","Mozilla/5.0 (Windows NT 10.0; Win64; x64) AppleWebKit/537.36 (KHTML, like Gecko) Chrome/135.0.0.0 Safari/537.36","WebKit","Chrome","135.0.0.0","Windows","10.0","https://hz8g1ckzuq.cognition.run/","en-US,en;q=0.9,de-DE;q=0.8,de;q=0.7","ugfh3008hhvncmv","26","[""White""]","No","Female","2038045.099999994","null","","<p></p>","null","choice","tcd","repulsion_2","2","televisions","null","null","null","null","null","null","2","","","","","","","","","",""
"","","","","","choice_trial","survey-html-form","125","1820750","0.0-5.0-1.20","67","1","2025-04-11 14:29:36","bb671e3ae32f654b8954ea4c4635f915","","Mozilla/5.0 (Windows NT 10.0; Win64; x64) AppleWebKit/537.36 (KHTML, like Gecko) Chrome/135.0.0.0 Safari/537.36","WebKit","Chrome","135.0.0.0","Windows","10.0","https://hz8g1ckzuq.cognition.run/","en-US,en;q=0.9,de-DE;q=0.8,de;q=0.7","ugfh3008hhvncmv","26","[""White""]","No","Female","2038045.099999994","7941","","","{""product_choice"":""B""}","choice","tcd","repulsion_2","2","televisions","null","null","null","null","null","null","2","30","40","20","100","90","100","Screen size","Average lifespan","",""
"","","","","","choice_trial_setup","html-keyboard-response","126","1821054","0.0-5.0-0.21","67","1","2025-04-11 14:29:36","bb671e3ae32f654b8954ea4c4635f915","","Mozilla/5.0 (Windows NT 10.0; Win64; x64) AppleWebKit/537.36 (KHTML, like Gecko) Chrome/135.0.0.0 Safari/537.36","WebKit","Chrome","135.0.0.0","Windows","10.0","https://hz8g1ckzuq.cognition.run/","en-US,en;q=0.9,de-DE;q=0.8,de;q=0.7","ugfh3008hhvncmv","26","[""White""]","No","Female","2038045.099999994","null","","<p></p>","null","choice","ctd","attraction_1","2","washing machines","null","null","null","null","null","null","1","","","","","","","","","",""
"","","","","","choice_trial","survey-html-form","127","1841908","0.0-5.0-1.21","67","1","2025-04-11 14:29:36","bb671e3ae32f654b8954ea4c4635f915","","Mozilla/5.0 (Windows NT 10.0; Win64; x64) AppleWebKit/537.36 (KHTML, like Gecko) Chrome/135.0.0.0 Safari/537.36","WebKit","Chrome","135.0.0.0","Windows","10.0","https://hz8g1ckzuq.cognition.run/","en-US,en;q=0.9,de-DE;q=0.8,de;q=0.7","ugfh3008hhvncmv","26","[""White""]","No","Female","2038045.099999994","20851","","","{""product_choice"":""A""}","choice","ctd","attraction_1","2","washing machines","null","null","null","null","null","null","1","50","60","45","60","50","60","Average lifespan","Energy savings","",""
"","","","","","choice_trial_setup","html-keyboard-response","128","1842212","0.0-5.0-0.22","67","1","2025-04-11 14:29:36","bb671e3ae32f654b8954ea4c4635f915","","Mozilla/5.0 (Windows NT 10.0; Win64; x64) AppleWebKit/537.36 (KHTML, like Gecko) Chrome/135.0.0.0 Safari/537.36","WebKit","Chrome","135.0.0.0","Windows","10.0","https://hz8g1ckzuq.cognition.run/","en-US,en;q=0.9,de-DE;q=0.8,de;q=0.7","ugfh3008hhvncmv","26","[""White""]","No","Female","2038045.099999994","null","","<p></p>","null","choice","tdc","attraction_2","1","washing machines","null","null","null","null","null","null","2","","","","","","","","","",""
"","","","","","choice_trial","survey-html-form","129","1843873","0.0-5.0-1.22","67","1","2025-04-11 14:29:36","bb671e3ae32f654b8954ea4c4635f915","","Mozilla/5.0 (Windows NT 10.0; Win64; x64) AppleWebKit/537.36 (KHTML, like Gecko) Chrome/135.0.0.0 Safari/537.36","WebKit","Chrome","135.0.0.0","Windows","10.0","https://hz8g1ckzuq.cognition.run/","en-US,en;q=0.9,de-DE;q=0.8,de;q=0.7","ugfh3008hhvncmv","26","[""White""]","No","Female","2038045.099999994","1658","","","{""product_choice"":""C""}","choice","tdc","attraction_2","1","washing machines","null","null","null","null","null","null","2","60","50","60","50","60","40","Average lifespan","Energy savings","",""
"","","","","","choice_trial_setup","html-keyboard-response","130","1844177","0.0-5.0-0.23","67","1","2025-04-11 14:29:36","bb671e3ae32f654b8954ea4c4635f915","","Mozilla/5.0 (Windows NT 10.0; Win64; x64) AppleWebKit/537.36 (KHTML, like Gecko) Chrome/135.0.0.0 Safari/537.36","WebKit","Chrome","135.0.0.0","Windows","10.0","https://hz8g1ckzuq.cognition.run/","en-US,en;q=0.9,de-DE;q=0.8,de;q=0.7","ugfh3008hhvncmv","26","[""White""]","No","Female","2038045.099999994","null","","<p></p>","null","choice","ctd","attraction_1","1","laptops","null","null","null","null","null","null","2","","","","","","","","","",""
"","","","","","choice_trial","survey-html-form","131","1845523","0.0-5.0-1.23","67","1","2025-04-11 14:29:36","bb671e3ae32f654b8954ea4c4635f915","","Mozilla/5.0 (Windows NT 10.0; Win64; x64) AppleWebKit/537.36 (KHTML, like Gecko) Chrome/135.0.0.0 Safari/537.36","WebKit","Chrome","135.0.0.0","Windows","10.0","https://hz8g1ckzuq.cognition.run/","en-US,en;q=0.9,de-DE;q=0.8,de;q=0.7","ugfh3008hhvncmv","26","[""White""]","No","Female","2038045.099999994","1344","","","{""product_choice"":""B""}","choice","ctd","attraction_1","1","laptops","null","null","null","null","null","null","2","60","50","60","50","60","45","Processing speed","Memory (RAM)","",""
"","","","","","choice_trial_setup","html-keyboard-response","132","1845826","0.0-5.0-0.24","67","1","2025-04-11 14:29:36","bb671e3ae32f654b8954ea4c4635f915","","Mozilla/5.0 (Windows NT 10.0; Win64; x64) AppleWebKit/537.36 (KHTML, like Gecko) Chrome/135.0.0.0 Safari/537.36","WebKit","Chrome","135.0.0.0","Windows","10.0","https://hz8g1ckzuq.cognition.run/","en-US,en;q=0.9,de-DE;q=0.8,de;q=0.7","ugfh3008hhvncmv","26","[""White""]","No","Female","2038045.099999994","null","","<p></p>","null","choice","tdc","repulsion_1","1","televisions","null","null","null","null","null","null","2","","","","","","","","","",""
"","","","","","choice_trial","survey-html-form","133","1850000","0.0-5.0-1.24","67","1","2025-04-11 14:29:36","bb671e3ae32f654b8954ea4c4635f915","","Mozilla/5.0 (Windows NT 10.0; Win64; x64) AppleWebKit/537.36 (KHTML, like Gecko) Chrome/135.0.0.0 Safari/537.36","WebKit","Chrome","135.0.0.0","Windows","10.0","https://hz8g1ckzuq.cognition.run/","en-US,en;q=0.9,de-DE;q=0.8,de;q=0.7","ugfh3008hhvncmv","26","[""White""]","No","Female","2038045.099999994","4171","","","{""product_choice"":""C""}","choice","tdc","repulsion_1","1","televisions","null","null","null","null","null","null","2","100","90","100","30","40","25","Screen size","Average lifespan","",""
"","","","","","choice_trial_setup","html-keyboard-response","134","1850307","0.0-5.0-0.25","67","1","2025-04-11 14:29:36","bb671e3ae32f654b8954ea4c4635f915","","Mozilla/5.0 (Windows NT 10.0; Win64; x64) AppleWebKit/537.36 (KHTML, like Gecko) Chrome/135.0.0.0 Safari/537.36","WebKit","Chrome","135.0.0.0","Windows","10.0","https://hz8g1ckzuq.cognition.run/","en-US,en;q=0.9,de-DE;q=0.8,de;q=0.7","ugfh3008hhvncmv","26","[""White""]","No","Female","2038045.099999994","null","","<p></p>","null","choice","tcd","attraction_1","2","laptops","null","null","null","null","null","null","2","","","","","","","","","",""
"","","","","","choice_trial","survey-html-form","135","1852679","0.0-5.0-1.25","67","1","2025-04-11 14:29:36","bb671e3ae32f654b8954ea4c4635f915","","Mozilla/5.0 (Windows NT 10.0; Win64; x64) AppleWebKit/537.36 (KHTML, like Gecko) Chrome/135.0.0.0 Safari/537.36","WebKit","Chrome","135.0.0.0","Windows","10.0","https://hz8g1ckzuq.cognition.run/","en-US,en;q=0.9,de-DE;q=0.8,de;q=0.7","ugfh3008hhvncmv","26","[""White""]","No","Female","2038045.099999994","2369","","","{""product_choice"":""A""}","choice","tcd","attraction_1","2","laptops","null","null","null","null","null","null","2","50","60","45","60","50","60","Processing speed","Memory (RAM)","",""
"","","","","","choice_trial_setup","html-keyboard-response","136","1852982","0.0-5.0-0.26","67","1","2025-04-11 14:29:36","bb671e3ae32f654b8954ea4c4635f915","","Mozilla/5.0 (Windows NT 10.0; Win64; x64) AppleWebKit/537.36 (KHTML, like Gecko) Chrome/135.0.0.0 Safari/537.36","WebKit","Chrome","135.0.0.0","Windows","10.0","https://hz8g1ckzuq.cognition.run/","en-US,en;q=0.9,de-DE;q=0.8,de;q=0.7","ugfh3008hhvncmv","26","[""White""]","No","Female","2038045.099999994","null","","<p></p>","null","choice","dct","repulsion_2","2","laptops","null","null","null","null","null","null","1","","","","","","","","","",""
"","","","","","choice_trial","survey-html-form","137","1855817","0.0-5.0-1.26","67","1","2025-04-11 14:29:36","bb671e3ae32f654b8954ea4c4635f915","","Mozilla/5.0 (Windows NT 10.0; Win64; x64) AppleWebKit/537.36 (KHTML, like Gecko) Chrome/135.0.0.0 Safari/537.36","WebKit","Chrome","135.0.0.0","Windows","10.0","https://hz8g1ckzuq.cognition.run/","en-US,en;q=0.9,de-DE;q=0.8,de;q=0.7","ugfh3008hhvncmv","26","[""White""]","No","Female","2038045.099999994","2831","","","{""product_choice"":""C""}","choice","dct","repulsion_2","2","laptops","null","null","null","null","null","null","1","30","40","20","100","90","100","Processing speed","Memory (RAM)","",""
"","","","","","choice_trial_setup","html-keyboard-response","138","1856120","0.0-5.0-0.27","67","1","2025-04-11 14:29:36","bb671e3ae32f654b8954ea4c4635f915","","Mozilla/5.0 (Windows NT 10.0; Win64; x64) AppleWebKit/537.36 (KHTML, like Gecko) Chrome/135.0.0.0 Safari/537.36","WebKit","Chrome","135.0.0.0","Windows","10.0","https://hz8g1ckzuq.cognition.run/","en-US,en;q=0.9,de-DE;q=0.8,de;q=0.7","ugfh3008hhvncmv","26","[""White""]","No","Female","2038045.099999994","null","","<p></p>","null","choice","dct","attraction_1","1","microwave ovens","null","null","null","null","null","null","2","","","","","","","","","",""
"","","","","","choice_trial","survey-html-form","139","1859358","0.0-5.0-1.27","67","1","2025-04-11 14:29:36","bb671e3ae32f654b8954ea4c4635f915","","Mozilla/5.0 (Windows NT 10.0; Win64; x64) AppleWebKit/537.36 (KHTML, like Gecko) Chrome/135.0.0.0 Safari/537.36","WebKit","Chrome","135.0.0.0","Windows","10.0","https://hz8g1ckzuq.cognition.run/","en-US,en;q=0.9,de-DE;q=0.8,de;q=0.7","ugfh3008hhvncmv","26","[""White""]","No","Female","2038045.099999994","3235","","","{""product_choice"":""B""}","choice","dct","attraction_1","1","microwave ovens","null","null","null","null","null","null","2","60","50","60","50","60","45","Warranty","Cooking power","",""
"","","","","","choice_trial_setup","html-keyboard-response","140","1859664","0.0-5.0-0.28","67","1","2025-04-11 14:29:36","bb671e3ae32f654b8954ea4c4635f915","","Mozilla/5.0 (Windows NT 10.0; Win64; x64) AppleWebKit/537.36 (KHTML, like Gecko) Chrome/135.0.0.0 Safari/537.36","WebKit","Chrome","135.0.0.0","Windows","10.0","https://hz8g1ckzuq.cognition.run/","en-US,en;q=0.9,de-DE;q=0.8,de;q=0.7","ugfh3008hhvncmv","26","[""White""]","No","Female","2038045.099999994","null","","<p></p>","null","choice","dtc","attraction_1","2","microwave ovens","null","null","null","null","null","null","2","","","","","","","","","",""
"","","","","","choice_trial","survey-html-form","141","1861977","0.0-5.0-1.28","67","1","2025-04-11 14:29:36","bb671e3ae32f654b8954ea4c4635f915","","Mozilla/5.0 (Windows NT 10.0; Win64; x64) AppleWebKit/537.36 (KHTML, like Gecko) Chrome/135.0.0.0 Safari/537.36","WebKit","Chrome","135.0.0.0","Windows","10.0","https://hz8g1ckzuq.cognition.run/","en-US,en;q=0.9,de-DE;q=0.8,de;q=0.7","ugfh3008hhvncmv","26","[""White""]","No","Female","2038045.099999994","2310","","","{""product_choice"":""B""}","choice","dtc","attraction_1","2","microwave ovens","null","null","null","null","null","null","2","50","60","45","60","50","60","Warranty","Cooking power","",""
"","","","","","choice_trial_setup","html-keyboard-response","142","1862280","0.0-5.0-0.29","67","1","2025-04-11 14:29:36","bb671e3ae32f654b8954ea4c4635f915","","Mozilla/5.0 (Windows NT 10.0; Win64; x64) AppleWebKit/537.36 (KHTML, like Gecko) Chrome/135.0.0.0 Safari/537.36","WebKit","Chrome","135.0.0.0","Windows","10.0","https://hz8g1ckzuq.cognition.run/","en-US,en;q=0.9,de-DE;q=0.8,de;q=0.7","ugfh3008hhvncmv","26","[""White""]","No","Female","2038045.099999994","null","","<p></p>","null","choice","dct","attraction_2","2","washing machines","null","null","null","null","null","null","1","","","","","","","","","",""
"","","","","","choice_trial","survey-html-form","143","1870733","0.0-5.0-1.29","67","1","2025-04-11 14:29:36","bb671e3ae32f654b8954ea4c4635f915","","Mozilla/5.0 (Windows NT 10.0; Win64; x64) AppleWebKit/537.36 (KHTML, like Gecko) Chrome/135.0.0.0 Safari/537.36","WebKit","Chrome","135.0.0.0","Windows","10.0","https://hz8g1ckzuq.cognition.run/","en-US,en;q=0.9,de-DE;q=0.8,de;q=0.7","ugfh3008hhvncmv","26","[""White""]","No","Female","2038045.099999994","8450","","","{""product_choice"":""B""}","choice","dct","attraction_2","2","washing machines","null","null","null","null","null","null","1","50","60","40","60","50","60","Average lifespan","Energy savings","",""
"","","","","","choice_trial_setup","html-keyboard-response","144","1871036","0.0-5.0-0.30","67","1","2025-04-11 14:29:36","bb671e3ae32f654b8954ea4c4635f915","","Mozilla/5.0 (Windows NT 10.0; Win64; x64) AppleWebKit/537.36 (KHTML, like Gecko) Chrome/135.0.0.0 Safari/537.36","WebKit","Chrome","135.0.0.0","Windows","10.0","https://hz8g1ckzuq.cognition.run/","en-US,en;q=0.9,de-DE;q=0.8,de;q=0.7","ugfh3008hhvncmv","26","[""White""]","No","Female","2038045.099999994","null","","<p></p>","null","choice","ctd","repulsion_2","1","laptops","null","null","null","null","null","null","1","","","","","","","","","",""
"","","","","","choice_trial","survey-html-form","145","1927856","0.0-5.0-1.30","67","1","2025-04-11 14:29:36","bb671e3ae32f654b8954ea4c4635f915","","Mozilla/5.0 (Windows NT 10.0; Win64; x64) AppleWebKit/537.36 (KHTML, like Gecko) Chrome/135.0.0.0 Safari/537.36","WebKit","Chrome","135.0.0.0","Windows","10.0","https://hz8g1ckzuq.cognition.run/","en-US,en;q=0.9,de-DE;q=0.8,de;q=0.7","ugfh3008hhvncmv","26","[""White""]","No","Female","2038045.099999994","56817","","","{""product_choice"":""A""}","choice","ctd","repulsion_2","1","laptops","null","null","null","null","null","null","1","100","90","100","30","40","20","Processing speed","Memory (RAM)","",""
"","","","","","choice_trial_setup","html-keyboard-response","146","1928160","0.0-5.0-0.31","67","1","2025-04-11 14:29:36","bb671e3ae32f654b8954ea4c4635f915","","Mozilla/5.0 (Windows NT 10.0; Win64; x64) AppleWebKit/537.36 (KHTML, like Gecko) Chrome/135.0.0.0 Safari/537.36","WebKit","Chrome","135.0.0.0","Windows","10.0","https://hz8g1ckzuq.cognition.run/","en-US,en;q=0.9,de-DE;q=0.8,de;q=0.7","ugfh3008hhvncmv","26","[""White""]","No","Female","2038045.099999994","null","","<p></p>","null","choice","wwb","catch","null","televisions","60","75","50","50","20","5","1","","","","","","","","","",""
"","","","","","choice_trial","survey-html-form","147","1942641","0.0-5.0-1.31","67","1","2025-04-11 14:29:36","bb671e3ae32f654b8954ea4c4635f915","","Mozilla/5.0 (Windows NT 10.0; Win64; x64) AppleWebKit/537.36 (KHTML, like Gecko) Chrome/135.0.0.0 Safari/537.36","WebKit","Chrome","135.0.0.0","Windows","10.0","https://hz8g1ckzuq.cognition.run/","en-US,en;q=0.9,de-DE;q=0.8,de;q=0.7","ugfh3008hhvncmv","26","[""White""]","No","Female","2038045.099999994","14476","","","{""product_choice"":""C""}","choice","wwb","catch","null","televisions","60","75","50","50","20","5","1","null","null","null","null","null","null","Screen size","Average lifespan","",""
"","","","","","choice_trial_setup","html-keyboard-response","148","1942947","0.0-5.0-0.32","67","1","2025-04-11 14:29:36","bb671e3ae32f654b8954ea4c4635f915","","Mozilla/5.0 (Windows NT 10.0; Win64; x64) AppleWebKit/537.36 (KHTML, like Gecko) Chrome/135.0.0.0 Safari/537.36","WebKit","Chrome","135.0.0.0","Windows","10.0","https://hz8g1ckzuq.cognition.run/","en-US,en;q=0.9,de-DE;q=0.8,de;q=0.7","ugfh3008hhvncmv","26","[""White""]","No","Female","2038045.099999994","null","","<p></p>","null","choice","dtc","attraction_1","2","televisions","null","null","null","null","null","null","1","","","","","","","","","",""
"","","","","","choice_trial","survey-html-form","149","1948543","0.0-5.0-1.32","67","1","2025-04-11 14:29:36","bb671e3ae32f654b8954ea4c4635f915","","Mozilla/5.0 (Windows NT 10.0; Win64; x64) AppleWebKit/537.36 (KHTML, like Gecko) Chrome/135.0.0.0 Safari/537.36","WebKit","Chrome","135.0.0.0","Windows","10.0","https://hz8g1ckzuq.cognition.run/","en-US,en;q=0.9,de-DE;q=0.8,de;q=0.7","ugfh3008hhvncmv","26","[""White""]","No","Female","2038045.099999994","5593","","","{""product_choice"":""C""}","choice","dtc","attraction_1","2","televisions","null","null","null","null","null","null","1","50","60","45","60","50","60","Screen size","Average lifespan","",""
"","","","","","choice_trial_setup","html-keyboard-response","150","1948847","0.0-5.0-0.33","67","1","2025-04-11 14:29:36","bb671e3ae32f654b8954ea4c4635f915","","Mozilla/5.0 (Windows NT 10.0; Win64; x64) AppleWebKit/537.36 (KHTML, like Gecko) Chrome/135.0.0.0 Safari/537.36","WebKit","Chrome","135.0.0.0","Windows","10.0","https://hz8g1ckzuq.cognition.run/","en-US,en;q=0.9,de-DE;q=0.8,de;q=0.7","ugfh3008hhvncmv","26","[""White""]","No","Female","2038045.099999994","null","","<p></p>","null","choice","tcd","repulsion_1","2","televisions","null","null","null","null","null","null","1","","","","","","","","","",""
"","","","","","choice_trial","survey-html-form","151","1953871","0.0-5.0-1.33","67","1","2025-04-11 14:29:36","bb671e3ae32f654b8954ea4c4635f915","","Mozilla/5.0 (Windows NT 10.0; Win64; x64) AppleWebKit/537.36 (KHTML, like Gecko) Chrome/135.0.0.0 Safari/537.36","WebKit","Chrome","135.0.0.0","Windows","10.0","https://hz8g1ckzuq.cognition.run/","en-US,en;q=0.9,de-DE;q=0.8,de;q=0.7","ugfh3008hhvncmv","26","[""White""]","No","Female","2038045.099999994","5021","","","{""product_choice"":""B""}","choice","tcd","repulsion_1","2","televisions","null","null","null","null","null","null","1","30","40","25","100","90","100","Screen size","Average lifespan","",""
"","","","","","choice_trial_setup","html-keyboard-response","152","1954176","0.0-5.0-0.34","67","1","2025-04-11 14:29:36","bb671e3ae32f654b8954ea4c4635f915","","Mozilla/5.0 (Windows NT 10.0; Win64; x64) AppleWebKit/537.36 (KHTML, like Gecko) Chrome/135.0.0.0 Safari/537.36","WebKit","Chrome","135.0.0.0","Windows","10.0","https://hz8g1ckzuq.cognition.run/","en-US,en;q=0.9,de-DE;q=0.8,de;q=0.7","ugfh3008hhvncmv","26","[""White""]","No","Female","2038045.099999994","null","","<p></p>","null","choice","cdt","attraction_2","2","laptops","null","null","null","null","null","null","1","","","","","","","","","",""
