"success","timeout","failed_images","failed_audio","failed_video","screen_id","trial_type","trial_index","time_elapsed","internal_node_id","run_id","condition","recorded_at","source_code_version","ip","user_agent","device","browser","browser_version","platform","platform_version","referer","accept_language","ppt_id","age","race","ethnicity","gender","exp_duration","rt","view_history","stimulus","response","phase","order","effect","t_high","category","d1_best","d2_best","d1_worst1","d2_worst1","d1_worst2","d2_worst2","first_dim","d1_t","d1_c","d1_d","d2_t","d2_c","d2_d","d1_name","d2_name","strategy_response","question_order"
"true","false","[]","[]","[]","img preload","preload","0","1249","0.0-0.0","70","1","2025-04-11 14:31:46","bb671e3ae32f654b8954ea4c4635f915","","Mozilla/5.0 (Macintosh; Intel Mac OS X 10_15_7) AppleWebKit/537.36 (KHTML, like Gecko) Chrome/134.0.0.0 Safari/537.36","Macintosh","Chrome","134.0.0.0","OS X","10_15_7","https://hz8g1ckzuq.cognition.run/","en-US,en;q=0.9","rh6qq0bcfjbxgkd","29","[""White""]","No","Male","2729608.300000012","","","","","","","","","","","","","","","","","","","","","","","","","",""
"true","","","","","","fullscreen","1","121131","0.0-1.0","70","1","2025-04-11 14:31:46","bb671e3ae32f654b8954ea4c4635f915","","Mozilla/5.0 (Macintosh; Intel Mac OS X 10_15_7) AppleWebKit/537.36 (KHTML, like Gecko) Chrome/134.0.0.0 Safari/537.36","Macintosh","Chrome","134.0.0.0","OS X","10_15_7","https://hz8g1ckzuq.cognition.run/","en-US,en;q=0.9","rh6qq0bcfjbxgkd","29","[""White""]","No","Male","2729608.300000012","118874","","","","","","","","","","","","","","","","","","","","","","","","",""
"","","","","","","instructions","2","134675","0.0-2.0","70","1","2025-04-11 14:31:46","bb671e3ae32f654b8954ea4c4635f915","","Mozilla/5.0 (Macintosh; Intel Mac OS X 10_15_7) AppleWebKit/537.36 (KHTML, like Gecko) Chrome/134.0.0.0 Safari/537.36","Macintosh","Chrome","134.0.0.0","OS X","10_15_7","https://hz8g1ckzuq.cognition.run/","en-US,en;q=0.9","rh6qq0bcfjbxgkd","29","[""White""]","No","Male","2729608.300000012","13541","[{""page_index"":0,""viewing_time"":1150},{""page_index"":1,""viewing_time"":1095},{""page_index"":2,""viewing_time"":841},{""page_index"":3,""viewing_time"":975},{""page_index"":4,""viewing_time"":2101},{""page_index"":5,""viewing_time"":1151},{""page_index"":6,""viewing_time"":1022},{""page_index"":7,""viewing_time"":1770},{""page_index"":8,""viewing_time"":1829},{""page_index"":9,""viewing_time"":1607}]","","","","","","","","","","","","","","","","","","","","","","","",""
"","","","","","rating_trial_setup","html-keyboard-response","3","134979","0.0-3.0-0.0","70","1","2025-04-11 14:31:46","bb671e3ae32f654b8954ea4c4635f915","","Mozilla/5.0 (Macintosh; Intel Mac OS X 10_15_7) AppleWebKit/537.36 (KHTML, like Gecko) Chrome/134.0.0.0 Safari/537.36","Macintosh","Chrome","134.0.0.0","OS X","10_15_7","https://hz8g1ckzuq.cognition.run/","en-US,en;q=0.9","rh6qq0bcfjbxgkd","29","[""White""]","No","Male","2729608.300000012","null","","<p></p>","null","rating","bww","catch","null","microwave ovens","60","80","20","10","40","15","1","","","","","","","","","",""
"","","","","","rating_trial","survey-html-form","4","165835","0.0-3.0-1.0","70","1","2025-04-11 14:31:46","bb671e3ae32f654b8954ea4c4635f915","","Mozilla/5.0 (Macintosh; Intel Mac OS X 10_15_7) AppleWebKit/537.36 (KHTML, like Gecko) Chrome/134.0.0.0 Safari/537.36","Macintosh","Chrome","134.0.0.0","OS X","10_15_7","https://hz8g1ckzuq.cognition.run/","en-US,en;q=0.9","rh6qq0bcfjbxgkd","29","[""White""]","No","Male","2729608.300000012","30849","","","{""price_1"":""80"",""price_2"":""15"",""price_3"":""25""}","rating","bww","catch","null","microwave ovens","60","80","20","10","40","15","1","null","null","null","null","null","null","Warranty","Cooking power","",""
"","","","","","rating_trial_setup","html-keyboard-response","5","166139","0.0-3.0-0.1","70","1","2025-04-11 14:31:46","bb671e3ae32f654b8954ea4c4635f915","","Mozilla/5.0 (Macintosh; Intel Mac OS X 10_15_7) AppleWebKit/537.36 (KHTML, like Gecko) Chrome/134.0.0.0 Safari/537.36","Macintosh","Chrome","134.0.0.0","OS X","10_15_7","https://hz8g1ckzuq.cognition.run/","en-US,en;q=0.9","rh6qq0bcfjbxgkd","29","[""White""]","No","Male","2729608.300000012","null","","<p></p>","null","rating","dct","attraction_2","1","laptops","null","null","null","null","null","null","2","","","","","","","","","",""
"","","","","","rating_trial","survey-html-form","6","190490","0.0-3.0-1.1","70","1","2025-04-11 14:31:46","bb671e3ae32f654b8954ea4c4635f915","","Mozilla/5.0 (Macintosh; Intel Mac OS X 10_15_7) AppleWebKit/537.36 (KHTML, like Gecko) Chrome/134.0.0.0 Safari/537.36","Macintosh","Chrome","134.0.0.0","OS X","10_15_7","https://hz8g1ckzuq.cognition.run/","en-US,en;q=0.9","rh6qq0bcfjbxgkd","29","[""White""]","No","Male","2729608.300000012","24348","","","{""price_1"":""450"",""price_2"":""500"",""price_3"":""525""}","rating","dct","attraction_2","1","laptops","null","null","null","null","null","null","2","60","50","60","50","60","40","Processing speed","Memory (RAM)","",""
"","","","","","rating_trial_setup","html-keyboard-response","7","190794","0.0-3.0-0.2","70","1","2025-04-11 14:31:46","bb671e3ae32f654b8954ea4c4635f915","","Mozilla/5.0 (Macintosh; Intel Mac OS X 10_15_7) AppleWebKit/537.36 (KHTML, like Gecko) Chrome/134.0.0.0 Safari/537.36","Macintosh","Chrome","134.0.0.0","OS X","10_15_7","https://hz8g1ckzuq.cognition.run/","en-US,en;q=0.9","rh6qq0bcfjbxgkd","29","[""White""]","No","Male","2729608.300000012","null","","<p></p>","null","rating","tcd","attraction_2","2","televisions","null","null","null","null","null","null","1","","","","","","","","","",""
"","","","","","rating_trial","survey-html-form","8","209947","0.0-3.0-1.2","70","1","2025-04-11 14:31:46","bb671e3ae32f654b8954ea4c4635f915","","Mozilla/5.0 (Macintosh; Intel Mac OS X 10_15_7) AppleWebKit/537.36 (KHTML, like Gecko) Chrome/134.0.0.0 Safari/537.36","Macintosh","Chrome","134.0.0.0","OS X","10_15_7","https://hz8g1ckzuq.cognition.run/","en-US,en;q=0.9","rh6qq0bcfjbxgkd","29","[""White""]","No","Male","2729608.300000012","19150","","","{""price_1"":""300"",""price_2"":""500"",""price_3"":""400""}","rating","tcd","attraction_2","2","televisions","null","null","null","null","null","null","1","50","60","40","60","50","60","Screen size","Average lifespan","",""
"","","","","","rating_trial_setup","html-keyboard-response","9","210250","0.0-3.0-0.3","70","1","2025-04-11 14:31:46","bb671e3ae32f654b8954ea4c4635f915","","Mozilla/5.0 (Macintosh; Intel Mac OS X 10_15_7) AppleWebKit/537.36 (KHTML, like Gecko) Chrome/134.0.0.0 Safari/537.36","Macintosh","Chrome","134.0.0.0","OS X","10_15_7","https://hz8g1ckzuq.cognition.run/","en-US,en;q=0.9","rh6qq0bcfjbxgkd","29","[""White""]","No","Male","2729608.300000012","null","","<p></p>","null","rating","tcd","attraction_1","2","televisions","null","null","null","null","null","null","2","","","","","","","","","",""
"","","","","","rating_trial","survey-html-form","10","222579","0.0-3.0-1.3","70","1","2025-04-11 14:31:46","bb671e3ae32f654b8954ea4c4635f915","","Mozilla/5.0 (Macintosh; Intel Mac OS X 10_15_7) AppleWebKit/537.36 (KHTML, like Gecko) Chrome/134.0.0.0 Safari/537.36","Macintosh","Chrome","134.0.0.0","OS X","10_15_7","https://hz8g1ckzuq.cognition.run/","en-US,en;q=0.9","rh6qq0bcfjbxgkd","29","[""White""]","No","Male","2729608.300000012","12325","","","{""price_1"":""500"",""price_2"":""495"",""price_3"":""450""}","rating","tcd","attraction_1","2","televisions","null","null","null","null","null","null","2","50","60","45","60","50","60","Screen size","Average lifespan","",""
"","","","","","rating_trial_setup","html-keyboard-response","11","222881","0.0-3.0-0.4","70","1","2025-04-11 14:31:46","bb671e3ae32f654b8954ea4c4635f915","","Mozilla/5.0 (Macintosh; Intel Mac OS X 10_15_7) AppleWebKit/537.36 (KHTML, like Gecko) Chrome/134.0.0.0 Safari/537.36","Macintosh","Chrome","134.0.0.0","OS X","10_15_7","https://hz8g1ckzuq.cognition.run/","en-US,en;q=0.9","rh6qq0bcfjbxgkd","29","[""White""]","No","Male","2729608.300000012","null","","<p></p>","null","rating","tcd","attraction_2","2","laptops","null","null","null","null","null","null","2","","","","","","","","","",""
"","","","","","rating_trial","survey-html-form","12","236961","0.0-3.0-1.4","70","1","2025-04-11 14:31:46","bb671e3ae32f654b8954ea4c4635f915","","Mozilla/5.0 (Macintosh; Intel Mac OS X 10_15_7) AppleWebKit/537.36 (KHTML, like Gecko) Chrome/134.0.0.0 Safari/537.36","Macintosh","Chrome","134.0.0.0","OS X","10_15_7","https://hz8g1ckzuq.cognition.run/","en-US,en;q=0.9","rh6qq0bcfjbxgkd","29","[""White""]","No","Male","2729608.300000012","14077","","","{""price_1"":""550"",""price_2"":""545"",""price_3"":""500""}","rating","tcd","attraction_2","2","laptops","null","null","null","null","null","null","2","50","60","40","60","50","60","Processing speed","Memory (RAM)","",""
"","","","","","rating_trial_setup","html-keyboard-response","13","237265","0.0-3.0-0.5","70","1","2025-04-11 14:31:46","bb671e3ae32f654b8954ea4c4635f915","","Mozilla/5.0 (Macintosh; Intel Mac OS X 10_15_7) AppleWebKit/537.36 (KHTML, like Gecko) Chrome/134.0.0.0 Safari/537.36","Macintosh","Chrome","134.0.0.0","OS X","10_15_7","https://hz8g1ckzuq.cognition.run/","en-US,en;q=0.9","rh6qq0bcfjbxgkd","29","[""White""]","No","Male","2729608.300000012","null","","<p></p>","null","rating","dct","repulsion_1","1","laptops","null","null","null","null","null","null","1","","","","","","","","","",""
"","","","","","rating_trial","survey-html-form","14","255771","0.0-3.0-1.5","70","1","2025-04-11 14:31:46","bb671e3ae32f654b8954ea4c4635f915","","Mozilla/5.0 (Macintosh; Intel Mac OS X 10_15_7) AppleWebKit/537.36 (KHTML, like Gecko) Chrome/134.0.0.0 Safari/537.36","Macintosh","Chrome","134.0.0.0","OS X","10_15_7","https://hz8g1ckzuq.cognition.run/","en-US,en;q=0.9","rh6qq0bcfjbxgkd","29","[""White""]","No","Male","2729608.300000012","18503","","","{""price_1"":""600"",""price_2"":""650"",""price_3"":""650""}","rating","dct","repulsion_1","1","laptops","null","null","null","null","null","null","1","100","90","100","30","40","25","Processing speed","Memory (RAM)","",""
"","","","","","rating_trial_setup","html-keyboard-response","15","256074","0.0-3.0-0.6","70","1","2025-04-11 14:31:46","bb671e3ae32f654b8954ea4c4635f915","","Mozilla/5.0 (Macintosh; Intel Mac OS X 10_15_7) AppleWebKit/537.36 (KHTML, like Gecko) Chrome/134.0.0.0 Safari/537.36","Macintosh","Chrome","134.0.0.0","OS X","10_15_7","https://hz8g1ckzuq.cognition.run/","en-US,en;q=0.9","rh6qq0bcfjbxgkd","29","[""White""]","No","Male","2729608.300000012","null","","<p></p>","null","rating","cdt","attraction_1","1","microwave ovens","null","null","null","null","null","null","2","","","","","","","","","",""
"","","","","","rating_trial","survey-html-form","16","265463","0.0-3.0-1.6","70","1","2025-04-11 14:31:46","bb671e3ae32f654b8954ea4c4635f915","","Mozilla/5.0 (Macintosh; Intel Mac OS X 10_15_7) AppleWebKit/537.36 (KHTML, like Gecko) Chrome/134.0.0.0 Safari/537.36","Macintosh","Chrome","134.0.0.0","OS X","10_15_7","https://hz8g1ckzuq.cognition.run/","en-US,en;q=0.9","rh6qq0bcfjbxgkd","29","[""White""]","No","Male","2729608.300000012","9386","","","{""price_1"":""75"",""price_2"":""60"",""price_3"":""70""}","rating","cdt","attraction_1","1","microwave ovens","null","null","null","null","null","null","2","60","50","60","50","60","45","Warranty","Cooking power","",""
"","","","","","rating_trial_setup","html-keyboard-response","17","265766","0.0-3.0-0.7","70","1","2025-04-11 14:31:46","bb671e3ae32f654b8954ea4c4635f915","","Mozilla/5.0 (Macintosh; Intel Mac OS X 10_15_7) AppleWebKit/537.36 (KHTML, like Gecko) Chrome/134.0.0.0 Safari/537.36","Macintosh","Chrome","134.0.0.0","OS X","10_15_7","https://hz8g1ckzuq.cognition.run/","en-US,en;q=0.9","rh6qq0bcfjbxgkd","29","[""White""]","No","Male","2729608.300000012","null","","<p></p>","null","rating","tcd","repulsion_1","2","microwave ovens","null","null","null","null","null","null","1","","","","","","","","","",""
"","","","","","rating_trial","survey-html-form","18","279322","0.0-3.0-1.7","70","1","2025-04-11 14:31:46","bb671e3ae32f654b8954ea4c4635f915","","Mozilla/5.0 (Macintosh; Intel Mac OS X 10_15_7) AppleWebKit/537.36 (KHTML, like Gecko) Chrome/134.0.0.0 Safari/537.36","Macintosh","Chrome","134.0.0.0","OS X","10_15_7","https://hz8g1ckzuq.cognition.run/","en-US,en;q=0.9","rh6qq0bcfjbxgkd","29","[""White""]","No","Male","2729608.300000012","13555","","","{""price_1"":""80"",""price_2"":""75"",""price_3"":""75""}","rating","tcd","repulsion_1","2","microwave ovens","null","null","null","null","null","null","1","30","40","25","100","90","100","Warranty","Cooking power","",""
"","","","","","rating_trial_setup","html-keyboard-response","19","279626","0.0-3.0-0.8","70","1","2025-04-11 14:31:46","bb671e3ae32f654b8954ea4c4635f915","","Mozilla/5.0 (Macintosh; Intel Mac OS X 10_15_7) AppleWebKit/537.36 (KHTML, like Gecko) Chrome/134.0.0.0 Safari/537.36","Macintosh","Chrome","134.0.0.0","OS X","10_15_7","https://hz8g1ckzuq.cognition.run/","en-US,en;q=0.9","rh6qq0bcfjbxgkd","29","[""White""]","No","Male","2729608.300000012","null","","<p></p>","null","rating","dct","attraction_1","2","washing machines","null","null","null","null","null","null","2","","","","","","","","","",""
"","","","","","rating_trial","survey-html-form","20","291111","0.0-3.0-1.8","70","1","2025-04-11 14:31:46","bb671e3ae32f654b8954ea4c4635f915","","Mozilla/5.0 (Macintosh; Intel Mac OS X 10_15_7) AppleWebKit/537.36 (KHTML, like Gecko) Chrome/134.0.0.0 Safari/537.36","Macintosh","Chrome","134.0.0.0","OS X","10_15_7","https://hz8g1ckzuq.cognition.run/","en-US,en;q=0.9","rh6qq0bcfjbxgkd","29","[""White""]","No","Male","2729608.300000012","11482","","","{""price_1"":""800"",""price_2"":""900"",""price_3"":""900""}","rating","dct","attraction_1","2","washing machines","null","null","null","null","null","null","2","50","60","45","60","50","60","Average lifespan","Energy savings","",""
"","","","","","rating_trial_setup","html-keyboard-response","21","291415","0.0-3.0-0.9","70","1","2025-04-11 14:31:46","bb671e3ae32f654b8954ea4c4635f915","","Mozilla/5.0 (Macintosh; Intel Mac OS X 10_15_7) AppleWebKit/537.36 (KHTML, like Gecko) Chrome/134.0.0.0 Safari/537.36","Macintosh","Chrome","134.0.0.0","OS X","10_15_7","https://hz8g1ckzuq.cognition.run/","en-US,en;q=0.9","rh6qq0bcfjbxgkd","29","[""White""]","No","Male","2729608.300000012","null","","<p></p>","null","rating","cdt","repulsion_1","1","microwave ovens","null","null","null","null","null","null","1","","","","","","","","","",""
"","","","","","rating_trial","survey-html-form","22","815796","0.0-3.0-1.9","70","1","2025-04-11 14:31:46","bb671e3ae32f654b8954ea4c4635f915","","Mozilla/5.0 (Macintosh; Intel Mac OS X 10_15_7) AppleWebKit/537.36 (KHTML, like Gecko) Chrome/134.0.0.0 Safari/537.36","Macintosh","Chrome","134.0.0.0","OS X","10_15_7","https://hz8g1ckzuq.cognition.run/","en-US,en;q=0.9","rh6qq0bcfjbxgkd","29","[""White""]","No","Male","2729608.300000012","524373","","","{""price_1"":""40"",""price_2"":""30"",""price_3"":""35""}","rating","cdt","repulsion_1","1","microwave ovens","null","null","null","null","null","null","1","100","90","100","30","40","25","Warranty","Cooking power","",""
"","","","","","rating_trial_setup","html-keyboard-response","23","816100","0.0-3.0-0.10","70","1","2025-04-11 14:31:46","bb671e3ae32f654b8954ea4c4635f915","","Mozilla/5.0 (Macintosh; Intel Mac OS X 10_15_7) AppleWebKit/537.36 (KHTML, like Gecko) Chrome/134.0.0.0 Safari/537.36","Macintosh","Chrome","134.0.0.0","OS X","10_15_7","https://hz8g1ckzuq.cognition.run/","en-US,en;q=0.9","rh6qq0bcfjbxgkd","29","[""White""]","No","Male","2729608.300000012","null","","<p></p>","null","rating","ctd","repulsion_2","2","microwave ovens","null","null","null","null","null","null","1","","","","","","","","","",""
"","","","","","rating_trial","survey-html-form","24","827223","0.0-3.0-1.10","70","1","2025-04-11 14:31:46","bb671e3ae32f654b8954ea4c4635f915","","Mozilla/5.0 (Macintosh; Intel Mac OS X 10_15_7) AppleWebKit/537.36 (KHTML, like Gecko) Chrome/134.0.0.0 Safari/537.36","Macintosh","Chrome","134.0.0.0","OS X","10_15_7","https://hz8g1ckzuq.cognition.run/","en-US,en;q=0.9","rh6qq0bcfjbxgkd","29","[""White""]","No","Male","2729608.300000012","11117","","","{""price_1"":""60"",""price_2"":""65"",""price_3"":""60""}","rating","ctd","repulsion_2","2","microwave ovens","null","null","null","null","null","null","1","30","40","20","100","90","100","Warranty","Cooking power","",""
"","","","","","rating_trial_setup","html-keyboard-response","25","827526","0.0-3.0-0.11","70","1","2025-04-11 14:31:46","bb671e3ae32f654b8954ea4c4635f915","","Mozilla/5.0 (Macintosh; Intel Mac OS X 10_15_7) AppleWebKit/537.36 (KHTML, like Gecko) Chrome/134.0.0.0 Safari/537.36","Macintosh","Chrome","134.0.0.0","OS X","10_15_7","https://hz8g1ckzuq.cognition.run/","en-US,en;q=0.9","rh6qq0bcfjbxgkd","29","[""White""]","No","Male","2729608.300000012","null","","<p></p>","null","rating","tcd","repulsion_2","1","televisions","null","null","null","null","null","null","2","","","","","","","","","",""
"","","","","","rating_trial","survey-html-form","26","847219","0.0-3.0-1.11","70","1","2025-04-11 14:31:46","bb671e3ae32f654b8954ea4c4635f915","","Mozilla/5.0 (Macintosh; Intel Mac OS X 10_15_7) AppleWebKit/537.36 (KHTML, like Gecko) Chrome/134.0.0.0 Safari/537.36","Macintosh","Chrome","134.0.0.0","OS X","10_15_7","https://hz8g1ckzuq.cognition.run/","en-US,en;q=0.9","rh6qq0bcfjbxgkd","29","[""White""]","No","Male","2729608.300000012","19689","","","{""price_1"":""1200"",""price_2"":""1000"",""price_3"":""1100""}","rating","tcd","repulsion_2","1","televisions","null","null","null","null","null","null","2","100","90","100","30","40","20","Screen size","Average lifespan","",""
"","","","","","rating_trial_setup","html-keyboard-response","27","847523","0.0-3.0-0.12","70","1","2025-04-11 14:31:46","bb671e3ae32f654b8954ea4c4635f915","","Mozilla/5.0 (Macintosh; Intel Mac OS X 10_15_7) AppleWebKit/537.36 (KHTML, like Gecko) Chrome/134.0.0.0 Safari/537.36","Macintosh","Chrome","134.0.0.0","OS X","10_15_7","https://hz8g1ckzuq.cognition.run/","en-US,en;q=0.9","rh6qq0bcfjbxgkd","29","[""White""]","No","Male","2729608.300000012","null","","<p></p>","null","rating","dct","attraction_2","2","washing machines","null","null","null","null","null","null","1","","","","","","","","","",""
"","","","","","rating_trial","survey-html-form","28","866480","0.0-3.0-1.12","70","1","2025-04-11 14:31:46","bb671e3ae32f654b8954ea4c4635f915","","Mozilla/5.0 (Macintosh; Intel Mac OS X 10_15_7) AppleWebKit/537.36 (KHTML, like Gecko) Chrome/134.0.0.0 Safari/537.36","Macintosh","Chrome","134.0.0.0","OS X","10_15_7","https://hz8g1ckzuq.cognition.run/","en-US,en;q=0.9","rh6qq0bcfjbxgkd","29","[""White""]","No","Male","2729608.300000012","18955","","","{""price_1"":""800"",""price_2"":""750"",""price_3"":""900""}","rating","dct","attraction_2","2","washing machines","null","null","null","null","null","null","1","50","60","40","60","50","60","Average lifespan","Energy savings","",""
"","","","","","rating_trial_setup","html-keyboard-response","29","866784","0.0-3.0-0.13","70","1","2025-04-11 14:31:46","bb671e3ae32f654b8954ea4c4635f915","","Mozilla/5.0 (Macintosh; Intel Mac OS X 10_15_7) AppleWebKit/537.36 (KHTML, like Gecko) Chrome/134.0.0.0 Safari/537.36","Macintosh","Chrome","134.0.0.0","OS X","10_15_7","https://hz8g1ckzuq.cognition.run/","en-US,en;q=0.9","rh6qq0bcfjbxgkd","29","[""White""]","No","Male","2729608.300000012","null","","<p></p>","null","rating","cdt","repulsion_2","1","microwave ovens","null","null","null","null","null","null","1","","","","","","","","","",""
"","","","","","rating_trial","survey-html-form","30","998496","0.0-3.0-1.13","70","1","2025-04-11 14:31:46","bb671e3ae32f654b8954ea4c4635f915","","Mozilla/5.0 (Macintosh; Intel Mac OS X 10_15_7) AppleWebKit/537.36 (KHTML, like Gecko) Chrome/134.0.0.0 Safari/537.36","Macintosh","Chrome","134.0.0.0","OS X","10_15_7","https://hz8g1ckzuq.cognition.run/","en-US,en;q=0.9","rh6qq0bcfjbxgkd","29","[""White""]","No","Male","2729608.300000012","131707","","","{""price_1"":""50"",""price_2"":""30"",""price_3"":""40""}","rating","cdt","repulsion_2","1","microwave ovens","null","null","null","null","null","null","1","100","90","100","30","40","20","Warranty","Cooking power","",""
"","","","","","rating_trial_setup","html-keyboard-response","31","998799","0.0-3.0-0.14","70","1","2025-04-11 14:31:46","bb671e3ae32f654b8954ea4c4635f915","","Mozilla/5.0 (Macintosh; Intel Mac OS X 10_15_7) AppleWebKit/537.36 (KHTML, like Gecko) Chrome/134.0.0.0 Safari/537.36","Macintosh","Chrome","134.0.0.0","OS X","10_15_7","https://hz8g1ckzuq.cognition.run/","en-US,en;q=0.9","rh6qq0bcfjbxgkd","29","[""White""]","No","Male","2729608.300000012","null","","<p></p>","null","rating","dct","attraction_2","1","washing machines","null","null","null","null","null","null","2","","","","","","","","","",""
"","","","","","rating_trial","survey-html-form","32","1027165","0.0-3.0-1.14","70","1","2025-04-11 14:31:46","bb671e3ae32f654b8954ea4c4635f915","","Mozilla/5.0 (Macintosh; Intel Mac OS X 10_15_7) AppleWebKit/537.36 (KHTML, like Gecko) Chrome/134.0.0.0 Safari/537.36","Macintosh","Chrome","134.0.0.0","OS X","10_15_7","https://hz8g1ckzuq.cognition.run/","en-US,en;q=0.9","rh6qq0bcfjbxgkd","29","[""White""]","No","Male","2729608.300000012","28364","","","{""price_1"":""750"",""price_2"":""800"",""price_3"":""750""}","rating","dct","attraction_2","1","washing machines","null","null","null","null","null","null","2","60","50","60","50","60","40","Average lifespan","Energy savings","",""
"","","","","","rating_trial_setup","html-keyboard-response","33","1027469","0.0-3.0-0.15","70","1","2025-04-11 14:31:46","bb671e3ae32f654b8954ea4c4635f915","","Mozilla/5.0 (Macintosh; Intel Mac OS X 10_15_7) AppleWebKit/537.36 (KHTML, like Gecko) Chrome/134.0.0.0 Safari/537.36","Macintosh","Chrome","134.0.0.0","OS X","10_15_7","https://hz8g1ckzuq.cognition.run/","en-US,en;q=0.9","rh6qq0bcfjbxgkd","29","[""White""]","No","Male","2729608.300000012","null","","<p></p>","null","rating","dct","repulsion_1","2","washing machines","null","null","null","null","null","null","1","","","","","","","","","",""
"","","","","","rating_trial","survey-html-form","34","1305111","0.0-3.0-1.15","70","1","2025-04-11 14:31:46","bb671e3ae32f654b8954ea4c4635f915","","Mozilla/5.0 (Macintosh; Intel Mac OS X 10_15_7) AppleWebKit/537.36 (KHTML, like Gecko) Chrome/134.0.0.0 Safari/537.36","Macintosh","Chrome","134.0.0.0","OS X","10_15_7","https://hz8g1ckzuq.cognition.run/","en-US,en;q=0.9","rh6qq0bcfjbxgkd","29","[""White""]","No","Male","2729608.300000012","277636","","","{""price_1"":""1000"",""price_2"":""1100"",""price_3"":""1150""}","rating","dct","repulsion_1","2","washing machines","null","null","null","null","null","null","1","30","40","25","100","90","100","Average lifespan","Energy savings","",""
"","","","","","rating_trial_setup","html-keyboard-response","35","1305416","0.0-3.0-0.16","70","1","2025-04-11 14:31:46","bb671e3ae32f654b8954ea4c4635f915","","Mozilla/5.0 (Macintosh; Intel Mac OS X 10_15_7) AppleWebKit/537.36 (KHTML, like Gecko) Chrome/134.0.0.0 Safari/537.36","Macintosh","Chrome","134.0.0.0","OS X","10_15_7","https://hz8g1ckzuq.cognition.run/","en-US,en;q=0.9","rh6qq0bcfjbxgkd","29","[""White""]","No","Male","2729608.300000012","null","","<p></p>","null","rating","bww","catch","null","washing machines","60","70","15","40","35","10","1","","","","","","","","","",""
"","","","","","rating_trial","survey-html-form","36","1667970","0.0-3.0-1.16","70","1","2025-04-11 14:31:46","bb671e3ae32f654b8954ea4c4635f915","","Mozilla/5.0 (Macintosh; Intel Mac OS X 10_15_7) AppleWebKit/537.36 (KHTML, like Gecko) Chrome/134.0.0.0 Safari/537.36","Macintosh","Chrome","134.0.0.0","OS X","10_15_7","https://hz8g1ckzuq.cognition.run/","en-US,en;q=0.9","rh6qq0bcfjbxgkd","29","[""White""]","No","Male","2729608.300000012","362565","","","{""price_1"":""900"",""price_2"":""400"",""price_3"":""300""}","rating","bww","catch","null","washing machines","60","70","15","40","35","10","1","null","null","null","null","null","null","Average lifespan","Energy savings","",""
"","","","","","rating_trial_setup","html-keyboard-response","37","1668274","0.0-3.0-0.17","70","1","2025-04-11 14:31:46","bb671e3ae32f654b8954ea4c4635f915","","Mozilla/5.0 (Macintosh; Intel Mac OS X 10_15_7) AppleWebKit/537.36 (KHTML, like Gecko) Chrome/134.0.0.0 Safari/537.36","Macintosh","Chrome","134.0.0.0","OS X","10_15_7","https://hz8g1ckzuq.cognition.run/","en-US,en;q=0.9","rh6qq0bcfjbxgkd","29","[""White""]","No","Male","2729608.300000012","null","","<p></p>","null","rating","wwb","catch","null","washing machines","65","50","30","20","40","30","2","","","","","","","","","",""
"","","","","","rating_trial","survey-html-form","38","1737900","0.0-3.0-1.17","70","1","2025-04-11 14:31:46","bb671e3ae32f654b8954ea4c4635f915","","Mozilla/5.0 (Macintosh; Intel Mac OS X 10_15_7) AppleWebKit/537.36 (KHTML, like Gecko) Chrome/134.0.0.0 Safari/537.36","Macintosh","Chrome","134.0.0.0","OS X","10_15_7","https://hz8g1ckzuq.cognition.run/","en-US,en;q=0.9","rh6qq0bcfjbxgkd","29","[""White""]","No","Male","2729608.300000012","69621","","","{""price_1"":""400"",""price_2"":""600"",""price_3"":""800""}","rating","wwb","catch","null","washing machines","65","50","30","20","40","30","2","null","null","null","null","null","null","Average lifespan","Energy savings","",""
"","","","","","rating_trial_setup","html-keyboard-response","39","1738205","0.0-3.0-0.18","70","1","2025-04-11 14:31:46","bb671e3ae32f654b8954ea4c4635f915","","Mozilla/5.0 (Macintosh; Intel Mac OS X 10_15_7) AppleWebKit/537.36 (KHTML, like Gecko) Chrome/134.0.0.0 Safari/537.36","Macintosh","Chrome","134.0.0.0","OS X","10_15_7","https://hz8g1ckzuq.cognition.run/","en-US,en;q=0.9","rh6qq0bcfjbxgkd","29","[""White""]","No","Male","2729608.300000012","null","","<p></p>","null","rating","wwb","catch","null","televisions","85","75","40","15","10","10","1","","","","","","","","","",""
"","","","","","rating_trial","survey-html-form","40","1750283","0.0-3.0-1.18","70","1","2025-04-11 14:31:46","bb671e3ae32f654b8954ea4c4635f915","","Mozilla/5.0 (Macintosh; Intel Mac OS X 10_15_7) AppleWebKit/537.36 (KHTML, like Gecko) Chrome/134.0.0.0 Safari/537.36","Macintosh","Chrome","134.0.0.0","OS X","10_15_7","https://hz8g1ckzuq.cognition.run/","en-US,en;q=0.9","rh6qq0bcfjbxgkd","29","[""White""]","No","Male","2729608.300000012","12074","","","{""price_1"":""400"",""price_2"":""200"",""price_3"":""700""}","rating","wwb","catch","null","televisions","85","75","40","15","10","10","1","null","null","null","null","null","null","Screen size","Average lifespan","",""
"","","","","","rating_trial_setup","html-keyboard-response","41","1750586","0.0-3.0-0.19","70","1","2025-04-11 14:31:46","bb671e3ae32f654b8954ea4c4635f915","","Mozilla/5.0 (Macintosh; Intel Mac OS X 10_15_7) AppleWebKit/537.36 (KHTML, like Gecko) Chrome/134.0.0.0 Safari/537.36","Macintosh","Chrome","134.0.0.0","OS X","10_15_7","https://hz8g1ckzuq.cognition.run/","en-US,en;q=0.9","rh6qq0bcfjbxgkd","29","[""White""]","No","Male","2729608.300000012","null","","<p></p>","null","rating","ctd","attraction_2","1","televisions","null","null","null","null","null","null","2","","","","","","","","","",""
"","","","","","rating_trial","survey-html-form","42","1758399","0.0-3.0-1.19","70","1","2025-04-11 14:31:46","bb671e3ae32f654b8954ea4c4635f915","","Mozilla/5.0 (Macintosh; Intel Mac OS X 10_15_7) AppleWebKit/537.36 (KHTML, like Gecko) Chrome/134.0.0.0 Safari/537.36","Macintosh","Chrome","134.0.0.0","OS X","10_15_7","https://hz8g1ckzuq.cognition.run/","en-US,en;q=0.9","rh6qq0bcfjbxgkd","29","[""White""]","No","Male","2729608.300000012","7808","","","{""price_1"":""800"",""price_2"":""800"",""price_3"":""700""}","rating","ctd","attraction_2","1","televisions","null","null","null","null","null","null","2","60","50","60","50","60","40","Screen size","Average lifespan","",""
"","","","","","rating_trial_setup","html-keyboard-response","43","1758704","0.0-3.0-0.20","70","1","2025-04-11 14:31:46","bb671e3ae32f654b8954ea4c4635f915","","Mozilla/5.0 (Macintosh; Intel Mac OS X 10_15_7) AppleWebKit/537.36 (KHTML, like Gecko) Chrome/134.0.0.0 Safari/537.36","Macintosh","Chrome","134.0.0.0","OS X","10_15_7","https://hz8g1ckzuq.cognition.run/","en-US,en;q=0.9","rh6qq0bcfjbxgkd","29","[""White""]","No","Male","2729608.300000012","null","","<p></p>","null","rating","dtc","attraction_2","1","microwave ovens","null","null","null","null","null","null","1","","","","","","","","","",""
"","","","","","rating_trial","survey-html-form","44","1770916","0.0-3.0-1.20","70","1","2025-04-11 14:31:46","bb671e3ae32f654b8954ea4c4635f915","","Mozilla/5.0 (Macintosh; Intel Mac OS X 10_15_7) AppleWebKit/537.36 (KHTML, like Gecko) Chrome/134.0.0.0 Safari/537.36","Macintosh","Chrome","134.0.0.0","OS X","10_15_7","https://hz8g1ckzuq.cognition.run/","en-US,en;q=0.9","rh6qq0bcfjbxgkd","29","[""White""]","No","Male","2729608.300000012","12208","","","{""price_1"":""80"",""price_2"":""85"",""price_3"":""85""}","rating","dtc","attraction_2","1","microwave ovens","null","null","null","null","null","null","1","60","50","60","50","60","40","Warranty","Cooking power","",""
"","","","","","rating_trial_setup","html-keyboard-response","45","1771220","0.0-3.0-0.21","70","1","2025-04-11 14:31:46","bb671e3ae32f654b8954ea4c4635f915","","Mozilla/5.0 (Macintosh; Intel Mac OS X 10_15_7) AppleWebKit/537.36 (KHTML, like Gecko) Chrome/134.0.0.0 Safari/537.36","Macintosh","Chrome","134.0.0.0","OS X","10_15_7","https://hz8g1ckzuq.cognition.run/","en-US,en;q=0.9","rh6qq0bcfjbxgkd","29","[""White""]","No","Male","2729608.300000012","null","","<p></p>","null","rating","dct","attraction_1","1","washing machines","null","null","null","null","null","null","1","","","","","","","","","",""
"","","","","","rating_trial","survey-html-form","46","1797350","0.0-3.0-1.21","70","1","2025-04-11 14:31:46","bb671e3ae32f654b8954ea4c4635f915","","Mozilla/5.0 (Macintosh; Intel Mac OS X 10_15_7) AppleWebKit/537.36 (KHTML, like Gecko) Chrome/134.0.0.0 Safari/537.36","Macintosh","Chrome","134.0.0.0","OS X","10_15_7","https://hz8g1ckzuq.cognition.run/","en-US,en;q=0.9","rh6qq0bcfjbxgkd","29","[""White""]","No","Male","2729608.300000012","26125","","","{""price_1"":""700"",""price_2"":""800"",""price_3"":""800""}","rating","dct","attraction_1","1","washing machines","null","null","null","null","null","null","1","60","50","60","50","60","45","Average lifespan","Energy savings","",""
"","","","","","rating_trial_setup","html-keyboard-response","47","1797654","0.0-3.0-0.22","70","1","2025-04-11 14:31:46","bb671e3ae32f654b8954ea4c4635f915","","Mozilla/5.0 (Macintosh; Intel Mac OS X 10_15_7) AppleWebKit/537.36 (KHTML, like Gecko) Chrome/134.0.0.0 Safari/537.36","Macintosh","Chrome","134.0.0.0","OS X","10_15_7","https://hz8g1ckzuq.cognition.run/","en-US,en;q=0.9","rh6qq0bcfjbxgkd","29","[""White""]","No","Male","2729608.300000012","null","","<p></p>","null","rating","ctd","repulsion_2","2","washing machines","null","null","null","null","null","null","2","","","","","","","","","",""
"","","","","","rating_trial","survey-html-form","48","1817236","0.0-3.0-1.22","70","1","2025-04-11 14:31:46","bb671e3ae32f654b8954ea4c4635f915","","Mozilla/5.0 (Macintosh; Intel Mac OS X 10_15_7) AppleWebKit/537.36 (KHTML, like Gecko) Chrome/134.0.0.0 Safari/537.36","Macintosh","Chrome","134.0.0.0","OS X","10_15_7","https://hz8g1ckzuq.cognition.run/","en-US,en;q=0.9","rh6qq0bcfjbxgkd","29","[""White""]","No","Male","2729608.300000012","19577","","","{""price_1"":""800"",""price_2"":""650"",""price_3"":""600""}","rating","ctd","repulsion_2","2","washing machines","null","null","null","null","null","null","2","30","40","20","100","90","100","Average lifespan","Energy savings","",""
"","","","","","rating_trial_setup","html-keyboard-response","49","1817541","0.0-3.0-0.23","70","1","2025-04-11 14:31:46","bb671e3ae32f654b8954ea4c4635f915","","Mozilla/5.0 (Macintosh; Intel Mac OS X 10_15_7) AppleWebKit/537.36 (KHTML, like Gecko) Chrome/134.0.0.0 Safari/537.36","Macintosh","Chrome","134.0.0.0","OS X","10_15_7","https://hz8g1ckzuq.cognition.run/","en-US,en;q=0.9","rh6qq0bcfjbxgkd","29","[""White""]","No","Male","2729608.300000012","null","","<p></p>","null","rating","tdc","repulsion_1","2","televisions","null","null","null","null","null","null","1","","","","","","","","","",""
"","","","","","rating_trial","survey-html-form","50","1830766","0.0-3.0-1.23","70","1","2025-04-11 14:31:46","bb671e3ae32f654b8954ea4c4635f915","","Mozilla/5.0 (Macintosh; Intel Mac OS X 10_15_7) AppleWebKit/537.36 (KHTML, like Gecko) Chrome/134.0.0.0 Safari/537.36","Macintosh","Chrome","134.0.0.0","OS X","10_15_7","https://hz8g1ckzuq.cognition.run/","en-US,en;q=0.9","rh6qq0bcfjbxgkd","29","[""White""]","No","Male","2729608.300000012","13222","","","{""price_1"":""250"",""price_2"":""225"",""price_3"":""400""}","rating","tdc","repulsion_1","2","televisions","null","null","null","null","null","null","1","30","40","25","100","90","100","Screen size","Average lifespan","",""
"","","","","","rating_trial_setup","html-keyboard-response","51","1831069","0.0-3.0-0.24","70","1","2025-04-11 14:31:46","bb671e3ae32f654b8954ea4c4635f915","","Mozilla/5.0 (Macintosh; Intel Mac OS X 10_15_7) AppleWebKit/537.36 (KHTML, like Gecko) Chrome/134.0.0.0 Safari/537.36","Macintosh","Chrome","134.0.0.0","OS X","10_15_7","https://hz8g1ckzuq.cognition.run/","en-US,en;q=0.9","rh6qq0bcfjbxgkd","29","[""White""]","No","Male","2729608.300000012","null","","<p></p>","null","rating","tdc","repulsion_1","1","televisions","null","null","null","null","null","null","1","","","","","","","","","",""
"","","","","","rating_trial","survey-html-form","52","1844116","0.0-3.0-1.24","70","1","2025-04-11 14:31:46","bb671e3ae32f654b8954ea4c4635f915","","Mozilla/5.0 (Macintosh; Intel Mac OS X 10_15_7) AppleWebKit/537.36 (KHTML, like Gecko) Chrome/134.0.0.0 Safari/537.36","Macintosh","Chrome","134.0.0.0","OS X","10_15_7","https://hz8g1ckzuq.cognition.run/","en-US,en;q=0.9","rh6qq0bcfjbxgkd","29","[""White""]","No","Male","2729608.300000012","13042","","","{""price_1"":""1200"",""price_2"":""1100"",""price_3"":""1000""}","rating","tdc","repulsion_1","1","televisions","null","null","null","null","null","null","1","100","90","100","30","40","25","Screen size","Average lifespan","",""
"","","","","","rating_trial_setup","html-keyboard-response","53","1844421","0.0-3.0-0.25","70","1","2025-04-11 14:31:46","bb671e3ae32f654b8954ea4c4635f915","","Mozilla/5.0 (Macintosh; Intel Mac OS X 10_15_7) AppleWebKit/537.36 (KHTML, like Gecko) Chrome/134.0.0.0 Safari/537.36","Macintosh","Chrome","134.0.0.0","OS X","10_15_7","https://hz8g1ckzuq.cognition.run/","en-US,en;q=0.9","rh6qq0bcfjbxgkd","29","[""White""]","No","Male","2729608.300000012","null","","<p></p>","null","rating","cdt","attraction_1","1","laptops","null","null","null","null","null","null","2","","","","","","","","","",""
"","","","","","rating_trial","survey-html-form","54","1853356","0.0-3.0-1.25","70","1","2025-04-11 14:31:46","bb671e3ae32f654b8954ea4c4635f915","","Mozilla/5.0 (Macintosh; Intel Mac OS X 10_15_7) AppleWebKit/537.36 (KHTML, like Gecko) Chrome/134.0.0.0 Safari/537.36","Macintosh","Chrome","134.0.0.0","OS X","10_15_7","https://hz8g1ckzuq.cognition.run/","en-US,en;q=0.9","rh6qq0bcfjbxgkd","29","[""White""]","No","Male","2729608.300000012","8932","","","{""price_1"":""600"",""price_2"":""550"",""price_3"":""600""}","rating","cdt","attraction_1","1","laptops","null","null","null","null","null","null","2","60","50","60","50","60","45","Processing speed","Memory (RAM)","",""
"","","","","","rating_trial_setup","html-keyboard-response","55","1853660","0.0-3.0-0.26","70","1","2025-04-11 14:31:46","bb671e3ae32f654b8954ea4c4635f915","","Mozilla/5.0 (Macintosh; Intel Mac OS X 10_15_7) AppleWebKit/537.36 (KHTML, like Gecko) Chrome/134.0.0.0 Safari/537.36","Macintosh","Chrome","134.0.0.0","OS X","10_15_7","https://hz8g1ckzuq.cognition.run/","en-US,en;q=0.9","rh6qq0bcfjbxgkd","29","[""White""]","No","Male","2729608.300000012","null","","<p></p>","null","rating","tcd","repulsion_2","1","laptops","null","null","null","null","null","null","2","","","","","","","","","",""
"","","","","","rating_trial","survey-html-form","56","1868820","0.0-3.0-1.26","70","1","2025-04-11 14:31:46","bb671e3ae32f654b8954ea4c4635f915","","Mozilla/5.0 (Macintosh; Intel Mac OS X 10_15_7) AppleWebKit/537.36 (KHTML, like Gecko) Chrome/134.0.0.0 Safari/537.36","Macintosh","Chrome","134.0.0.0","OS X","10_15_7","https://hz8g1ckzuq.cognition.run/","en-US,en;q=0.9","rh6qq0bcfjbxgkd","29","[""White""]","No","Male","2729608.300000012","15155","","","{""price_1"":""700"",""price_2"":""725"",""price_3"":""500""}","rating","tcd","repulsion_2","1","laptops","null","null","null","null","null","null","2","100","90","100","30","40","20","Processing speed","Memory (RAM)","",""
"","","","","","rating_trial_setup","html-keyboard-response","57","1869125","0.0-3.0-0.27","70","1","2025-04-11 14:31:46","bb671e3ae32f654b8954ea4c4635f915","","Mozilla/5.0 (Macintosh; Intel Mac OS X 10_15_7) AppleWebKit/537.36 (KHTML, like Gecko) Chrome/134.0.0.0 Safari/537.36","Macintosh","Chrome","134.0.0.0","OS X","10_15_7","https://hz8g1ckzuq.cognition.run/","en-US,en;q=0.9","rh6qq0bcfjbxgkd","29","[""White""]","No","Male","2729608.300000012","null","","<p></p>","null","rating","dtc","attraction_2","2","microwave ovens","null","null","null","null","null","null","1","","","","","","","","","",""
"","","","","","rating_trial","survey-html-form","58","2202418","0.0-3.0-1.27","70","1","2025-04-11 14:31:46","bb671e3ae32f654b8954ea4c4635f915","","Mozilla/5.0 (Macintosh; Intel Mac OS X 10_15_7) AppleWebKit/537.36 (KHTML, like Gecko) Chrome/134.0.0.0 Safari/537.36","Macintosh","Chrome","134.0.0.0","OS X","10_15_7","https://hz8g1ckzuq.cognition.run/","en-US,en;q=0.9","rh6qq0bcfjbxgkd","29","[""White""]","No","Male","2729608.300000012","333286","","","{""price_1"":""70"",""price_2"":""80"",""price_3"":""80""}","rating","dtc","attraction_2","2","microwave ovens","null","null","null","null","null","null","1","50","60","40","60","50","60","Warranty","Cooking power","",""
"","","","","","rating_trial_setup","html-keyboard-response","59","2202722","0.0-3.0-0.28","70","1","2025-04-11 14:31:46","bb671e3ae32f654b8954ea4c4635f915","","Mozilla/5.0 (Macintosh; Intel Mac OS X 10_15_7) AppleWebKit/537.36 (KHTML, like Gecko) Chrome/134.0.0.0 Safari/537.36","Macintosh","Chrome","134.0.0.0","OS X","10_15_7","https://hz8g1ckzuq.cognition.run/","en-US,en;q=0.9","rh6qq0bcfjbxgkd","29","[""White""]","No","Male","2729608.300000012","null","","<p></p>","null","rating","bww","catch","null","microwave ovens","85","50","50","15","15","50","2","","","","","","","","","",""
"","","","","","rating_trial","survey-html-form","60","2242399","0.0-3.0-1.28","70","1","2025-04-11 14:31:46","bb671e3ae32f654b8954ea4c4635f915","","Mozilla/5.0 (Macintosh; Intel Mac OS X 10_15_7) AppleWebKit/537.36 (KHTML, like Gecko) Chrome/134.0.0.0 Safari/537.36","Macintosh","Chrome","134.0.0.0","OS X","10_15_7","https://hz8g1ckzuq.cognition.run/","en-US,en;q=0.9","rh6qq0bcfjbxgkd","29","[""White""]","No","Male","2729608.300000012","39671","","","{""price_1"":""70"",""price_2"":""25"",""price_3"":""40""}","rating","bww","catch","null","microwave ovens","85","50","50","15","15","50","2","null","null","null","null","null","null","Warranty","Cooking power","",""
"","","","","","rating_trial_setup","html-keyboard-response","61","2242704","0.0-3.0-0.29","70","1","2025-04-11 14:31:46","bb671e3ae32f654b8954ea4c4635f915","","Mozilla/5.0 (Macintosh; Intel Mac OS X 10_15_7) AppleWebKit/537.36 (KHTML, like Gecko) Chrome/134.0.0.0 Safari/537.36","Macintosh","Chrome","134.0.0.0","OS X","10_15_7","https://hz8g1ckzuq.cognition.run/","en-US,en;q=0.9","rh6qq0bcfjbxgkd","29","[""White""]","No","Male","2729608.300000012","null","","<p></p>","null","rating","cdt","attraction_1","2","microwave ovens","null","null","null","null","null","null","2","","","","","","","","","",""
"","","","","","rating_trial","survey-html-form","62","2249151","0.0-3.0-1.29","70","1","2025-04-11 14:31:46","bb671e3ae32f654b8954ea4c4635f915","","Mozilla/5.0 (Macintosh; Intel Mac OS X 10_15_7) AppleWebKit/537.36 (KHTML, like Gecko) Chrome/134.0.0.0 Safari/537.36","Macintosh","Chrome","134.0.0.0","OS X","10_15_7","https://hz8g1ckzuq.cognition.run/","en-US,en;q=0.9","rh6qq0bcfjbxgkd","29","[""White""]","No","Male","2729608.300000012","6441","","","{""price_1"":""80"",""price_2"":""70"",""price_3"":""80""}","rating","cdt","attraction_1","2","microwave ovens","null","null","null","null","null","null","2","50","60","45","60","50","60","Warranty","Cooking power","",""
"","","","","","rating_trial_setup","html-keyboard-response","63","2249456","0.0-3.0-0.30","70","1","2025-04-11 14:31:46","bb671e3ae32f654b8954ea4c4635f915","","Mozilla/5.0 (Macintosh; Intel Mac OS X 10_15_7) AppleWebKit/537.36 (KHTML, like Gecko) Chrome/134.0.0.0 Safari/537.36","Macintosh","Chrome","134.0.0.0","OS X","10_15_7","https://hz8g1ckzuq.cognition.run/","en-US,en;q=0.9","rh6qq0bcfjbxgkd","29","[""White""]","No","Male","2729608.300000012","null","","<p></p>","null","rating","tcd","repulsion_2","1","washing machines","null","null","null","null","null","null","2","","","","","","","","","",""
"","","","","","rating_trial","survey-html-form","64","2259299","0.0-3.0-1.30","70","1","2025-04-11 14:31:46","bb671e3ae32f654b8954ea4c4635f915","","Mozilla/5.0 (Macintosh; Intel Mac OS X 10_15_7) AppleWebKit/537.36 (KHTML, like Gecko) Chrome/134.0.0.0 Safari/537.36","Macintosh","Chrome","134.0.0.0","OS X","10_15_7","https://hz8g1ckzuq.cognition.run/","en-US,en;q=0.9","rh6qq0bcfjbxgkd","29","[""White""]","No","Male","2729608.300000012","9841","","","{""price_1"":""600"",""price_2"":""700"",""price_3"":""500""}","rating","tcd","repulsion_2","1","washing machines","null","null","null","null","null","null","2","100","90","100","30","40","20","Average lifespan","Energy savings","",""
"","","","","","rating_trial_setup","html-keyboard-response","65","2259604","0.0-3.0-0.31","70","1","2025-04-11 14:31:46","bb671e3ae32f654b8954ea4c4635f915","","Mozilla/5.0 (Macintosh; Intel Mac OS X 10_15_7) AppleWebKit/537.36 (KHTML, like Gecko) Chrome/134.0.0.0 Safari/537.36","Macintosh","Chrome","134.0.0.0","OS X","10_15_7","https://hz8g1ckzuq.cognition.run/","en-US,en;q=0.9","rh6qq0bcfjbxgkd","29","[""White""]","No","Male","2729608.300000012","null","","<p></p>","null","rating","wbw","catch","null","laptops","50","50","40","15","20","45","2","","","","","","","","","",""
"","","","","","rating_trial","survey-html-form","66","2281099","0.0-3.0-1.31","70","1","2025-04-11 14:31:46","bb671e3ae32f654b8954ea4c4635f915","","Mozilla/5.0 (Macintosh; Intel Mac OS X 10_15_7) AppleWebKit/537.36 (KHTML, like Gecko) Chrome/134.0.0.0 Safari/537.36","Macintosh","Chrome","134.0.0.0","OS X","10_15_7","https://hz8g1ckzuq.cognition.run/","en-US,en;q=0.9","rh6qq0bcfjbxgkd","29","[""White""]","No","Male","2729608.300000012","21488","","","{""price_1"":""350"",""price_2"":""550"",""price_3"":""400""}","rating","wbw","catch","null","laptops","50","50","40","15","20","45","2","null","null","null","null","null","null","Processing speed","Memory (RAM)","",""
"","","","","","rating_trial_setup","html-keyboard-response","67","2281404","0.0-3.0-0.32","70","1","2025-04-11 14:31:46","bb671e3ae32f654b8954ea4c4635f915","","Mozilla/5.0 (Macintosh; Intel Mac OS X 10_15_7) AppleWebKit/537.36 (KHTML, like Gecko) Chrome/134.0.0.0 Safari/537.36","Macintosh","Chrome","134.0.0.0","OS X","10_15_7","https://hz8g1ckzuq.cognition.run/","en-US,en;q=0.9","rh6qq0bcfjbxgkd","29","[""White""]","No","Male","2729608.300000012","null","","<p></p>","null","rating","wwb","catch","null","televisions","90","90","30","20","5","15","1","","","","","","","","","",""
"","","","","","rating_trial","survey-html-form","68","2354289","0.0-3.0-1.32","70","1","2025-04-11 14:31:46","bb671e3ae32f654b8954ea4c4635f915","","Mozilla/5.0 (Macintosh; Intel Mac OS X 10_15_7) AppleWebKit/537.36 (KHTML, like Gecko) Chrome/134.0.0.0 Safari/537.36","Macintosh","Chrome","134.0.0.0","OS X","10_15_7","https://hz8g1ckzuq.cognition.run/","en-US,en;q=0.9","rh6qq0bcfjbxgkd","29","[""White""]","No","Male","2729608.300000012","72881","","","{""price_1"":""400"",""price_2"":""80"",""price_3"":""2000""}","rating","wwb","catch","null","televisions","90","90","30","20","5","15","1","null","null","null","null","null","null","Screen size","Average lifespan","",""
"","","","","","rating_trial_setup","html-keyboard-response","69","2354595","0.0-3.0-0.33","70","1","2025-04-11 14:31:46","bb671e3ae32f654b8954ea4c4635f915","","Mozilla/5.0 (Macintosh; Intel Mac OS X 10_15_7) AppleWebKit/537.36 (KHTML, like Gecko) Chrome/134.0.0.0 Safari/537.36","Macintosh","Chrome","134.0.0.0","OS X","10_15_7","https://hz8g1ckzuq.cognition.run/","en-US,en;q=0.9","rh6qq0bcfjbxgkd","29","[""White""]","No","Male","2729608.300000012","null","","<p></p>","null","rating","tdc","attraction_1","2","laptops","null","null","null","null","null","null","1","","","","","","","","","",""
"","","","","","rating_trial","survey-html-form","70","2372964","0.0-3.0-1.33","70","1","2025-04-11 14:31:46","bb671e3ae32f654b8954ea4c4635f915","","Mozilla/5.0 (Macintosh; Intel Mac OS X 10_15_7) AppleWebKit/537.36 (KHTML, like Gecko) Chrome/134.0.0.0 Safari/537.36","Macintosh","Chrome","134.0.0.0","OS X","10_15_7","https://hz8g1ckzuq.cognition.run/","en-US,en;q=0.9","rh6qq0bcfjbxgkd","29","[""White""]","No","Male","2729608.300000012","18363","","","{""price_1"":""700"",""price_2"":""675"",""price_3"":""700""}","rating","tdc","attraction_1","2","laptops","null","null","null","null","null","null","1","50","60","45","60","50","60","Processing speed","Memory (RAM)","",""
"","","","","","rating_trial_setup","html-keyboard-response","71","2373270","0.0-3.0-0.34","70","1","2025-04-11 14:31:46","bb671e3ae32f654b8954ea4c4635f915","","Mozilla/5.0 (Macintosh; Intel Mac OS X 10_15_7) AppleWebKit/537.36 (KHTML, like Gecko) Chrome/134.0.0.0 Safari/537.36","Macintosh","Chrome","134.0.0.0","OS X","10_15_7","https://hz8g1ckzuq.cognition.run/","en-US,en;q=0.9","rh6qq0bcfjbxgkd","29","[""White""]","No","Male","2729608.300000012","null","","<p></p>","null","rating","wbw","catch","null","laptops","70","95","35","35","50","40","2","","","","","","","","","",""
"","","","","","rating_trial","survey-html-form","72","2395705","0.0-3.0-1.34","70","1","2025-04-11 14:31:46","bb671e3ae32f654b8954ea4c4635f915","","Mozilla/5.0 (Macintosh; Intel Mac OS X 10_15_7) AppleWebKit/537.36 (KHTML, like Gecko) Chrome/134.0.0.0 Safari/537.36","Macintosh","Chrome","134.0.0.0","OS X","10_15_7","https://hz8g1ckzuq.cognition.run/","en-US,en;q=0.9","rh6qq0bcfjbxgkd","29","[""White""]","No","Male","2729608.300000012","22429","","","{""price_1"":""300"",""price_2"":""1100"",""price_3"":""600""}","rating","wbw","catch","null","laptops","70","95","35","35","50","40","2","null","null","null","null","null","null","Processing speed","Memory (RAM)","",""
"","","","","","rating_trial_setup","html-keyboard-response","73","2396010","0.0-3.0-0.35","70","1","2025-04-11 14:31:46","bb671e3ae32f654b8954ea4c4635f915","","Mozilla/5.0 (Macintosh; Intel Mac OS X 10_15_7) AppleWebKit/537.36 (KHTML, like Gecko) Chrome/134.0.0.0 Safari/537.36","Macintosh","Chrome","134.0.0.0","OS X","10_15_7","https://hz8g1ckzuq.cognition.run/","en-US,en;q=0.9","rh6qq0bcfjbxgkd","29","[""White""]","No","Male","2729608.300000012","null","","<p></p>","null","rating","ctd","attraction_1","1","televisions","null","null","null","null","null","null","2","","","","","","","","","",""
"","","","","","rating_trial","survey-html-form","74","2407556","0.0-3.0-1.35","70","1","2025-04-11 14:31:46","bb671e3ae32f654b8954ea4c4635f915","","Mozilla/5.0 (Macintosh; Intel Mac OS X 10_15_7) AppleWebKit/537.36 (KHTML, like Gecko) Chrome/134.0.0.0 Safari/537.36","Macintosh","Chrome","134.0.0.0","OS X","10_15_7","https://hz8g1ckzuq.cognition.run/","en-US,en;q=0.9","rh6qq0bcfjbxgkd","29","[""White""]","No","Male","2729608.300000012","11539","","","{""price_1"":""600"",""price_2"":""600"",""price_3"":""575""}","rating","ctd","attraction_1","1","televisions","null","null","null","null","null","null","2","60","50","60","50","60","45","Screen size","Average lifespan","",""
"","","","","","rating_trial_setup","html-keyboard-response","75","2407861","0.0-3.0-0.36","70","1","2025-04-11 14:31:46","bb671e3ae32f654b8954ea4c4635f915","","Mozilla/5.0 (Macintosh; Intel Mac OS X 10_15_7) AppleWebKit/537.36 (KHTML, like Gecko) Chrome/134.0.0.0 Safari/537.36","Macintosh","Chrome","134.0.0.0","OS X","10_15_7","https://hz8g1ckzuq.cognition.run/","en-US,en;q=0.9","rh6qq0bcfjbxgkd","29","[""White""]","No","Male","2729608.300000012","null","","<p></p>","null","rating","dtc","repulsion_1","1","washing machines","null","null","null","null","null","null","2","","","","","","","","","",""
"","","","","","rating_trial","survey-html-form","76","2422349","0.0-3.0-1.36","70","1","2025-04-11 14:31:46","bb671e3ae32f654b8954ea4c4635f915","","Mozilla/5.0 (Macintosh; Intel Mac OS X 10_15_7) AppleWebKit/537.36 (KHTML, like Gecko) Chrome/134.0.0.0 Safari/537.36","Macintosh","Chrome","134.0.0.0","OS X","10_15_7","https://hz8g1ckzuq.cognition.run/","en-US,en;q=0.9","rh6qq0bcfjbxgkd","29","[""White""]","No","Male","2729608.300000012","14484","","","{""price_1"":""600"",""price_2"":""625"",""price_3"":""700""}","rating","dtc","repulsion_1","1","washing machines","null","null","null","null","null","null","2","100","90","100","30","40","25","Average lifespan","Energy savings","",""
"","","","","","rating_trial_setup","html-keyboard-response","77","2422654","0.0-3.0-0.37","70","1","2025-04-11 14:31:46","bb671e3ae32f654b8954ea4c4635f915","","Mozilla/5.0 (Macintosh; Intel Mac OS X 10_15_7) AppleWebKit/537.36 (KHTML, like Gecko) Chrome/134.0.0.0 Safari/537.36","Macintosh","Chrome","134.0.0.0","OS X","10_15_7","https://hz8g1ckzuq.cognition.run/","en-US,en;q=0.9","rh6qq0bcfjbxgkd","29","[""White""]","No","Male","2729608.300000012","null","","<p></p>","null","rating","tdc","repulsion_2","2","televisions","null","null","null","null","null","null","2","","","","","","","","","",""
"","","","","","rating_trial","survey-html-form","78","2470914","0.0-3.0-1.37","70","1","2025-04-11 14:31:46","bb671e3ae32f654b8954ea4c4635f915","","Mozilla/5.0 (Macintosh; Intel Mac OS X 10_15_7) AppleWebKit/537.36 (KHTML, like Gecko) Chrome/134.0.0.0 Safari/537.36","Macintosh","Chrome","134.0.0.0","OS X","10_15_7","https://hz8g1ckzuq.cognition.run/","en-US,en;q=0.9","rh6qq0bcfjbxgkd","29","[""White""]","No","Male","2729608.300000012","48254","","","{""price_1"":""450"",""price_2"":""400"",""price_3"":""500""}","rating","tdc","repulsion_2","2","televisions","null","null","null","null","null","null","2","30","40","20","100","90","100","Screen size","Average lifespan","",""
"","","","","","rating_trial_setup","html-keyboard-response","79","2471220","0.0-3.0-0.38","70","1","2025-04-11 14:31:46","bb671e3ae32f654b8954ea4c4635f915","","Mozilla/5.0 (Macintosh; Intel Mac OS X 10_15_7) AppleWebKit/537.36 (KHTML, like Gecko) Chrome/134.0.0.0 Safari/537.36","Macintosh","Chrome","134.0.0.0","OS X","10_15_7","https://hz8g1ckzuq.cognition.run/","en-US,en;q=0.9","rh6qq0bcfjbxgkd","29","[""White""]","No","Male","2729608.300000012","null","","<p></p>","null","rating","ctd","repulsion_1","2","laptops","null","null","null","null","null","null","1","","","","","","","","","",""
"","","","","","rating_trial","survey-html-form","80","2484931","0.0-3.0-1.38","70","1","2025-04-11 14:31:46","bb671e3ae32f654b8954ea4c4635f915","","Mozilla/5.0 (Macintosh; Intel Mac OS X 10_15_7) AppleWebKit/537.36 (KHTML, like Gecko) Chrome/134.0.0.0 Safari/537.36","Macintosh","Chrome","134.0.0.0","OS X","10_15_7","https://hz8g1ckzuq.cognition.run/","en-US,en;q=0.9","rh6qq0bcfjbxgkd","29","[""White""]","No","Male","2729608.300000012","13707","","","{""price_1"":""700"",""price_2"":""700"",""price_3"":""650""}","rating","ctd","repulsion_1","2","laptops","null","null","null","null","null","null","1","30","40","25","100","90","100","Processing speed","Memory (RAM)","",""
"","","","","","rating_trial_setup","html-keyboard-response","81","2485235","0.0-3.0-0.39","70","1","2025-04-11 14:31:46","bb671e3ae32f654b8954ea4c4635f915","","Mozilla/5.0 (Macintosh; Intel Mac OS X 10_15_7) AppleWebKit/537.36 (KHTML, like Gecko) Chrome/134.0.0.0 Safari/537.36","Macintosh","Chrome","134.0.0.0","OS X","10_15_7","https://hz8g1ckzuq.cognition.run/","en-US,en;q=0.9","rh6qq0bcfjbxgkd","29","[""White""]","No","Male","2729608.300000012","null","","<p></p>","null","rating","dtc","repulsion_2","2","laptops","null","null","null","null","null","null","2","","","","","","","","","",""
"","","","","","rating_trial","survey-html-form","82","2571832","0.0-3.0-1.39","70","1","2025-04-11 14:31:46","bb671e3ae32f654b8954ea4c4635f915","","Mozilla/5.0 (Macintosh; Intel Mac OS X 10_15_7) AppleWebKit/537.36 (KHTML, like Gecko) Chrome/134.0.0.0 Safari/537.36","Macintosh","Chrome","134.0.0.0","OS X","10_15_7","https://hz8g1ckzuq.cognition.run/","en-US,en;q=0.9","rh6qq0bcfjbxgkd","29","[""White""]","No","Male","2729608.300000012","86591","","","{""price_1"":""550"",""price_2"":""600"",""price_3"":""600""}","rating","dtc","repulsion_2","2","laptops","null","null","null","null","null","null","2","30","40","20","100","90","100","Processing speed","Memory (RAM)","",""
"","","","","","","instructions","83","2586533","0.0-4.0","70","1","2025-04-11 14:31:46","bb671e3ae32f654b8954ea4c4635f915","","Mozilla/5.0 (Macintosh; Intel Mac OS X 10_15_7) AppleWebKit/537.36 (KHTML, like Gecko) Chrome/134.0.0.0 Safari/537.36","Macintosh","Chrome","134.0.0.0","OS X","10_15_7","https://hz8g1ckzuq.cognition.run/","en-US,en;q=0.9","rh6qq0bcfjbxgkd","29","[""White""]","No","Male","2729608.300000012","14696","[{""page_index"":0,""viewing_time"":1075},{""page_index"":1,""viewing_time"":935},{""page_index"":2,""viewing_time"":1300},{""page_index"":3,""viewing_time"":869},{""page_index"":4,""viewing_time"":810},{""page_index"":5,""viewing_time"":1005},{""page_index"":6,""viewing_time"":4605},{""page_index"":7,""viewing_time"":1711},{""page_index"":6,""viewing_time"":1471},{""page_index"":7,""viewing_time"":913}]","","","","","","","","","","","","","","","","","","","","","","","",""
"","","","","","choice_trial_setup","html-keyboard-response","84","2586838","0.0-5.0-0.0","70","1","2025-04-11 14:31:46","bb671e3ae32f654b8954ea4c4635f915","","Mozilla/5.0 (Macintosh; Intel Mac OS X 10_15_7) AppleWebKit/537.36 (KHTML, like Gecko) Chrome/134.0.0.0 Safari/537.36","Macintosh","Chrome","134.0.0.0","OS X","10_15_7","https://hz8g1ckzuq.cognition.run/","en-US,en;q=0.9","rh6qq0bcfjbxgkd","29","[""White""]","No","Male","2729608.300000012","null","","<p></p>","null","choice","tdc","repulsion_1","1","washing machines","null","null","null","null","null","null","1","","","","","","","","","",""
"","","","","","choice_trial","survey-html-form","85","2593706","0.0-5.0-1.0","70","1","2025-04-11 14:31:46","bb671e3ae32f654b8954ea4c4635f915","","Mozilla/5.0 (Macintosh; Intel Mac OS X 10_15_7) AppleWebKit/537.36 (KHTML, like Gecko) Chrome/134.0.0.0 Safari/537.36","Macintosh","Chrome","134.0.0.0","OS X","10_15_7","https://hz8g1ckzuq.cognition.run/","en-US,en;q=0.9","rh6qq0bcfjbxgkd","29","[""White""]","No","Male","2729608.300000012","6862","","","{""product_choice"":""C""}","choice","tdc","repulsion_1","1","washing machines","null","null","null","null","null","null","1","100","90","100","30","40","25","Average lifespan","Energy savings","",""
"","","","","","choice_trial_setup","html-keyboard-response","86","2594012","0.0-5.0-0.1","70","1","2025-04-11 14:31:46","bb671e3ae32f654b8954ea4c4635f915","","Mozilla/5.0 (Macintosh; Intel Mac OS X 10_15_7) AppleWebKit/537.36 (KHTML, like Gecko) Chrome/134.0.0.0 Safari/537.36","Macintosh","Chrome","134.0.0.0","OS X","10_15_7","https://hz8g1ckzuq.cognition.run/","en-US,en;q=0.9","rh6qq0bcfjbxgkd","29","[""White""]","No","Male","2729608.300000012","null","","<p></p>","null","choice","dct","attraction_1","1","microwave ovens","null","null","null","null","null","null","1","","","","","","","","","",""
"","","","","","choice_trial","survey-html-form","87","2596298","0.0-5.0-1.1","70","1","2025-04-11 14:31:46","bb671e3ae32f654b8954ea4c4635f915","","Mozilla/5.0 (Macintosh; Intel Mac OS X 10_15_7) AppleWebKit/537.36 (KHTML, like Gecko) Chrome/134.0.0.0 Safari/537.36","Macintosh","Chrome","134.0.0.0","OS X","10_15_7","https://hz8g1ckzuq.cognition.run/","en-US,en;q=0.9","rh6qq0bcfjbxgkd","29","[""White""]","No","Male","2729608.300000012","2280","","","{""product_choice"":""C""}","choice","dct","attraction_1","1","microwave ovens","null","null","null","null","null","null","1","60","50","60","50","60","45","Warranty","Cooking power","",""
"","","","","","choice_trial_setup","html-keyboard-response","88","2596603","0.0-5.0-0.2","70","1","2025-04-11 14:31:46","bb671e3ae32f654b8954ea4c4635f915","","Mozilla/5.0 (Macintosh; Intel Mac OS X 10_15_7) AppleWebKit/537.36 (KHTML, like Gecko) Chrome/134.0.0.0 Safari/537.36","Macintosh","Chrome","134.0.0.0","OS X","10_15_7","https://hz8g1ckzuq.cognition.run/","en-US,en;q=0.9","rh6qq0bcfjbxgkd","29","[""White""]","No","Male","2729608.300000012","null","","<p></p>","null","choice","dtc","repulsion_1","1","televisions","null","null","null","null","null","null","2","","","","","","","","","",""
"","","","","","choice_trial","survey-html-form","89","2598772","0.0-5.0-1.2","70","1","2025-04-11 14:31:46","bb671e3ae32f654b8954ea4c4635f915","","Mozilla/5.0 (Macintosh; Intel Mac OS X 10_15_7) AppleWebKit/537.36 (KHTML, like Gecko) Chrome/134.0.0.0 Safari/537.36","Macintosh","Chrome","134.0.0.0","OS X","10_15_7","https://hz8g1ckzuq.cognition.run/","en-US,en;q=0.9","rh6qq0bcfjbxgkd","29","[""White""]","No","Male","2729608.300000012","2163","","","{""product_choice"":""C""}","choice","dtc","repulsion_1","1","televisions","null","null","null","null","null","null","2","100","90","100","30","40","25","Screen size","Average lifespan","",""
"","","","","","choice_trial_setup","html-keyboard-response","90","2599078","0.0-5.0-0.3","70","1","2025-04-11 14:31:46","bb671e3ae32f654b8954ea4c4635f915","","Mozilla/5.0 (Macintosh; Intel Mac OS X 10_15_7) AppleWebKit/537.36 (KHTML, like Gecko) Chrome/134.0.0.0 Safari/537.36","Macintosh","Chrome","134.0.0.0","OS X","10_15_7","https://hz8g1ckzuq.cognition.run/","en-US,en;q=0.9","rh6qq0bcfjbxgkd","29","[""White""]","No","Male","2729608.300000012","null","","<p></p>","null","choice","wwb","catch","null","washing machines","90","60","40","40","35","10","1","","","","","","","","","",""
"","","","","","choice_trial","survey-html-form","91","2600888","0.0-5.0-1.3","70","1","2025-04-11 14:31:46","bb671e3ae32f654b8954ea4c4635f915","","Mozilla/5.0 (Macintosh; Intel Mac OS X 10_15_7) AppleWebKit/537.36 (KHTML, like Gecko) Chrome/134.0.0.0 Safari/537.36","Macintosh","Chrome","134.0.0.0","OS X","10_15_7","https://hz8g1ckzuq.cognition.run/","en-US,en;q=0.9","rh6qq0bcfjbxgkd","29","[""White""]","No","Male","2729608.300000012","1802","","","{""product_choice"":""C""}","choice","wwb","catch","null","washing machines","90","60","40","40","35","10","1","null","null","null","null","null","null","Average lifespan","Energy savings","",""
"","","","","","choice_trial_setup","html-keyboard-response","92","2601193","0.0-5.0-0.4","70","1","2025-04-11 14:31:46","bb671e3ae32f654b8954ea4c4635f915","","Mozilla/5.0 (Macintosh; Intel Mac OS X 10_15_7) AppleWebKit/537.36 (KHTML, like Gecko) Chrome/134.0.0.0 Safari/537.36","Macintosh","Chrome","134.0.0.0","OS X","10_15_7","https://hz8g1ckzuq.cognition.run/","en-US,en;q=0.9","rh6qq0bcfjbxgkd","29","[""White""]","No","Male","2729608.300000012","null","","<p></p>","null","choice","dct","repulsion_1","2","televisions","null","null","null","null","null","null","1","","","","","","","","","",""
"","","","","","choice_trial","survey-html-form","93","2605815","0.0-5.0-1.4","70","1","2025-04-11 14:31:46","bb671e3ae32f654b8954ea4c4635f915","","Mozilla/5.0 (Macintosh; Intel Mac OS X 10_15_7) AppleWebKit/537.36 (KHTML, like Gecko) Chrome/134.0.0.0 Safari/537.36","Macintosh","Chrome","134.0.0.0","OS X","10_15_7","https://hz8g1ckzuq.cognition.run/","en-US,en;q=0.9","rh6qq0bcfjbxgkd","29","[""White""]","No","Male","2729608.300000012","4615","","","{""product_choice"":""B""}","choice","dct","repulsion_1","2","televisions","null","null","null","null","null","null","1","30","40","25","100","90","100","Screen size","Average lifespan","",""
"","","","","","choice_trial_setup","html-keyboard-response","94","2606121","0.0-5.0-0.5","70","1","2025-04-11 14:31:46","bb671e3ae32f654b8954ea4c4635f915","","Mozilla/5.0 (Macintosh; Intel Mac OS X 10_15_7) AppleWebKit/537.36 (KHTML, like Gecko) Chrome/134.0.0.0 Safari/537.36","Macintosh","Chrome","134.0.0.0","OS X","10_15_7","https://hz8g1ckzuq.cognition.run/","en-US,en;q=0.9","rh6qq0bcfjbxgkd","29","[""White""]","No","Male","2729608.300000012","null","","<p></p>","null","choice","ctd","attraction_2","1","televisions","null","null","null","null","null","null","2","","","","","","","","","",""
"","","","","","choice_trial","survey-html-form","95","2610565","0.0-5.0-1.5","70","1","2025-04-11 14:31:46","bb671e3ae32f654b8954ea4c4635f915","","Mozilla/5.0 (Macintosh; Intel Mac OS X 10_15_7) AppleWebKit/537.36 (KHTML, like Gecko) Chrome/134.0.0.0 Safari/537.36","Macintosh","Chrome","134.0.0.0","OS X","10_15_7","https://hz8g1ckzuq.cognition.run/","en-US,en;q=0.9","rh6qq0bcfjbxgkd","29","[""White""]","No","Male","2729608.300000012","4437","","","{""product_choice"":""B""}","choice","ctd","attraction_2","1","televisions","null","null","null","null","null","null","2","60","50","60","50","60","40","Screen size","Average lifespan","",""
"","","","","","choice_trial_setup","html-keyboard-response","96","2610871","0.0-5.0-0.6","70","1","2025-04-11 14:31:46","bb671e3ae32f654b8954ea4c4635f915","","Mozilla/5.0 (Macintosh; Intel Mac OS X 10_15_7) AppleWebKit/537.36 (KHTML, like Gecko) Chrome/134.0.0.0 Safari/537.36","Macintosh","Chrome","134.0.0.0","OS X","10_15_7","https://hz8g1ckzuq.cognition.run/","en-US,en;q=0.9","rh6qq0bcfjbxgkd","29","[""White""]","No","Male","2729608.300000012","null","","<p></p>","null","choice","dct","attraction_1","2","washing machines","null","null","null","null","null","null","2","","","","","","","","","",""
"","","","","","choice_trial","survey-html-form","97","2613070","0.0-5.0-1.6","70","1","2025-04-11 14:31:46","bb671e3ae32f654b8954ea4c4635f915","","Mozilla/5.0 (Macintosh; Intel Mac OS X 10_15_7) AppleWebKit/537.36 (KHTML, like Gecko) Chrome/134.0.0.0 Safari/537.36","Macintosh","Chrome","134.0.0.0","OS X","10_15_7","https://hz8g1ckzuq.cognition.run/","en-US,en;q=0.9","rh6qq0bcfjbxgkd","29","[""White""]","No","Male","2729608.300000012","2192","","","{""product_choice"":""B""}","choice","dct","attraction_1","2","washing machines","null","null","null","null","null","null","2","50","60","45","60","50","60","Average lifespan","Energy savings","",""
"","","","","","choice_trial_setup","html-keyboard-response","98","2613376","0.0-5.0-0.7","70","1","2025-04-11 14:31:46","bb671e3ae32f654b8954ea4c4635f915","","Mozilla/5.0 (Macintosh; Intel Mac OS X 10_15_7) AppleWebKit/537.36 (KHTML, like Gecko) Chrome/134.0.0.0 Safari/537.36","Macintosh","Chrome","134.0.0.0","OS X","10_15_7","https://hz8g1ckzuq.cognition.run/","en-US,en;q=0.9","rh6qq0bcfjbxgkd","29","[""White""]","No","Male","2729608.300000012","null","","<p></p>","null","choice","tdc","attraction_1","2","televisions","null","null","null","null","null","null","1","","","","","","","","","",""
"","","","","","choice_trial","survey-html-form","99","2615273","0.0-5.0-1.7","70","1","2025-04-11 14:31:46","bb671e3ae32f654b8954ea4c4635f915","","Mozilla/5.0 (Macintosh; Intel Mac OS X 10_15_7) AppleWebKit/537.36 (KHTML, like Gecko) Chrome/134.0.0.0 Safari/537.36","Macintosh","Chrome","134.0.0.0","OS X","10_15_7","https://hz8g1ckzuq.cognition.run/","en-US,en;q=0.9","rh6qq0bcfjbxgkd","29","[""White""]","No","Male","2729608.300000012","1891","","","{""product_choice"":""C""}","choice","tdc","attraction_1","2","televisions","null","null","null","null","null","null","1","50","60","45","60","50","60","Screen size","Average lifespan","",""
"","","","","","choice_trial_setup","html-keyboard-response","100","2615579","0.0-5.0-0.8","70","1","2025-04-11 14:31:46","bb671e3ae32f654b8954ea4c4635f915","","Mozilla/5.0 (Macintosh; Intel Mac OS X 10_15_7) AppleWebKit/537.36 (KHTML, like Gecko) Chrome/134.0.0.0 Safari/537.36","Macintosh","Chrome","134.0.0.0","OS X","10_15_7","https://hz8g1ckzuq.cognition.run/","en-US,en;q=0.9","rh6qq0bcfjbxgkd","29","[""White""]","No","Male","2729608.300000012","null","","<p></p>","null","choice","ctd","repulsion_1","1","laptops","null","null","null","null","null","null","1","","","","","","","","","",""
"","","","","","choice_trial","survey-html-form","101","2618604","0.0-5.0-1.8","70","1","2025-04-11 14:31:46","bb671e3ae32f654b8954ea4c4635f915","","Mozilla/5.0 (Macintosh; Intel Mac OS X 10_15_7) AppleWebKit/537.36 (KHTML, like Gecko) Chrome/134.0.0.0 Safari/537.36","Macintosh","Chrome","134.0.0.0","OS X","10_15_7","https://hz8g1ckzuq.cognition.run/","en-US,en;q=0.9","rh6qq0bcfjbxgkd","29","[""White""]","No","Male","2729608.300000012","3017","","","{""product_choice"":""B""}","choice","ctd","repulsion_1","1","laptops","null","null","null","null","null","null","1","100","90","100","30","40","25","Processing speed","Memory (RAM)","",""
"","","","","","choice_trial_setup","html-keyboard-response","102","2618909","0.0-5.0-0.9","70","1","2025-04-11 14:31:46","bb671e3ae32f654b8954ea4c4635f915","","Mozilla/5.0 (Macintosh; Intel Mac OS X 10_15_7) AppleWebKit/537.36 (KHTML, like Gecko) Chrome/134.0.0.0 Safari/537.36","Macintosh","Chrome","134.0.0.0","OS X","10_15_7","https://hz8g1ckzuq.cognition.run/","en-US,en;q=0.9","rh6qq0bcfjbxgkd","29","[""White""]","No","Male","2729608.300000012","null","","<p></p>","null","choice","tdc","repulsion_2","1","televisions","null","null","null","null","null","null","2","","","","","","","","","",""
"","","","","","choice_trial","survey-html-form","103","2621435","0.0-5.0-1.9","70","1","2025-04-11 14:31:46","bb671e3ae32f654b8954ea4c4635f915","","Mozilla/5.0 (Macintosh; Intel Mac OS X 10_15_7) AppleWebKit/537.36 (KHTML, like Gecko) Chrome/134.0.0.0 Safari/537.36","Macintosh","Chrome","134.0.0.0","OS X","10_15_7","https://hz8g1ckzuq.cognition.run/","en-US,en;q=0.9","rh6qq0bcfjbxgkd","29","[""White""]","No","Male","2729608.300000012","2522","","","{""product_choice"":""C""}","choice","tdc","repulsion_2","1","televisions","null","null","null","null","null","null","2","100","90","100","30","40","20","Screen size","Average lifespan","",""
"","","","","","choice_trial_setup","html-keyboard-response","104","2621738","0.0-5.0-0.10","70","1","2025-04-11 14:31:46","bb671e3ae32f654b8954ea4c4635f915","","Mozilla/5.0 (Macintosh; Intel Mac OS X 10_15_7) AppleWebKit/537.36 (KHTML, like Gecko) Chrome/134.0.0.0 Safari/537.36","Macintosh","Chrome","134.0.0.0","OS X","10_15_7","https://hz8g1ckzuq.cognition.run/","en-US,en;q=0.9","rh6qq0bcfjbxgkd","29","[""White""]","No","Male","2729608.300000012","null","","<p></p>","null","choice","tcd","attraction_2","1","microwave ovens","null","null","null","null","null","null","2","","","","","","","","","",""
"","","","","","choice_trial","survey-html-form","105","2623657","0.0-5.0-1.10","70","1","2025-04-11 14:31:46","bb671e3ae32f654b8954ea4c4635f915","","Mozilla/5.0 (Macintosh; Intel Mac OS X 10_15_7) AppleWebKit/537.36 (KHTML, like Gecko) Chrome/134.0.0.0 Safari/537.36","Macintosh","Chrome","134.0.0.0","OS X","10_15_7","https://hz8g1ckzuq.cognition.run/","en-US,en;q=0.9","rh6qq0bcfjbxgkd","29","[""White""]","No","Male","2729608.300000012","1917","","","{""product_choice"":""B""}","choice","tcd","attraction_2","1","microwave ovens","null","null","null","null","null","null","2","60","50","60","50","60","40","Warranty","Cooking power","",""
"","","","","","choice_trial_setup","html-keyboard-response","106","2623962","0.0-5.0-0.11","70","1","2025-04-11 14:31:46","bb671e3ae32f654b8954ea4c4635f915","","Mozilla/5.0 (Macintosh; Intel Mac OS X 10_15_7) AppleWebKit/537.36 (KHTML, like Gecko) Chrome/134.0.0.0 Safari/537.36","Macintosh","Chrome","134.0.0.0","OS X","10_15_7","https://hz8g1ckzuq.cognition.run/","en-US,en;q=0.9","rh6qq0bcfjbxgkd","29","[""White""]","No","Male","2729608.300000012","null","","<p></p>","null","choice","cdt","repulsion_1","2","washing machines","null","null","null","null","null","null","2","","","","","","","","","",""
"","","","","","choice_trial","survey-html-form","107","2626326","0.0-5.0-1.11","70","1","2025-04-11 14:31:46","bb671e3ae32f654b8954ea4c4635f915","","Mozilla/5.0 (Macintosh; Intel Mac OS X 10_15_7) AppleWebKit/537.36 (KHTML, like Gecko) Chrome/134.0.0.0 Safari/537.36","Macintosh","Chrome","134.0.0.0","OS X","10_15_7","https://hz8g1ckzuq.cognition.run/","en-US,en;q=0.9","rh6qq0bcfjbxgkd","29","[""White""]","No","Male","2729608.300000012","2360","","","{""product_choice"":""C""}","choice","cdt","repulsion_1","2","washing machines","null","null","null","null","null","null","2","30","40","25","100","90","100","Average lifespan","Energy savings","",""
"","","","","","choice_trial_setup","html-keyboard-response","108","2626631","0.0-5.0-0.12","70","1","2025-04-11 14:31:46","bb671e3ae32f654b8954ea4c4635f915","","Mozilla/5.0 (Macintosh; Intel Mac OS X 10_15_7) AppleWebKit/537.36 (KHTML, like Gecko) Chrome/134.0.0.0 Safari/537.36","Macintosh","Chrome","134.0.0.0","OS X","10_15_7","https://hz8g1ckzuq.cognition.run/","en-US,en;q=0.9","rh6qq0bcfjbxgkd","29","[""White""]","No","Male","2729608.300000012","null","","<p></p>","null","choice","dtc","attraction_2","2","televisions","null","null","null","null","null","null","2","","","","","","","","","",""
"","","","","","choice_trial","survey-html-form","109","2630077","0.0-5.0-1.12","70","1","2025-04-11 14:31:46","bb671e3ae32f654b8954ea4c4635f915","","Mozilla/5.0 (Macintosh; Intel Mac OS X 10_15_7) AppleWebKit/537.36 (KHTML, like Gecko) Chrome/134.0.0.0 Safari/537.36","Macintosh","Chrome","134.0.0.0","OS X","10_15_7","https://hz8g1ckzuq.cognition.run/","en-US,en;q=0.9","rh6qq0bcfjbxgkd","29","[""White""]","No","Male","2729608.300000012","3442","","","{""product_choice"":""B""}","choice","dtc","attraction_2","2","televisions","null","null","null","null","null","null","2","50","60","40","60","50","60","Screen size","Average lifespan","",""
"","","","","","choice_trial_setup","html-keyboard-response","110","2630382","0.0-5.0-0.13","70","1","2025-04-11 14:31:46","bb671e3ae32f654b8954ea4c4635f915","","Mozilla/5.0 (Macintosh; Intel Mac OS X 10_15_7) AppleWebKit/537.36 (KHTML, like Gecko) Chrome/134.0.0.0 Safari/537.36","Macintosh","Chrome","134.0.0.0","OS X","10_15_7","https://hz8g1ckzuq.cognition.run/","en-US,en;q=0.9","rh6qq0bcfjbxgkd","29","[""White""]","No","Male","2729608.300000012","null","","<p></p>","null","choice","ctd","repulsion_2","2","washing machines","null","null","null","null","null","null","1","","","","","","","","","",""
"","","","","","choice_trial","survey-html-form","111","2632865","0.0-5.0-1.13","70","1","2025-04-11 14:31:46","bb671e3ae32f654b8954ea4c4635f915","","Mozilla/5.0 (Macintosh; Intel Mac OS X 10_15_7) AppleWebKit/537.36 (KHTML, like Gecko) Chrome/134.0.0.0 Safari/537.36","Macintosh","Chrome","134.0.0.0","OS X","10_15_7","https://hz8g1ckzuq.cognition.run/","en-US,en;q=0.9","rh6qq0bcfjbxgkd","29","[""White""]","No","Male","2729608.300000012","2475","","","{""product_choice"":""B""}","choice","ctd","repulsion_2","2","washing machines","null","null","null","null","null","null","1","30","40","20","100","90","100","Average lifespan","Energy savings","",""
"","","","","","choice_trial_setup","html-keyboard-response","112","2633170","0.0-5.0-0.14","70","1","2025-04-11 14:31:46","bb671e3ae32f654b8954ea4c4635f915","","Mozilla/5.0 (Macintosh; Intel Mac OS X 10_15_7) AppleWebKit/537.36 (KHTML, like Gecko) Chrome/134.0.0.0 Safari/537.36","Macintosh","Chrome","134.0.0.0","OS X","10_15_7","https://hz8g1ckzuq.cognition.run/","en-US,en;q=0.9","rh6qq0bcfjbxgkd","29","[""White""]","No","Male","2729608.300000012","null","","<p></p>","null","choice","ctd","repulsion_2","1","microwave ovens","null","null","null","null","null","null","2","","","","","","","","","",""
"","","","","","choice_trial","survey-html-form","113","2642663","0.0-5.0-1.14","70","1","2025-04-11 14:31:46","bb671e3ae32f654b8954ea4c4635f915","","Mozilla/5.0 (Macintosh; Intel Mac OS X 10_15_7) AppleWebKit/537.36 (KHTML, like Gecko) Chrome/134.0.0.0 Safari/537.36","Macintosh","Chrome","134.0.0.0","OS X","10_15_7","https://hz8g1ckzuq.cognition.run/","en-US,en;q=0.9","rh6qq0bcfjbxgkd","29","[""White""]","No","Male","2729608.300000012","9487","","","{""product_choice"":""B""}","choice","ctd","repulsion_2","1","microwave ovens","null","null","null","null","null","null","2","100","90","100","30","40","20","Warranty","Cooking power","",""
"","","","","","choice_trial_setup","html-keyboard-response","114","2642969","0.0-5.0-0.15","70","1","2025-04-11 14:31:46","bb671e3ae32f654b8954ea4c4635f915","","Mozilla/5.0 (Macintosh; Intel Mac OS X 10_15_7) AppleWebKit/537.36 (KHTML, like Gecko) Chrome/134.0.0.0 Safari/537.36","Macintosh","Chrome","134.0.0.0","OS X","10_15_7","https://hz8g1ckzuq.cognition.run/","en-US,en;q=0.9","rh6qq0bcfjbxgkd","29","[""White""]","No","Male","2729608.300000012","null","","<p></p>","null","choice","tdc","attraction_1","1","washing machines","null","null","null","null","null","null","2","","","","","","","","","",""
"","","","","","choice_trial","survey-html-form","115","2644915","0.0-5.0-1.15","70","1","2025-04-11 14:31:46","bb671e3ae32f654b8954ea4c4635f915","","Mozilla/5.0 (Macintosh; Intel Mac OS X 10_15_7) AppleWebKit/537.36 (KHTML, like Gecko) Chrome/134.0.0.0 Safari/537.36","Macintosh","Chrome","134.0.0.0","OS X","10_15_7","https://hz8g1ckzuq.cognition.run/","en-US,en;q=0.9","rh6qq0bcfjbxgkd","29","[""White""]","No","Male","2729608.300000012","1937","","","{""product_choice"":""C""}","choice","tdc","attraction_1","1","washing machines","null","null","null","null","null","null","2","60","50","60","50","60","45","Average lifespan","Energy savings","",""
"","","","","","choice_trial_setup","html-keyboard-response","116","2645220","0.0-5.0-0.16","70","1","2025-04-11 14:31:46","bb671e3ae32f654b8954ea4c4635f915","","Mozilla/5.0 (Macintosh; Intel Mac OS X 10_15_7) AppleWebKit/537.36 (KHTML, like Gecko) Chrome/134.0.0.0 Safari/537.36","Macintosh","Chrome","134.0.0.0","OS X","10_15_7","https://hz8g1ckzuq.cognition.run/","en-US,en;q=0.9","rh6qq0bcfjbxgkd","29","[""White""]","No","Male","2729608.300000012","null","","<p></p>","null","choice","wbw","catch","null","televisions","90","90","35","40","45","30","1","","","","","","","","","",""
"","","","","","choice_trial","survey-html-form","117","2647103","0.0-5.0-1.16","70","1","2025-04-11 14:31:46","bb671e3ae32f654b8954ea4c4635f915","","Mozilla/5.0 (Macintosh; Intel Mac OS X 10_15_7) AppleWebKit/537.36 (KHTML, like Gecko) Chrome/134.0.0.0 Safari/537.36","Macintosh","Chrome","134.0.0.0","OS X","10_15_7","https://hz8g1ckzuq.cognition.run/","en-US,en;q=0.9","rh6qq0bcfjbxgkd","29","[""White""]","No","Male","2729608.300000012","1875","","","{""product_choice"":""B""}","choice","wbw","catch","null","televisions","90","90","35","40","45","30","1","null","null","null","null","null","null","Screen size","Average lifespan","",""
"","","","","","choice_trial_setup","html-keyboard-response","118","2647410","0.0-5.0-0.17","70","1","2025-04-11 14:31:46","bb671e3ae32f654b8954ea4c4635f915","","Mozilla/5.0 (Macintosh; Intel Mac OS X 10_15_7) AppleWebKit/537.36 (KHTML, like Gecko) Chrome/134.0.0.0 Safari/537.36","Macintosh","Chrome","134.0.0.0","OS X","10_15_7","https://hz8g1ckzuq.cognition.run/","en-US,en;q=0.9","rh6qq0bcfjbxgkd","29","[""White""]","No","Male","2729608.300000012","null","","<p></p>","null","choice","tdc","repulsion_2","1","washing machines","null","null","null","null","null","null","2","","","","","","","","","",""
"","","","","","choice_trial","survey-html-form","119","2649577","0.0-5.0-1.17","70","1","2025-04-11 14:31:46","bb671e3ae32f654b8954ea4c4635f915","","Mozilla/5.0 (Macintosh; Intel Mac OS X 10_15_7) AppleWebKit/537.36 (KHTML, like Gecko) Chrome/134.0.0.0 Safari/537.36","Macintosh","Chrome","134.0.0.0","OS X","10_15_7","https://hz8g1ckzuq.cognition.run/","en-US,en;q=0.9","rh6qq0bcfjbxgkd","29","[""White""]","No","Male","2729608.300000012","2160","","","{""product_choice"":""C""}","choice","tdc","repulsion_2","1","washing machines","null","null","null","null","null","null","2","100","90","100","30","40","20","Average lifespan","Energy savings","",""
"","","","","","choice_trial_setup","html-keyboard-response","120","2649886","0.0-5.0-0.18","70","1","2025-04-11 14:31:46","bb671e3ae32f654b8954ea4c4635f915","","Mozilla/5.0 (Macintosh; Intel Mac OS X 10_15_7) AppleWebKit/537.36 (KHTML, like Gecko) Chrome/134.0.0.0 Safari/537.36","Macintosh","Chrome","134.0.0.0","OS X","10_15_7","https://hz8g1ckzuq.cognition.run/","en-US,en;q=0.9","rh6qq0bcfjbxgkd","29","[""White""]","No","Male","2729608.300000012","null","","<p></p>","null","choice","tcd","attraction_2","2","microwave ovens","null","null","null","null","null","null","1","","","","","","","","","",""
"","","","","","choice_trial","survey-html-form","121","2653149","0.0-5.0-1.18","70","1","2025-04-11 14:31:46","bb671e3ae32f654b8954ea4c4635f915","","Mozilla/5.0 (Macintosh; Intel Mac OS X 10_15_7) AppleWebKit/537.36 (KHTML, like Gecko) Chrome/134.0.0.0 Safari/537.36","Macintosh","Chrome","134.0.0.0","OS X","10_15_7","https://hz8g1ckzuq.cognition.run/","en-US,en;q=0.9","rh6qq0bcfjbxgkd","29","[""White""]","No","Male","2729608.300000012","3255","","","{""product_choice"":""B""}","choice","tcd","attraction_2","2","microwave ovens","null","null","null","null","null","null","1","50","60","40","60","50","60","Warranty","Cooking power","",""
"","","","","","choice_trial_setup","html-keyboard-response","122","2653456","0.0-5.0-0.19","70","1","2025-04-11 14:31:46","bb671e3ae32f654b8954ea4c4635f915","","Mozilla/5.0 (Macintosh; Intel Mac OS X 10_15_7) AppleWebKit/537.36 (KHTML, like Gecko) Chrome/134.0.0.0 Safari/537.36","Macintosh","Chrome","134.0.0.0","OS X","10_15_7","https://hz8g1ckzuq.cognition.run/","en-US,en;q=0.9","rh6qq0bcfjbxgkd","29","[""White""]","No","Male","2729608.300000012","null","","<p></p>","null","choice","ctd","attraction_2","1","washing machines","null","null","null","null","null","null","2","","","","","","","","","",""
"","","","","","choice_trial","survey-html-form","123","2655206","0.0-5.0-1.19","70","1","2025-04-11 14:31:46","bb671e3ae32f654b8954ea4c4635f915","","Mozilla/5.0 (Macintosh; Intel Mac OS X 10_15_7) AppleWebKit/537.36 (KHTML, like Gecko) Chrome/134.0.0.0 Safari/537.36","Macintosh","Chrome","134.0.0.0","OS X","10_15_7","https://hz8g1ckzuq.cognition.run/","en-US,en;q=0.9","rh6qq0bcfjbxgkd","29","[""White""]","No","Male","2729608.300000012","1743","","","{""product_choice"":""A""}","choice","ctd","attraction_2","1","washing machines","null","null","null","null","null","null","2","60","50","60","50","60","40","Average lifespan","Energy savings","",""
"","","","","","choice_trial_setup","html-keyboard-response","124","2655513","0.0-5.0-0.20","70","1","2025-04-11 14:31:46","bb671e3ae32f654b8954ea4c4635f915","","Mozilla/5.0 (Macintosh; Intel Mac OS X 10_15_7) AppleWebKit/537.36 (KHTML, like Gecko) Chrome/134.0.0.0 Safari/537.36","Macintosh","Chrome","134.0.0.0","OS X","10_15_7","https://hz8g1ckzuq.cognition.run/","en-US,en;q=0.9","rh6qq0bcfjbxgkd","29","[""White""]","No","Male","2729608.300000012","null","","<p></p>","null","choice","dtc","repulsion_2","2","microwave ovens","null","null","null","null","null","null","2","","","","","","","","","",""
"","","","","","choice_trial","survey-html-form","125","2657849","0.0-5.0-1.20","70","1","2025-04-11 14:31:46","bb671e3ae32f654b8954ea4c4635f915","","Mozilla/5.0 (Macintosh; Intel Mac OS X 10_15_7) AppleWebKit/537.36 (KHTML, like Gecko) Chrome/134.0.0.0 Safari/537.36","Macintosh","Chrome","134.0.0.0","OS X","10_15_7","https://hz8g1ckzuq.cognition.run/","en-US,en;q=0.9","rh6qq0bcfjbxgkd","29","[""White""]","No","Male","2729608.300000012","2327","","","{""product_choice"":""B""}","choice","dtc","repulsion_2","2","microwave ovens","null","null","null","null","null","null","2","30","40","20","100","90","100","Warranty","Cooking power","",""
"","","","","","choice_trial_setup","html-keyboard-response","126","2658155","0.0-5.0-0.21","70","1","2025-04-11 14:31:46","bb671e3ae32f654b8954ea4c4635f915","","Mozilla/5.0 (Macintosh; Intel Mac OS X 10_15_7) AppleWebKit/537.36 (KHTML, like Gecko) Chrome/134.0.0.0 Safari/537.36","Macintosh","Chrome","134.0.0.0","OS X","10_15_7","https://hz8g1ckzuq.cognition.run/","en-US,en;q=0.9","rh6qq0bcfjbxgkd","29","[""White""]","No","Male","2729608.300000012","null","","<p></p>","null","choice","cdt","attraction_2","2","laptops","null","null","null","null","null","null","2","","","","","","","","","",""
"","","","","","choice_trial","survey-html-form","127","2660048","0.0-5.0-1.21","70","1","2025-04-11 14:31:46","bb671e3ae32f654b8954ea4c4635f915","","Mozilla/5.0 (Macintosh; Intel Mac OS X 10_15_7) AppleWebKit/537.36 (KHTML, like Gecko) Chrome/134.0.0.0 Safari/537.36","Macintosh","Chrome","134.0.0.0","OS X","10_15_7","https://hz8g1ckzuq.cognition.run/","en-US,en;q=0.9","rh6qq0bcfjbxgkd","29","[""White""]","No","Male","2729608.300000012","1884","","","{""product_choice"":""C""}","choice","cdt","attraction_2","2","laptops","null","null","null","null","null","null","2","50","60","40","60","50","60","Processing speed","Memory (RAM)","",""
"","","","","","choice_trial_setup","html-keyboard-response","128","2660356","0.0-5.0-0.22","70","1","2025-04-11 14:31:46","bb671e3ae32f654b8954ea4c4635f915","","Mozilla/5.0 (Macintosh; Intel Mac OS X 10_15_7) AppleWebKit/537.36 (KHTML, like Gecko) Chrome/134.0.0.0 Safari/537.36","Macintosh","Chrome","134.0.0.0","OS X","10_15_7","https://hz8g1ckzuq.cognition.run/","en-US,en;q=0.9","rh6qq0bcfjbxgkd","29","[""White""]","No","Male","2729608.300000012","null","","<p></p>","null","choice","wbw","catch","null","microwave ovens","55","95","15","5","45","10","2","","","","","","","","","",""
"","","","","","choice_trial","survey-html-form","129","2662361","0.0-5.0-1.22","70","1","2025-04-11 14:31:46","bb671e3ae32f654b8954ea4c4635f915","","Mozilla/5.0 (Macintosh; Intel Mac OS X 10_15_7) AppleWebKit/537.36 (KHTML, like Gecko) Chrome/134.0.0.0 Safari/537.36","Macintosh","Chrome","134.0.0.0","OS X","10_15_7","https://hz8g1ckzuq.cognition.run/","en-US,en;q=0.9","rh6qq0bcfjbxgkd","29","[""White""]","No","Male","2729608.300000012","1999","","","{""product_choice"":""B""}","choice","wbw","catch","null","microwave ovens","55","95","15","5","45","10","2","null","null","null","null","null","null","Warranty","Cooking power","",""
"","","","","","choice_trial_setup","html-keyboard-response","130","2662667","0.0-5.0-0.23","70","1","2025-04-11 14:31:46","bb671e3ae32f654b8954ea4c4635f915","","Mozilla/5.0 (Macintosh; Intel Mac OS X 10_15_7) AppleWebKit/537.36 (KHTML, like Gecko) Chrome/134.0.0.0 Safari/537.36","Macintosh","Chrome","134.0.0.0","OS X","10_15_7","https://hz8g1ckzuq.cognition.run/","en-US,en;q=0.9","rh6qq0bcfjbxgkd","29","[""White""]","No","Male","2729608.300000012","null","","<p></p>","null","choice","dtc","attraction_1","2","laptops","null","null","null","null","null","null","1","","","","","","","","","",""
"","","","","","choice_trial","survey-html-form","131","2664188","0.0-5.0-1.23","70","1","2025-04-11 14:31:46","bb671e3ae32f654b8954ea4c4635f915","","Mozilla/5.0 (Macintosh; Intel Mac OS X 10_15_7) AppleWebKit/537.36 (KHTML, like Gecko) Chrome/134.0.0.0 Safari/537.36","Macintosh","Chrome","134.0.0.0","OS X","10_15_7","https://hz8g1ckzuq.cognition.run/","en-US,en;q=0.9","rh6qq0bcfjbxgkd","29","[""White""]","No","Male","2729608.300000012","1514","","","{""product_choice"":""B""}","choice","dtc","attraction_1","2","laptops","null","null","null","null","null","null","1","50","60","45","60","50","60","Processing speed","Memory (RAM)","",""
"","","","","","choice_trial_setup","html-keyboard-response","132","2664496","0.0-5.0-0.24","70","1","2025-04-11 14:31:46","bb671e3ae32f654b8954ea4c4635f915","","Mozilla/5.0 (Macintosh; Intel Mac OS X 10_15_7) AppleWebKit/537.36 (KHTML, like Gecko) Chrome/134.0.0.0 Safari/537.36","Macintosh","Chrome","134.0.0.0","OS X","10_15_7","https://hz8g1ckzuq.cognition.run/","en-US,en;q=0.9","rh6qq0bcfjbxgkd","29","[""White""]","No","Male","2729608.300000012","null","","<p></p>","null","choice","wwb","catch","null","washing machines","85","75","15","40","45","30","1","","","","","","","","","",""
"","","","","","choice_trial","survey-html-form","133","2666124","0.0-5.0-1.24","70","1","2025-04-11 14:31:46","bb671e3ae32f654b8954ea4c4635f915","","Mozilla/5.0 (Macintosh; Intel Mac OS X 10_15_7) AppleWebKit/537.36 (KHTML, like Gecko) Chrome/134.0.0.0 Safari/537.36","Macintosh","Chrome","134.0.0.0","OS X","10_15_7","https://hz8g1ckzuq.cognition.run/","en-US,en;q=0.9","rh6qq0bcfjbxgkd","29","[""White""]","No","Male","2729608.300000012","1621","","","{""product_choice"":""C""}","choice","wwb","catch","null","washing machines","85","75","15","40","45","30","1","null","null","null","null","null","null","Average lifespan","Energy savings","",""
"","","","","","choice_trial_setup","html-keyboard-response","134","2666430","0.0-5.0-0.25","70","1","2025-04-11 14:31:46","bb671e3ae32f654b8954ea4c4635f915","","Mozilla/5.0 (Macintosh; Intel Mac OS X 10_15_7) AppleWebKit/537.36 (KHTML, like Gecko) Chrome/134.0.0.0 Safari/537.36","Macintosh","Chrome","134.0.0.0","OS X","10_15_7","https://hz8g1ckzuq.cognition.run/","en-US,en;q=0.9","rh6qq0bcfjbxgkd","29","[""White""]","No","Male","2729608.300000012","null","","<p></p>","null","choice","dct","attraction_1","1","laptops","null","null","null","null","null","null","2","","","","","","","","","",""
"","","","","","choice_trial","survey-html-form","135","2668165","0.0-5.0-1.25","70","1","2025-04-11 14:31:46","bb671e3ae32f654b8954ea4c4635f915","","Mozilla/5.0 (Macintosh; Intel Mac OS X 10_15_7) AppleWebKit/537.36 (KHTML, like Gecko) Chrome/134.0.0.0 Safari/537.36","Macintosh","Chrome","134.0.0.0","OS X","10_15_7","https://hz8g1ckzuq.cognition.run/","en-US,en;q=0.9","rh6qq0bcfjbxgkd","29","[""White""]","No","Male","2729608.300000012","1727","","","{""product_choice"":""B""}","choice","dct","attraction_1","1","laptops","null","null","null","null","null","null","2","60","50","60","50","60","45","Processing speed","Memory (RAM)","",""
"","","","","","choice_trial_setup","html-keyboard-response","136","2668473","0.0-5.0-0.26","70","1","2025-04-11 14:31:46","bb671e3ae32f654b8954ea4c4635f915","","Mozilla/5.0 (Macintosh; Intel Mac OS X 10_15_7) AppleWebKit/537.36 (KHTML, like Gecko) Chrome/134.0.0.0 Safari/537.36","Macintosh","Chrome","134.0.0.0","OS X","10_15_7","https://hz8g1ckzuq.cognition.run/","en-US,en;q=0.9","rh6qq0bcfjbxgkd","29","[""White""]","No","Male","2729608.300000012","null","","<p></p>","null","choice","ctd","repulsion_1","1","microwave ovens","null","null","null","null","null","null","1","","","","","","","","","",""
"","","","","","choice_trial","survey-html-form","137","2670234","0.0-5.0-1.26","70","1","2025-04-11 14:31:46","bb671e3ae32f654b8954ea4c4635f915","","Mozilla/5.0 (Macintosh; Intel Mac OS X 10_15_7) AppleWebKit/537.36 (KHTML, like Gecko) Chrome/134.0.0.0 Safari/537.36","Macintosh","Chrome","134.0.0.0","OS X","10_15_7","https://hz8g1ckzuq.cognition.run/","en-US,en;q=0.9","rh6qq0bcfjbxgkd","29","[""White""]","No","Male","2729608.300000012","1754","","","{""product_choice"":""B""}","choice","ctd","repulsion_1","1","microwave ovens","null","null","null","null","null","null","1","100","90","100","30","40","25","Warranty","Cooking power","",""
"","","","","","choice_trial_setup","html-keyboard-response","138","2670542","0.0-5.0-0.27","70","1","2025-04-11 14:31:46","bb671e3ae32f654b8954ea4c4635f915","","Mozilla/5.0 (Macintosh; Intel Mac OS X 10_15_7) AppleWebKit/537.36 (KHTML, like Gecko) Chrome/134.0.0.0 Safari/537.36","Macintosh","Chrome","134.0.0.0","OS X","10_15_7","https://hz8g1ckzuq.cognition.run/","en-US,en;q=0.9","rh6qq0bcfjbxgkd","29","[""White""]","No","Male","2729608.300000012","null","","<p></p>","null","choice","wwb","catch","null","laptops","95","85","50","25","45","25","1","","","","","","","","","",""
"","","","","","choice_trial","survey-html-form","139","2672603","0.0-5.0-1.27","70","1","2025-04-11 14:31:46","bb671e3ae32f654b8954ea4c4635f915","","Mozilla/5.0 (Macintosh; Intel Mac OS X 10_15_7) AppleWebKit/537.36 (KHTML, like Gecko) Chrome/134.0.0.0 Safari/537.36","Macintosh","Chrome","134.0.0.0","OS X","10_15_7","https://hz8g1ckzuq.cognition.run/","en-US,en;q=0.9","rh6qq0bcfjbxgkd","29","[""White""]","No","Male","2729608.300000012","2051","","","{""product_choice"":""C""}","choice","wwb","catch","null","laptops","95","85","50","25","45","25","1","null","null","null","null","null","null","Processing speed","Memory (RAM)","",""
"","","","","","choice_trial_setup","html-keyboard-response","140","2672911","0.0-5.0-0.28","70","1","2025-04-11 14:31:46","bb671e3ae32f654b8954ea4c4635f915","","Mozilla/5.0 (Macintosh; Intel Mac OS X 10_15_7) AppleWebKit/537.36 (KHTML, like Gecko) Chrome/134.0.0.0 Safari/537.36","Macintosh","Chrome","134.0.0.0","OS X","10_15_7","https://hz8g1ckzuq.cognition.run/","en-US,en;q=0.9","rh6qq0bcfjbxgkd","29","[""White""]","No","Male","2729608.300000012","null","","<p></p>","null","choice","dtc","repulsion_2","2","televisions","null","null","null","null","null","null","1","","","","","","","","","",""
"","","","","","choice_trial","survey-html-form","141","2675064","0.0-5.0-1.28","70","1","2025-04-11 14:31:46","bb671e3ae32f654b8954ea4c4635f915","","Mozilla/5.0 (Macintosh; Intel Mac OS X 10_15_7) AppleWebKit/537.36 (KHTML, like Gecko) Chrome/134.0.0.0 Safari/537.36","Macintosh","Chrome","134.0.0.0","OS X","10_15_7","https://hz8g1ckzuq.cognition.run/","en-US,en;q=0.9","rh6qq0bcfjbxgkd","29","[""White""]","No","Male","2729608.300000012","2146","","","{""product_choice"":""C""}","choice","dtc","repulsion_2","2","televisions","null","null","null","null","null","null","1","30","40","20","100","90","100","Screen size","Average lifespan","",""
"","","","","","choice_trial_setup","html-keyboard-response","142","2675370","0.0-5.0-0.29","70","1","2025-04-11 14:31:46","bb671e3ae32f654b8954ea4c4635f915","","Mozilla/5.0 (Macintosh; Intel Mac OS X 10_15_7) AppleWebKit/537.36 (KHTML, like Gecko) Chrome/134.0.0.0 Safari/537.36","Macintosh","Chrome","134.0.0.0","OS X","10_15_7","https://hz8g1ckzuq.cognition.run/","en-US,en;q=0.9","rh6qq0bcfjbxgkd","29","[""White""]","No","Male","2729608.300000012","null","","<p></p>","null","choice","tcd","attraction_1","1","televisions","null","null","null","null","null","null","1","","","","","","","","","",""
"","","","","","choice_trial","survey-html-form","143","2677315","0.0-5.0-1.29","70","1","2025-04-11 14:31:46","bb671e3ae32f654b8954ea4c4635f915","","Mozilla/5.0 (Macintosh; Intel Mac OS X 10_15_7) AppleWebKit/537.36 (KHTML, like Gecko) Chrome/134.0.0.0 Safari/537.36","Macintosh","Chrome","134.0.0.0","OS X","10_15_7","https://hz8g1ckzuq.cognition.run/","en-US,en;q=0.9","rh6qq0bcfjbxgkd","29","[""White""]","No","Male","2729608.300000012","1937","","","{""product_choice"":""B""}","choice","tcd","attraction_1","1","televisions","null","null","null","null","null","null","1","60","50","60","50","60","45","Screen size","Average lifespan","",""
"","","","","","choice_trial_setup","html-keyboard-response","144","2677621","0.0-5.0-0.30","70","1","2025-04-11 14:31:46","bb671e3ae32f654b8954ea4c4635f915","","Mozilla/5.0 (Macintosh; Intel Mac OS X 10_15_7) AppleWebKit/537.36 (KHTML, like Gecko) Chrome/134.0.0.0 Safari/537.36","Macintosh","Chrome","134.0.0.0","OS X","10_15_7","https://hz8g1ckzuq.cognition.run/","en-US,en;q=0.9","rh6qq0bcfjbxgkd","29","[""White""]","No","Male","2729608.300000012","null","","<p></p>","null","choice","tcd","repulsion_1","2","laptops","null","null","null","null","null","null","2","","","","","","","","","",""
"","","","","","choice_trial","survey-html-form","145","2679499","0.0-5.0-1.30","70","1","2025-04-11 14:31:46","bb671e3ae32f654b8954ea4c4635f915","","Mozilla/5.0 (Macintosh; Intel Mac OS X 10_15_7) AppleWebKit/537.36 (KHTML, like Gecko) Chrome/134.0.0.0 Safari/537.36","Macintosh","Chrome","134.0.0.0","OS X","10_15_7","https://hz8g1ckzuq.cognition.run/","en-US,en;q=0.9","rh6qq0bcfjbxgkd","29","[""White""]","No","Male","2729608.300000012","1875","","","{""product_choice"":""B""}","choice","tcd","repulsion_1","2","laptops","null","null","null","null","null","null","2","30","40","25","100","90","100","Processing speed","Memory (RAM)","",""
"","","","","","choice_trial_setup","html-keyboard-response","146","2679806","0.0-5.0-0.31","70","1","2025-04-11 14:31:46","bb671e3ae32f654b8954ea4c4635f915","","Mozilla/5.0 (Macintosh; Intel Mac OS X 10_15_7) AppleWebKit/537.36 (KHTML, like Gecko) Chrome/134.0.0.0 Safari/537.36","Macintosh","Chrome","134.0.0.0","OS X","10_15_7","https://hz8g1ckzuq.cognition.run/","en-US,en;q=0.9","rh6qq0bcfjbxgkd","29","[""White""]","No","Male","2729608.300000012","null","","<p></p>","null","choice","cdt","attraction_1","2","microwave ovens","null","null","null","null","null","null","1","","","","","","","","","",""
"","","","","","choice_trial","survey-html-form","147","2683808","0.0-5.0-1.31","70","1","2025-04-11 14:31:46","bb671e3ae32f654b8954ea4c4635f915","","Mozilla/5.0 (Macintosh; Intel Mac OS X 10_15_7) AppleWebKit/537.36 (KHTML, like Gecko) Chrome/134.0.0.0 Safari/537.36","Macintosh","Chrome","134.0.0.0","OS X","10_15_7","https://hz8g1ckzuq.cognition.run/","en-US,en;q=0.9","rh6qq0bcfjbxgkd","29","[""White""]","No","Male","2729608.300000012","3994","","","{""product_choice"":""C""}","choice","cdt","attraction_1","2","microwave ovens","null","null","null","null","null","null","1","50","60","45","60","50","60","Warranty","Cooking power","",""
"","","","","","choice_trial_setup","html-keyboard-response","148","2684118","0.0-5.0-0.32","70","1","2025-04-11 14:31:46","bb671e3ae32f654b8954ea4c4635f915","","Mozilla/5.0 (Macintosh; Intel Mac OS X 10_15_7) AppleWebKit/537.36 (KHTML, like Gecko) Chrome/134.0.0.0 Safari/537.36","Macintosh","Chrome","134.0.0.0","OS X","10_15_7","https://hz8g1ckzuq.cognition.run/","en-US,en;q=0.9","rh6qq0bcfjbxgkd","29","[""White""]","No","Male","2729608.300000012","null","","<p></p>","null","choice","tcd","repulsion_1","2","microwave ovens","null","null","null","null","null","null","1","","","","","","","","","",""
"","","","","","choice_trial","survey-html-form","149","2691482","0.0-5.0-1.32","70","1","2025-04-11 14:31:46","bb671e3ae32f654b8954ea4c4635f915","","Mozilla/5.0 (Macintosh; Intel Mac OS X 10_15_7) AppleWebKit/537.36 (KHTML, like Gecko) Chrome/134.0.0.0 Safari/537.36","Macintosh","Chrome","134.0.0.0","OS X","10_15_7","https://hz8g1ckzuq.cognition.run/","en-US,en;q=0.9","rh6qq0bcfjbxgkd","29","[""White""]","No","Male","2729608.300000012","7356","","","{""product_choice"":""B""}","choice","tcd","repulsion_1","2","microwave ovens","null","null","null","null","null","null","1","30","40","25","100","90","100","Warranty","Cooking power","",""
"","","","","","choice_trial_setup","html-keyboard-response","150","2691790","0.0-5.0-0.33","70","1","2025-04-11 14:31:46","bb671e3ae32f654b8954ea4c4635f915","","Mozilla/5.0 (Macintosh; Intel Mac OS X 10_15_7) AppleWebKit/537.36 (KHTML, like Gecko) Chrome/134.0.0.0 Safari/537.36","Macintosh","Chrome","134.0.0.0","OS X","10_15_7","https://hz8g1ckzuq.cognition.run/","en-US,en;q=0.9","rh6qq0bcfjbxgkd","29","[""White""]","No","Male","2729608.300000012","null","","<p></p>","null","choice","tdc","attraction_2","2","washing machines","null","null","null","null","null","null","2","","","","","","","","","",""
"","","","","","choice_trial","survey-html-form","151","2694165","0.0-5.0-1.33","70","1","2025-04-11 14:31:46","bb671e3ae32f654b8954ea4c4635f915","","Mozilla/5.0 (Macintosh; Intel Mac OS X 10_15_7) AppleWebKit/537.36 (KHTML, like Gecko) Chrome/134.0.0.0 Safari/537.36","Macintosh","Chrome","134.0.0.0","OS X","10_15_7","https://hz8g1ckzuq.cognition.run/","en-US,en;q=0.9","rh6qq0bcfjbxgkd","29","[""White""]","No","Male","2729608.300000012","2365","","","{""product_choice"":""A""}","choice","tdc","attraction_2","2","washing machines","null","null","null","null","null","null","2","50","60","40","60","50","60","Average lifespan","Energy savings","",""
"","","","","","choice_trial_setup","html-keyboard-response","152","2694472","0.0-5.0-0.34","70","1","2025-04-11 14:31:46","bb671e3ae32f654b8954ea4c4635f915","","Mozilla/5.0 (Macintosh; Intel Mac OS X 10_15_7) AppleWebKit/537.36 (KHTML, like Gecko) Chrome/134.0.0.0 Safari/537.36","Macintosh","Chrome","134.0.0.0","OS X","10_15_7","https://hz8g1ckzuq.cognition.run/","en-US,en;q=0.9","rh6qq0bcfjbxgkd","29","[""White""]","No","Male","2729608.300000012","null","","<p></p>","null","choice","dtc","attraction_2","1","laptops","null","null","null","null","null","null","2","","","","","","","","","",""
"","","","","","choice_trial","survey-html-form","153","2696559","0.0-5.0-1.34","70","1","2025-04-11 14:31:46","bb671e3ae32f654b8954ea4c4635f915","","Mozilla/5.0 (Macintosh; Intel Mac OS X 10_15_7) AppleWebKit/537.36 (KHTML, like Gecko) Chrome/134.0.0.0 Safari/537.36","Macintosh","Chrome","134.0.0.0","OS X","10_15_7","https://hz8g1ckzuq.cognition.run/","en-US,en;q=0.9","rh6qq0bcfjbxgkd","29","[""White""]","No","Male","2729608.300000012","2079","","","{""product_choice"":""B""}","choice","dtc","attraction_2","1","laptops","null","null","null","null","null","null","2","60","50","60","50","60","40","Processing speed","Memory (RAM)","",""
"","","","","","choice_trial_setup","html-keyboard-response","154","2696867","0.0-5.0-0.35","70","1","2025-04-11 14:31:46","bb671e3ae32f654b8954ea4c4635f915","","Mozilla/5.0 (Macintosh; Intel Mac OS X 10_15_7) AppleWebKit/537.36 (KHTML, like Gecko) Chrome/134.0.0.0 Safari/537.36","Macintosh","Chrome","134.0.0.0","OS X","10_15_7","https://hz8g1ckzuq.cognition.run/","en-US,en;q=0.9","rh6qq0bcfjbxgkd","29","[""White""]","No","Male","2729608.300000012","null","","<p></p>","null","choice","bww","catch","null","microwave ovens","75","90","25","40","50","5","1","","","","","","","","","",""
"","","","","","choice_trial","survey-html-form","155","2699306","0.0-5.0-1.35","70","1","2025-04-11 14:31:46","bb671e3ae32f654b8954ea4c4635f915","","Mozilla/5.0 (Macintosh; Intel Mac OS X 10_15_7) AppleWebKit/537.36 (KHTML, like Gecko) Chrome/134.0.0.0 Safari/537.36","Macintosh","Chrome","134.0.0.0","OS X","10_15_7","https://hz8g1ckzuq.cognition.run/","en-US,en;q=0.9","rh6qq0bcfjbxgkd","29","[""White""]","No","Male","2729608.300000012","2432","","","{""product_choice"":""A""}","choice","bww","catch","null","microwave ovens","75","90","25","40","50","5","1","null","null","null","null","null","null","Warranty","Cooking power","",""
