"success","timeout","failed_images","failed_audio","failed_video","screen_id","trial_type","trial_index","time_elapsed","internal_node_id","run_id","condition","recorded_at","source_code_version","ip","user_agent","device","browser","browser_version","platform","platform_version","referer","accept_language","ppt_id","age","race","ethnicity","gender","exp_duration","rt","view_history","stimulus","response","phase","order","effect","t_high","category","d1_best","d2_best","d1_worst1","d2_worst1","d1_worst2","d2_worst2","first_dim","d1_t","d1_c","d1_d","d2_t","d2_c","d2_d","d1_name","d2_name","strategy_response","question_order"
"true","false","[]","[]","[]","img preload","preload","0","9381","0.0-0.0","80","1","2025-04-11 14:35:35","bb671e3ae32f654b8954ea4c4635f915","","Mozilla/5.0 (Windows NT 10.0; Win64; x64) AppleWebKit/537.36 (KHTML, like Gecko) Chrome/134.0.0.0 Safari/537.36","WebKit","Chrome","134.0.0.0","Windows","10.0","https://hz8g1ckzuq.cognition.run/","en-US,en;q=0.9","88fd0klx2gf20uq","29","[""Black or African-American""]","No","Male","2049468.3000000007","","","","","","","","","","","","","","","","","","","","","","","","","",""
"true","","","","","","fullscreen","1","20542","0.0-1.0","80","1","2025-04-11 14:35:35","bb671e3ae32f654b8954ea4c4635f915","","Mozilla/5.0 (Windows NT 10.0; Win64; x64) AppleWebKit/537.36 (KHTML, like Gecko) Chrome/134.0.0.0 Safari/537.36","WebKit","Chrome","134.0.0.0","Windows","10.0","https://hz8g1ckzuq.cognition.run/","en-US,en;q=0.9","88fd0klx2gf20uq","29","[""Black or African-American""]","No","Male","2049468.3000000007","10143","","","","","","","","","","","","","","","","","","","","","","","","",""
"","","","","","","instructions","2","263170","0.0-2.0","80","1","2025-04-11 14:35:35","bb671e3ae32f654b8954ea4c4635f915","","Mozilla/5.0 (Windows NT 10.0; Win64; x64) AppleWebKit/537.36 (KHTML, like Gecko) Chrome/134.0.0.0 Safari/537.36","WebKit","Chrome","134.0.0.0","Windows","10.0","https://hz8g1ckzuq.cognition.run/","en-US,en;q=0.9","88fd0klx2gf20uq","29","[""Black or African-American""]","No","Male","2049468.3000000007","242622","[{""page_index"":0,""viewing_time"":2839},{""page_index"":1,""viewing_time"":2649},{""page_index"":2,""viewing_time"":7724},{""page_index"":3,""viewing_time"":2971},{""page_index"":4,""viewing_time"":144101},{""page_index"":5,""viewing_time"":21148},{""page_index"":6,""viewing_time"":19955},{""page_index"":7,""viewing_time"":18786},{""page_index"":8,""viewing_time"":7541},{""page_index"":9,""viewing_time"":14907}]","","","","","","","","","","","","","","","","","","","","","","","",""
"","","","","","rating_trial_setup","html-keyboard-response","3","263479","0.0-3.0-0.0","80","1","2025-04-11 14:35:35","bb671e3ae32f654b8954ea4c4635f915","","Mozilla/5.0 (Windows NT 10.0; Win64; x64) AppleWebKit/537.36 (KHTML, like Gecko) Chrome/134.0.0.0 Safari/537.36","WebKit","Chrome","134.0.0.0","Windows","10.0","https://hz8g1ckzuq.cognition.run/","en-US,en;q=0.9","88fd0klx2gf20uq","29","[""Black or African-American""]","No","Male","2049468.3000000007","null","","<p></p>","null","rating","ctd","repulsion_1","2","microwave ovens","null","null","null","null","null","null","1","","","","","","","","","",""
"","","","","","rating_trial","survey-html-form","4","423746","0.0-3.0-1.0","80","1","2025-04-11 14:35:35","bb671e3ae32f654b8954ea4c4635f915","","Mozilla/5.0 (Windows NT 10.0; Win64; x64) AppleWebKit/537.36 (KHTML, like Gecko) Chrome/134.0.0.0 Safari/537.36","WebKit","Chrome","134.0.0.0","Windows","10.0","https://hz8g1ckzuq.cognition.run/","en-US,en;q=0.9","88fd0klx2gf20uq","29","[""Black or African-American""]","No","Male","2049468.3000000007","160252","","","{""price_1"":""50"",""price_2"":""65"",""price_3"":""60""}","rating","ctd","repulsion_1","2","microwave ovens","null","null","null","null","null","null","1","30","40","25","100","90","100","Warranty","Cooking power","",""
"","","","","","rating_trial_setup","html-keyboard-response","5","424057","0.0-3.0-0.1","80","1","2025-04-11 14:35:35","bb671e3ae32f654b8954ea4c4635f915","","Mozilla/5.0 (Windows NT 10.0; Win64; x64) AppleWebKit/537.36 (KHTML, like Gecko) Chrome/134.0.0.0 Safari/537.36","WebKit","Chrome","134.0.0.0","Windows","10.0","https://hz8g1ckzuq.cognition.run/","en-US,en;q=0.9","88fd0klx2gf20uq","29","[""Black or African-American""]","No","Male","2049468.3000000007","null","","<p></p>","null","rating","dct","attraction_1","1","televisions","null","null","null","null","null","null","1","","","","","","","","","",""
"","","","","","rating_trial","survey-html-form","6","494923","0.0-3.0-1.1","80","1","2025-04-11 14:35:35","bb671e3ae32f654b8954ea4c4635f915","","Mozilla/5.0 (Windows NT 10.0; Win64; x64) AppleWebKit/537.36 (KHTML, like Gecko) Chrome/134.0.0.0 Safari/537.36","WebKit","Chrome","134.0.0.0","Windows","10.0","https://hz8g1ckzuq.cognition.run/","en-US,en;q=0.9","88fd0klx2gf20uq","29","[""Black or African-American""]","No","Male","2049468.3000000007","70857","","","{""price_1"":""50"",""price_2"":""60"",""price_3"":""79""}","rating","dct","attraction_1","1","televisions","null","null","null","null","null","null","1","60","50","60","50","60","45","Screen size","Average lifespan","",""
"","","","","","rating_trial_setup","html-keyboard-response","7","495229","0.0-3.0-0.2","80","1","2025-04-11 14:35:35","bb671e3ae32f654b8954ea4c4635f915","","Mozilla/5.0 (Windows NT 10.0; Win64; x64) AppleWebKit/537.36 (KHTML, like Gecko) Chrome/134.0.0.0 Safari/537.36","WebKit","Chrome","134.0.0.0","Windows","10.0","https://hz8g1ckzuq.cognition.run/","en-US,en;q=0.9","88fd0klx2gf20uq","29","[""Black or African-American""]","No","Male","2049468.3000000007","null","","<p></p>","null","rating","tdc","attraction_2","2","laptops","null","null","null","null","null","null","1","","","","","","","","","",""
"","","","","","rating_trial","survey-html-form","8","528862","0.0-3.0-1.2","80","1","2025-04-11 14:35:35","bb671e3ae32f654b8954ea4c4635f915","","Mozilla/5.0 (Windows NT 10.0; Win64; x64) AppleWebKit/537.36 (KHTML, like Gecko) Chrome/134.0.0.0 Safari/537.36","WebKit","Chrome","134.0.0.0","Windows","10.0","https://hz8g1ckzuq.cognition.run/","en-US,en;q=0.9","88fd0klx2gf20uq","29","[""Black or African-American""]","No","Male","2049468.3000000007","33626","","","{""price_1"":""200"",""price_2"":""120"",""price_3"":""200""}","rating","tdc","attraction_2","2","laptops","null","null","null","null","null","null","1","50","60","40","60","50","60","Processing speed","Memory (RAM)","",""
"","","","","","rating_trial_setup","html-keyboard-response","9","529172","0.0-3.0-0.3","80","1","2025-04-11 14:35:35","bb671e3ae32f654b8954ea4c4635f915","","Mozilla/5.0 (Windows NT 10.0; Win64; x64) AppleWebKit/537.36 (KHTML, like Gecko) Chrome/134.0.0.0 Safari/537.36","WebKit","Chrome","134.0.0.0","Windows","10.0","https://hz8g1ckzuq.cognition.run/","en-US,en;q=0.9","88fd0klx2gf20uq","29","[""Black or African-American""]","No","Male","2049468.3000000007","null","","<p></p>","null","rating","tcd","attraction_2","1","televisions","null","null","null","null","null","null","1","","","","","","","","","",""
"","","","","","rating_trial","survey-html-form","10","553024","0.0-3.0-1.3","80","1","2025-04-11 14:35:35","bb671e3ae32f654b8954ea4c4635f915","","Mozilla/5.0 (Windows NT 10.0; Win64; x64) AppleWebKit/537.36 (KHTML, like Gecko) Chrome/134.0.0.0 Safari/537.36","WebKit","Chrome","134.0.0.0","Windows","10.0","https://hz8g1ckzuq.cognition.run/","en-US,en;q=0.9","88fd0klx2gf20uq","29","[""Black or African-American""]","No","Male","2049468.3000000007","23844","","","{""price_1"":""70"",""price_2"":""75"",""price_3"":""50""}","rating","tcd","attraction_2","1","televisions","null","null","null","null","null","null","1","60","50","60","50","60","40","Screen size","Average lifespan","",""
"","","","","","rating_trial_setup","html-keyboard-response","11","553339","0.0-3.0-0.4","80","1","2025-04-11 14:35:35","bb671e3ae32f654b8954ea4c4635f915","","Mozilla/5.0 (Windows NT 10.0; Win64; x64) AppleWebKit/537.36 (KHTML, like Gecko) Chrome/134.0.0.0 Safari/537.36","WebKit","Chrome","134.0.0.0","Windows","10.0","https://hz8g1ckzuq.cognition.run/","en-US,en;q=0.9","88fd0klx2gf20uq","29","[""Black or African-American""]","No","Male","2049468.3000000007","null","","<p></p>","null","rating","cdt","repulsion_2","2","laptops","null","null","null","null","null","null","1","","","","","","","","","",""
"","","","","","rating_trial","survey-html-form","12","579007","0.0-3.0-1.4","80","1","2025-04-11 14:35:35","bb671e3ae32f654b8954ea4c4635f915","","Mozilla/5.0 (Windows NT 10.0; Win64; x64) AppleWebKit/537.36 (KHTML, like Gecko) Chrome/134.0.0.0 Safari/537.36","WebKit","Chrome","134.0.0.0","Windows","10.0","https://hz8g1ckzuq.cognition.run/","en-US,en;q=0.9","88fd0klx2gf20uq","29","[""Black or African-American""]","No","Male","2049468.3000000007","25658","","","{""price_1"":""200"",""price_2"":""150"",""price_3"":""140""}","rating","cdt","repulsion_2","2","laptops","null","null","null","null","null","null","1","30","40","20","100","90","100","Processing speed","Memory (RAM)","",""
"","","","","","rating_trial_setup","html-keyboard-response","13","579319","0.0-3.0-0.5","80","1","2025-04-11 14:35:35","bb671e3ae32f654b8954ea4c4635f915","","Mozilla/5.0 (Windows NT 10.0; Win64; x64) AppleWebKit/537.36 (KHTML, like Gecko) Chrome/134.0.0.0 Safari/537.36","WebKit","Chrome","134.0.0.0","Windows","10.0","https://hz8g1ckzuq.cognition.run/","en-US,en;q=0.9","88fd0klx2gf20uq","29","[""Black or African-American""]","No","Male","2049468.3000000007","null","","<p></p>","null","rating","wwb","catch","null","televisions","90","60","40","40","20","15","1","","","","","","","","","",""
"","","","","","rating_trial","survey-html-form","14","612363","0.0-3.0-1.5","80","1","2025-04-11 14:35:35","bb671e3ae32f654b8954ea4c4635f915","","Mozilla/5.0 (Windows NT 10.0; Win64; x64) AppleWebKit/537.36 (KHTML, like Gecko) Chrome/134.0.0.0 Safari/537.36","WebKit","Chrome","134.0.0.0","Windows","10.0","https://hz8g1ckzuq.cognition.run/","en-US,en;q=0.9","88fd0klx2gf20uq","29","[""Black or African-American""]","No","Male","2049468.3000000007","33034","","","{""price_1"":""80"",""price_2"":""70"",""price_3"":""99""}","rating","wwb","catch","null","televisions","90","60","40","40","20","15","1","null","null","null","null","null","null","Screen size","Average lifespan","",""
"","","","","","rating_trial_setup","html-keyboard-response","15","612678","0.0-3.0-0.6","80","1","2025-04-11 14:35:35","bb671e3ae32f654b8954ea4c4635f915","","Mozilla/5.0 (Windows NT 10.0; Win64; x64) AppleWebKit/537.36 (KHTML, like Gecko) Chrome/134.0.0.0 Safari/537.36","WebKit","Chrome","134.0.0.0","Windows","10.0","https://hz8g1ckzuq.cognition.run/","en-US,en;q=0.9","88fd0klx2gf20uq","29","[""Black or African-American""]","No","Male","2049468.3000000007","null","","<p></p>","null","rating","wbw","catch","null","microwave ovens","60","70","35","30","40","40","2","","","","","","","","","",""
"","","","","","rating_trial","survey-html-form","16","644201","0.0-3.0-1.6","80","1","2025-04-11 14:35:35","bb671e3ae32f654b8954ea4c4635f915","","Mozilla/5.0 (Windows NT 10.0; Win64; x64) AppleWebKit/537.36 (KHTML, like Gecko) Chrome/134.0.0.0 Safari/537.36","WebKit","Chrome","134.0.0.0","Windows","10.0","https://hz8g1ckzuq.cognition.run/","en-US,en;q=0.9","88fd0klx2gf20uq","29","[""Black or African-American""]","No","Male","2049468.3000000007","31513","","","{""price_1"":""50"",""price_2"":""65"",""price_3"":""60""}","rating","wbw","catch","null","microwave ovens","60","70","35","30","40","40","2","null","null","null","null","null","null","Warranty","Cooking power","",""
"","","","","","rating_trial_setup","html-keyboard-response","17","644507","0.0-3.0-0.7","80","1","2025-04-11 14:35:35","bb671e3ae32f654b8954ea4c4635f915","","Mozilla/5.0 (Windows NT 10.0; Win64; x64) AppleWebKit/537.36 (KHTML, like Gecko) Chrome/134.0.0.0 Safari/537.36","WebKit","Chrome","134.0.0.0","Windows","10.0","https://hz8g1ckzuq.cognition.run/","en-US,en;q=0.9","88fd0klx2gf20uq","29","[""Black or African-American""]","No","Male","2049468.3000000007","null","","<p></p>","null","rating","dtc","attraction_1","1","microwave ovens","null","null","null","null","null","null","1","","","","","","","","","",""
"","","","","","rating_trial","survey-html-form","18","667895","0.0-3.0-1.7","80","1","2025-04-11 14:35:35","bb671e3ae32f654b8954ea4c4635f915","","Mozilla/5.0 (Windows NT 10.0; Win64; x64) AppleWebKit/537.36 (KHTML, like Gecko) Chrome/134.0.0.0 Safari/537.36","WebKit","Chrome","134.0.0.0","Windows","10.0","https://hz8g1ckzuq.cognition.run/","en-US,en;q=0.9","88fd0klx2gf20uq","29","[""Black or African-American""]","No","Male","2049468.3000000007","23378","","","{""price_1"":""60"",""price_2"":""67"",""price_3"":""75""}","rating","dtc","attraction_1","1","microwave ovens","null","null","null","null","null","null","1","60","50","60","50","60","45","Warranty","Cooking power","",""
"","","","","","rating_trial_setup","html-keyboard-response","19","668206","0.0-3.0-0.8","80","1","2025-04-11 14:35:35","bb671e3ae32f654b8954ea4c4635f915","","Mozilla/5.0 (Windows NT 10.0; Win64; x64) AppleWebKit/537.36 (KHTML, like Gecko) Chrome/134.0.0.0 Safari/537.36","WebKit","Chrome","134.0.0.0","Windows","10.0","https://hz8g1ckzuq.cognition.run/","en-US,en;q=0.9","88fd0klx2gf20uq","29","[""Black or African-American""]","No","Male","2049468.3000000007","null","","<p></p>","null","rating","ctd","repulsion_2","2","televisions","null","null","null","null","null","null","2","","","","","","","","","",""
"","","","","","rating_trial","survey-html-form","20","715042","0.0-3.0-1.8","80","1","2025-04-11 14:35:35","bb671e3ae32f654b8954ea4c4635f915","","Mozilla/5.0 (Windows NT 10.0; Win64; x64) AppleWebKit/537.36 (KHTML, like Gecko) Chrome/134.0.0.0 Safari/537.36","WebKit","Chrome","134.0.0.0","Windows","10.0","https://hz8g1ckzuq.cognition.run/","en-US,en;q=0.9","88fd0klx2gf20uq","29","[""Black or African-American""]","No","Male","2049468.3000000007","46828","","","{""price_1"":""90"",""price_2"":""75"",""price_3"":""60""}","rating","ctd","repulsion_2","2","televisions","null","null","null","null","null","null","2","30","40","20","100","90","100","Screen size","Average lifespan","",""
"","","","","","rating_trial_setup","html-keyboard-response","21","715358","0.0-3.0-0.9","80","1","2025-04-11 14:35:35","bb671e3ae32f654b8954ea4c4635f915","","Mozilla/5.0 (Windows NT 10.0; Win64; x64) AppleWebKit/537.36 (KHTML, like Gecko) Chrome/134.0.0.0 Safari/537.36","WebKit","Chrome","134.0.0.0","Windows","10.0","https://hz8g1ckzuq.cognition.run/","en-US,en;q=0.9","88fd0klx2gf20uq","29","[""Black or African-American""]","No","Male","2049468.3000000007","null","","<p></p>","null","rating","cdt","repulsion_1","1","televisions","null","null","null","null","null","null","2","","","","","","","","","",""
"","","","","","rating_trial","survey-html-form","22","749792","0.0-3.0-1.9","80","1","2025-04-11 14:35:35","bb671e3ae32f654b8954ea4c4635f915","","Mozilla/5.0 (Windows NT 10.0; Win64; x64) AppleWebKit/537.36 (KHTML, like Gecko) Chrome/134.0.0.0 Safari/537.36","WebKit","Chrome","134.0.0.0","Windows","10.0","https://hz8g1ckzuq.cognition.run/","en-US,en;q=0.9","88fd0klx2gf20uq","29","[""Black or African-American""]","No","Male","2049468.3000000007","34422","","","{""price_1"":""70"",""price_2"":""100"",""price_3"":""120""}","rating","cdt","repulsion_1","1","televisions","null","null","null","null","null","null","2","100","90","100","30","40","25","Screen size","Average lifespan","",""
"","","","","","rating_trial_setup","html-keyboard-response","23","750112","0.0-3.0-0.10","80","1","2025-04-11 14:35:35","bb671e3ae32f654b8954ea4c4635f915","","Mozilla/5.0 (Windows NT 10.0; Win64; x64) AppleWebKit/537.36 (KHTML, like Gecko) Chrome/134.0.0.0 Safari/537.36","WebKit","Chrome","134.0.0.0","Windows","10.0","https://hz8g1ckzuq.cognition.run/","en-US,en;q=0.9","88fd0klx2gf20uq","29","[""Black or African-American""]","No","Male","2049468.3000000007","null","","<p></p>","null","rating","cdt","repulsion_1","1","washing machines","null","null","null","null","null","null","2","","","","","","","","","",""
"","","","","","rating_trial","survey-html-form","24","937774","0.0-3.0-1.10","80","1","2025-04-11 14:35:35","bb671e3ae32f654b8954ea4c4635f915","","Mozilla/5.0 (Windows NT 10.0; Win64; x64) AppleWebKit/537.36 (KHTML, like Gecko) Chrome/134.0.0.0 Safari/537.36","WebKit","Chrome","134.0.0.0","Windows","10.0","https://hz8g1ckzuq.cognition.run/","en-US,en;q=0.9","88fd0klx2gf20uq","29","[""Black or African-American""]","No","Male","2049468.3000000007","187650","","","{""price_1"":""210"",""price_2"":""130"",""price_3"":""145""}","rating","cdt","repulsion_1","1","washing machines","null","null","null","null","null","null","2","100","90","100","30","40","25","Average lifespan","Energy savings","",""
"","","","","","rating_trial_setup","html-keyboard-response","25","938082","0.0-3.0-0.11","80","1","2025-04-11 14:35:35","bb671e3ae32f654b8954ea4c4635f915","","Mozilla/5.0 (Windows NT 10.0; Win64; x64) AppleWebKit/537.36 (KHTML, like Gecko) Chrome/134.0.0.0 Safari/537.36","WebKit","Chrome","134.0.0.0","Windows","10.0","https://hz8g1ckzuq.cognition.run/","en-US,en;q=0.9","88fd0klx2gf20uq","29","[""Black or African-American""]","No","Male","2049468.3000000007","null","","<p></p>","null","rating","wbw","catch","null","laptops","50","65","40","45","25","25","1","","","","","","","","","",""
"","","","","","rating_trial","survey-html-form","26","975019","0.0-3.0-1.11","80","1","2025-04-11 14:35:35","bb671e3ae32f654b8954ea4c4635f915","","Mozilla/5.0 (Windows NT 10.0; Win64; x64) AppleWebKit/537.36 (KHTML, like Gecko) Chrome/134.0.0.0 Safari/537.36","WebKit","Chrome","134.0.0.0","Windows","10.0","https://hz8g1ckzuq.cognition.run/","en-US,en;q=0.9","88fd0klx2gf20uq","29","[""Black or African-American""]","No","Male","2049468.3000000007","36928","","","{""price_1"":""140"",""price_2"":""150"",""price_3"":""130""}","rating","wbw","catch","null","laptops","50","65","40","45","25","25","1","null","null","null","null","null","null","Processing speed","Memory (RAM)","",""
"","","","","","rating_trial_setup","html-keyboard-response","27","975329","0.0-3.0-0.12","80","1","2025-04-11 14:35:35","bb671e3ae32f654b8954ea4c4635f915","","Mozilla/5.0 (Windows NT 10.0; Win64; x64) AppleWebKit/537.36 (KHTML, like Gecko) Chrome/134.0.0.0 Safari/537.36","WebKit","Chrome","134.0.0.0","Windows","10.0","https://hz8g1ckzuq.cognition.run/","en-US,en;q=0.9","88fd0klx2gf20uq","29","[""Black or African-American""]","No","Male","2049468.3000000007","null","","<p></p>","null","rating","tdc","repulsion_2","1","televisions","null","null","null","null","null","null","1","","","","","","","","","",""
"","","","","","rating_trial","survey-html-form","28","1005459","0.0-3.0-1.12","80","1","2025-04-11 14:35:35","bb671e3ae32f654b8954ea4c4635f915","","Mozilla/5.0 (Windows NT 10.0; Win64; x64) AppleWebKit/537.36 (KHTML, like Gecko) Chrome/134.0.0.0 Safari/537.36","WebKit","Chrome","134.0.0.0","Windows","10.0","https://hz8g1ckzuq.cognition.run/","en-US,en;q=0.9","88fd0klx2gf20uq","29","[""Black or African-American""]","No","Male","2049468.3000000007","30119","","","{""price_1"":""70"",""price_2"":""60"",""price_3"":""90""}","rating","tdc","repulsion_2","1","televisions","null","null","null","null","null","null","1","100","90","100","30","40","20","Screen size","Average lifespan","",""
"","","","","","rating_trial_setup","html-keyboard-response","29","1005764","0.0-3.0-0.13","80","1","2025-04-11 14:35:35","bb671e3ae32f654b8954ea4c4635f915","","Mozilla/5.0 (Windows NT 10.0; Win64; x64) AppleWebKit/537.36 (KHTML, like Gecko) Chrome/134.0.0.0 Safari/537.36","WebKit","Chrome","134.0.0.0","Windows","10.0","https://hz8g1ckzuq.cognition.run/","en-US,en;q=0.9","88fd0klx2gf20uq","29","[""Black or African-American""]","No","Male","2049468.3000000007","null","","<p></p>","null","rating","tdc","repulsion_1","1","microwave ovens","null","null","null","null","null","null","2","","","","","","","","","",""
"","","","","","rating_trial","survey-html-form","30","1024910","0.0-3.0-1.13","80","1","2025-04-11 14:35:35","bb671e3ae32f654b8954ea4c4635f915","","Mozilla/5.0 (Windows NT 10.0; Win64; x64) AppleWebKit/537.36 (KHTML, like Gecko) Chrome/134.0.0.0 Safari/537.36","WebKit","Chrome","134.0.0.0","Windows","10.0","https://hz8g1ckzuq.cognition.run/","en-US,en;q=0.9","88fd0klx2gf20uq","29","[""Black or African-American""]","No","Male","2049468.3000000007","19131","","","{""price_1"":""50"",""price_2"":""40"",""price_3"":""69""}","rating","tdc","repulsion_1","1","microwave ovens","null","null","null","null","null","null","2","100","90","100","30","40","25","Warranty","Cooking power","",""
"","","","","","rating_trial_setup","html-keyboard-response","31","1025220","0.0-3.0-0.14","80","1","2025-04-11 14:35:35","bb671e3ae32f654b8954ea4c4635f915","","Mozilla/5.0 (Windows NT 10.0; Win64; x64) AppleWebKit/537.36 (KHTML, like Gecko) Chrome/134.0.0.0 Safari/537.36","WebKit","Chrome","134.0.0.0","Windows","10.0","https://hz8g1ckzuq.cognition.run/","en-US,en;q=0.9","88fd0klx2gf20uq","29","[""Black or African-American""]","No","Male","2049468.3000000007","null","","<p></p>","null","rating","tcd","attraction_2","1","laptops","null","null","null","null","null","null","1","","","","","","","","","",""
"","","","","","rating_trial","survey-html-form","32","1045199","0.0-3.0-1.14","80","1","2025-04-11 14:35:35","bb671e3ae32f654b8954ea4c4635f915","","Mozilla/5.0 (Windows NT 10.0; Win64; x64) AppleWebKit/537.36 (KHTML, like Gecko) Chrome/134.0.0.0 Safari/537.36","WebKit","Chrome","134.0.0.0","Windows","10.0","https://hz8g1ckzuq.cognition.run/","en-US,en;q=0.9","88fd0klx2gf20uq","29","[""Black or African-American""]","No","Male","2049468.3000000007","19972","","","{""price_1"":""120"",""price_2"":""110"",""price_3"":""85""}","rating","tcd","attraction_2","1","laptops","null","null","null","null","null","null","1","60","50","60","50","60","40","Processing speed","Memory (RAM)","",""
"","","","","","rating_trial_setup","html-keyboard-response","33","1045510","0.0-3.0-0.15","80","1","2025-04-11 14:35:35","bb671e3ae32f654b8954ea4c4635f915","","Mozilla/5.0 (Windows NT 10.0; Win64; x64) AppleWebKit/537.36 (KHTML, like Gecko) Chrome/134.0.0.0 Safari/537.36","WebKit","Chrome","134.0.0.0","Windows","10.0","https://hz8g1ckzuq.cognition.run/","en-US,en;q=0.9","88fd0klx2gf20uq","29","[""Black or African-American""]","No","Male","2049468.3000000007","null","","<p></p>","null","rating","dtc","repulsion_2","2","washing machines","null","null","null","null","null","null","2","","","","","","","","","",""
"","","","","","rating_trial","survey-html-form","34","1075404","0.0-3.0-1.15","80","1","2025-04-11 14:35:35","bb671e3ae32f654b8954ea4c4635f915","","Mozilla/5.0 (Windows NT 10.0; Win64; x64) AppleWebKit/537.36 (KHTML, like Gecko) Chrome/134.0.0.0 Safari/537.36","WebKit","Chrome","134.0.0.0","Windows","10.0","https://hz8g1ckzuq.cognition.run/","en-US,en;q=0.9","88fd0klx2gf20uq","29","[""Black or African-American""]","No","Male","2049468.3000000007","29882","","","{""price_1"":""130"",""price_2"":""100"",""price_3"":""150""}","rating","dtc","repulsion_2","2","washing machines","null","null","null","null","null","null","2","30","40","20","100","90","100","Average lifespan","Energy savings","",""
"","","","","","rating_trial_setup","html-keyboard-response","35","1075708","0.0-3.0-0.16","80","1","2025-04-11 14:35:35","bb671e3ae32f654b8954ea4c4635f915","","Mozilla/5.0 (Windows NT 10.0; Win64; x64) AppleWebKit/537.36 (KHTML, like Gecko) Chrome/134.0.0.0 Safari/537.36","WebKit","Chrome","134.0.0.0","Windows","10.0","https://hz8g1ckzuq.cognition.run/","en-US,en;q=0.9","88fd0klx2gf20uq","29","[""Black or African-American""]","No","Male","2049468.3000000007","null","","<p></p>","null","rating","cdt","attraction_2","1","microwave ovens","null","null","null","null","null","null","2","","","","","","","","","",""
"","","","","","rating_trial","survey-html-form","36","1111201","0.0-3.0-1.16","80","1","2025-04-11 14:35:35","bb671e3ae32f654b8954ea4c4635f915","","Mozilla/5.0 (Windows NT 10.0; Win64; x64) AppleWebKit/537.36 (KHTML, like Gecko) Chrome/134.0.0.0 Safari/537.36","WebKit","Chrome","134.0.0.0","Windows","10.0","https://hz8g1ckzuq.cognition.run/","en-US,en;q=0.9","88fd0klx2gf20uq","29","[""Black or African-American""]","No","Male","2049468.3000000007","35480","","","{""price_1"":""50"",""price_2"":""60"",""price_3"":""70""}","rating","cdt","attraction_2","1","microwave ovens","null","null","null","null","null","null","2","60","50","60","50","60","40","Warranty","Cooking power","",""
"","","","","","rating_trial_setup","html-keyboard-response","37","1111506","0.0-3.0-0.17","80","1","2025-04-11 14:35:35","bb671e3ae32f654b8954ea4c4635f915","","Mozilla/5.0 (Windows NT 10.0; Win64; x64) AppleWebKit/537.36 (KHTML, like Gecko) Chrome/134.0.0.0 Safari/537.36","WebKit","Chrome","134.0.0.0","Windows","10.0","https://hz8g1ckzuq.cognition.run/","en-US,en;q=0.9","88fd0klx2gf20uq","29","[""Black or African-American""]","No","Male","2049468.3000000007","null","","<p></p>","null","rating","bww","catch","null","washing machines","70","70","35","40","35","20","1","","","","","","","","","",""
"","","","","","rating_trial","survey-html-form","38","1132739","0.0-3.0-1.17","80","1","2025-04-11 14:35:35","bb671e3ae32f654b8954ea4c4635f915","","Mozilla/5.0 (Windows NT 10.0; Win64; x64) AppleWebKit/537.36 (KHTML, like Gecko) Chrome/134.0.0.0 Safari/537.36","WebKit","Chrome","134.0.0.0","Windows","10.0","https://hz8g1ckzuq.cognition.run/","en-US,en;q=0.9","88fd0klx2gf20uq","29","[""Black or African-American""]","No","Male","2049468.3000000007","21217","","","{""price_1"":""140"",""price_2"":""70"",""price_3"":""50""}","rating","bww","catch","null","washing machines","70","70","35","40","35","20","1","null","null","null","null","null","null","Average lifespan","Energy savings","",""
"","","","","","rating_trial_setup","html-keyboard-response","39","1133072","0.0-3.0-0.18","80","1","2025-04-11 14:35:35","bb671e3ae32f654b8954ea4c4635f915","","Mozilla/5.0 (Windows NT 10.0; Win64; x64) AppleWebKit/537.36 (KHTML, like Gecko) Chrome/134.0.0.0 Safari/537.36","WebKit","Chrome","134.0.0.0","Windows","10.0","https://hz8g1ckzuq.cognition.run/","en-US,en;q=0.9","88fd0klx2gf20uq","29","[""Black or African-American""]","No","Male","2049468.3000000007","null","","<p></p>","null","rating","tdc","repulsion_1","1","laptops","null","null","null","null","null","null","1","","","","","","","","","",""
"","","","","","rating_trial","survey-html-form","40","1152937","0.0-3.0-1.18","80","1","2025-04-11 14:35:35","bb671e3ae32f654b8954ea4c4635f915","","Mozilla/5.0 (Windows NT 10.0; Win64; x64) AppleWebKit/537.36 (KHTML, like Gecko) Chrome/134.0.0.0 Safari/537.36","WebKit","Chrome","134.0.0.0","Windows","10.0","https://hz8g1ckzuq.cognition.run/","en-US,en;q=0.9","88fd0klx2gf20uq","29","[""Black or African-American""]","No","Male","2049468.3000000007","19857","","","{""price_1"":""60"",""price_2"":""50"",""price_3"":""90""}","rating","tdc","repulsion_1","1","laptops","null","null","null","null","null","null","1","100","90","100","30","40","25","Processing speed","Memory (RAM)","",""
"","","","","","rating_trial_setup","html-keyboard-response","41","1153269","0.0-3.0-0.19","80","1","2025-04-11 14:35:35","bb671e3ae32f654b8954ea4c4635f915","","Mozilla/5.0 (Windows NT 10.0; Win64; x64) AppleWebKit/537.36 (KHTML, like Gecko) Chrome/134.0.0.0 Safari/537.36","WebKit","Chrome","134.0.0.0","Windows","10.0","https://hz8g1ckzuq.cognition.run/","en-US,en;q=0.9","88fd0klx2gf20uq","29","[""Black or African-American""]","No","Male","2049468.3000000007","null","","<p></p>","null","rating","tcd","repulsion_2","1","microwave ovens","null","null","null","null","null","null","2","","","","","","","","","",""
"","","","","","rating_trial","survey-html-form","42","1364282","0.0-3.0-1.19","80","1","2025-04-11 14:35:35","bb671e3ae32f654b8954ea4c4635f915","","Mozilla/5.0 (Windows NT 10.0; Win64; x64) AppleWebKit/537.36 (KHTML, like Gecko) Chrome/134.0.0.0 Safari/537.36","WebKit","Chrome","134.0.0.0","Windows","10.0","https://hz8g1ckzuq.cognition.run/","en-US,en;q=0.9","88fd0klx2gf20uq","29","[""Black or African-American""]","No","Male","2049468.3000000007","210996","","","{""price_1"":""70"",""price_2"":""60"",""price_3"":""50""}","rating","tcd","repulsion_2","1","microwave ovens","null","null","null","null","null","null","2","100","90","100","30","40","20","Warranty","Cooking power","",""
"","","","","","rating_trial_setup","html-keyboard-response","43","1364586","0.0-3.0-0.20","80","1","2025-04-11 14:35:35","bb671e3ae32f654b8954ea4c4635f915","","Mozilla/5.0 (Windows NT 10.0; Win64; x64) AppleWebKit/537.36 (KHTML, like Gecko) Chrome/134.0.0.0 Safari/537.36","WebKit","Chrome","134.0.0.0","Windows","10.0","https://hz8g1ckzuq.cognition.run/","en-US,en;q=0.9","88fd0klx2gf20uq","29","[""Black or African-American""]","No","Male","2049468.3000000007","null","","<p></p>","null","rating","tdc","repulsion_2","2","microwave ovens","null","null","null","null","null","null","2","","","","","","","","","",""
"","","","","","rating_trial","survey-html-form","44","1388040","0.0-3.0-1.20","80","1","2025-04-11 14:35:35","bb671e3ae32f654b8954ea4c4635f915","","Mozilla/5.0 (Windows NT 10.0; Win64; x64) AppleWebKit/537.36 (KHTML, like Gecko) Chrome/134.0.0.0 Safari/537.36","WebKit","Chrome","134.0.0.0","Windows","10.0","https://hz8g1ckzuq.cognition.run/","en-US,en;q=0.9","88fd0klx2gf20uq","29","[""Black or African-American""]","No","Male","2049468.3000000007","23451","","","{""price_1"":""55"",""price_2"":""50"",""price_3"":""60""}","rating","tdc","repulsion_2","2","microwave ovens","null","null","null","null","null","null","2","30","40","20","100","90","100","Warranty","Cooking power","",""
"","","","","","rating_trial_setup","html-keyboard-response","45","1388347","0.0-3.0-0.21","80","1","2025-04-11 14:35:35","bb671e3ae32f654b8954ea4c4635f915","","Mozilla/5.0 (Windows NT 10.0; Win64; x64) AppleWebKit/537.36 (KHTML, like Gecko) Chrome/134.0.0.0 Safari/537.36","WebKit","Chrome","134.0.0.0","Windows","10.0","https://hz8g1ckzuq.cognition.run/","en-US,en;q=0.9","88fd0klx2gf20uq","29","[""Black or African-American""]","No","Male","2049468.3000000007","null","","<p></p>","null","rating","wbw","catch","null","microwave ovens","80","55","5","5","50","20","2","","","","","","","","","",""
"","","","","","rating_trial","survey-html-form","46","1408919","0.0-3.0-1.21","80","1","2025-04-11 14:35:35","bb671e3ae32f654b8954ea4c4635f915","","Mozilla/5.0 (Windows NT 10.0; Win64; x64) AppleWebKit/537.36 (KHTML, like Gecko) Chrome/134.0.0.0 Safari/537.36","WebKit","Chrome","134.0.0.0","Windows","10.0","https://hz8g1ckzuq.cognition.run/","en-US,en;q=0.9","88fd0klx2gf20uq","29","[""Black or African-American""]","No","Male","2049468.3000000007","20564","","","{""price_1"":""20"",""price_2"":""70"",""price_3"":""60""}","rating","wbw","catch","null","microwave ovens","80","55","5","5","50","20","2","null","null","null","null","null","null","Warranty","Cooking power","",""
"","","","","","rating_trial_setup","html-keyboard-response","47","1409247","0.0-3.0-0.22","80","1","2025-04-11 14:35:35","bb671e3ae32f654b8954ea4c4635f915","","Mozilla/5.0 (Windows NT 10.0; Win64; x64) AppleWebKit/537.36 (KHTML, like Gecko) Chrome/134.0.0.0 Safari/537.36","WebKit","Chrome","134.0.0.0","Windows","10.0","https://hz8g1ckzuq.cognition.run/","en-US,en;q=0.9","88fd0klx2gf20uq","29","[""Black or African-American""]","No","Male","2049468.3000000007","null","","<p></p>","null","rating","cdt","attraction_1","2","washing machines","null","null","null","null","null","null","1","","","","","","","","","",""
"","","","","","rating_trial","survey-html-form","48","1425936","0.0-3.0-1.22","80","1","2025-04-11 14:35:35","bb671e3ae32f654b8954ea4c4635f915","","Mozilla/5.0 (Windows NT 10.0; Win64; x64) AppleWebKit/537.36 (KHTML, like Gecko) Chrome/134.0.0.0 Safari/537.36","WebKit","Chrome","134.0.0.0","Windows","10.0","https://hz8g1ckzuq.cognition.run/","en-US,en;q=0.9","88fd0klx2gf20uq","29","[""Black or African-American""]","No","Male","2049468.3000000007","16677","","","{""price_1"":""90"",""price_2"":""100"",""price_3"":""120""}","rating","cdt","attraction_1","2","washing machines","null","null","null","null","null","null","1","50","60","45","60","50","60","Average lifespan","Energy savings","",""
"","","","","","rating_trial_setup","html-keyboard-response","49","1426252","0.0-3.0-0.23","80","1","2025-04-11 14:35:35","bb671e3ae32f654b8954ea4c4635f915","","Mozilla/5.0 (Windows NT 10.0; Win64; x64) AppleWebKit/537.36 (KHTML, like Gecko) Chrome/134.0.0.0 Safari/537.36","WebKit","Chrome","134.0.0.0","Windows","10.0","https://hz8g1ckzuq.cognition.run/","en-US,en;q=0.9","88fd0klx2gf20uq","29","[""Black or African-American""]","No","Male","2049468.3000000007","null","","<p></p>","null","rating","wwb","catch","null","washing machines","90","60","5","40","50","15","2","","","","","","","","","",""
"","","","","","rating_trial","survey-html-form","50","1442470","0.0-3.0-1.23","80","1","2025-04-11 14:35:35","bb671e3ae32f654b8954ea4c4635f915","","Mozilla/5.0 (Windows NT 10.0; Win64; x64) AppleWebKit/537.36 (KHTML, like Gecko) Chrome/134.0.0.0 Safari/537.36","WebKit","Chrome","134.0.0.0","Windows","10.0","https://hz8g1ckzuq.cognition.run/","en-US,en;q=0.9","88fd0klx2gf20uq","29","[""Black or African-American""]","No","Male","2049468.3000000007","16201","","","{""price_1"":""60"",""price_2"":""110"",""price_3"":""130""}","rating","wwb","catch","null","washing machines","90","60","5","40","50","15","2","null","null","null","null","null","null","Average lifespan","Energy savings","",""
"","","","","","rating_trial_setup","html-keyboard-response","51","1442791","0.0-3.0-0.24","80","1","2025-04-11 14:35:35","bb671e3ae32f654b8954ea4c4635f915","","Mozilla/5.0 (Windows NT 10.0; Win64; x64) AppleWebKit/537.36 (KHTML, like Gecko) Chrome/134.0.0.0 Safari/537.36","WebKit","Chrome","134.0.0.0","Windows","10.0","https://hz8g1ckzuq.cognition.run/","en-US,en;q=0.9","88fd0klx2gf20uq","29","[""Black or African-American""]","No","Male","2049468.3000000007","null","","<p></p>","null","rating","cdt","attraction_1","1","washing machines","null","null","null","null","null","null","1","","","","","","","","","",""
"","","","","","rating_trial","survey-html-form","52","1471471","0.0-3.0-1.24","80","1","2025-04-11 14:35:35","bb671e3ae32f654b8954ea4c4635f915","","Mozilla/5.0 (Windows NT 10.0; Win64; x64) AppleWebKit/537.36 (KHTML, like Gecko) Chrome/134.0.0.0 Safari/537.36","WebKit","Chrome","134.0.0.0","Windows","10.0","https://hz8g1ckzuq.cognition.run/","en-US,en;q=0.9","88fd0klx2gf20uq","29","[""Black or African-American""]","No","Male","2049468.3000000007","28664","","","{""price_1"":""120"",""price_2"":""100"",""price_3"":""70""}","rating","cdt","attraction_1","1","washing machines","null","null","null","null","null","null","1","60","50","60","50","60","45","Average lifespan","Energy savings","",""
"","","","","","rating_trial_setup","html-keyboard-response","53","1471785","0.0-3.0-0.25","80","1","2025-04-11 14:35:35","bb671e3ae32f654b8954ea4c4635f915","","Mozilla/5.0 (Windows NT 10.0; Win64; x64) AppleWebKit/537.36 (KHTML, like Gecko) Chrome/134.0.0.0 Safari/537.36","WebKit","Chrome","134.0.0.0","Windows","10.0","https://hz8g1ckzuq.cognition.run/","en-US,en;q=0.9","88fd0klx2gf20uq","29","[""Black or African-American""]","No","Male","2049468.3000000007","null","","<p></p>","null","rating","dct","attraction_1","1","laptops","null","null","null","null","null","null","2","","","","","","","","","",""
"","","","","","rating_trial","survey-html-form","54","1489630","0.0-3.0-1.25","80","1","2025-04-11 14:35:35","bb671e3ae32f654b8954ea4c4635f915","","Mozilla/5.0 (Windows NT 10.0; Win64; x64) AppleWebKit/537.36 (KHTML, like Gecko) Chrome/134.0.0.0 Safari/537.36","WebKit","Chrome","134.0.0.0","Windows","10.0","https://hz8g1ckzuq.cognition.run/","en-US,en;q=0.9","88fd0klx2gf20uq","29","[""Black or African-American""]","No","Male","2049468.3000000007","17827","","","{""price_1"":""50"",""price_2"":""40"",""price_3"":""60""}","rating","dct","attraction_1","1","laptops","null","null","null","null","null","null","2","60","50","60","50","60","45","Processing speed","Memory (RAM)","",""
"","","","","","rating_trial_setup","html-keyboard-response","55","1489940","0.0-3.0-0.26","80","1","2025-04-11 14:35:35","bb671e3ae32f654b8954ea4c4635f915","","Mozilla/5.0 (Windows NT 10.0; Win64; x64) AppleWebKit/537.36 (KHTML, like Gecko) Chrome/134.0.0.0 Safari/537.36","WebKit","Chrome","134.0.0.0","Windows","10.0","https://hz8g1ckzuq.cognition.run/","en-US,en;q=0.9","88fd0klx2gf20uq","29","[""Black or African-American""]","No","Male","2049468.3000000007","null","","<p></p>","null","rating","tdc","attraction_1","2","televisions","null","null","null","null","null","null","2","","","","","","","","","",""
"","","","","","rating_trial","survey-html-form","56","1508440","0.0-3.0-1.26","80","1","2025-04-11 14:35:35","bb671e3ae32f654b8954ea4c4635f915","","Mozilla/5.0 (Windows NT 10.0; Win64; x64) AppleWebKit/537.36 (KHTML, like Gecko) Chrome/134.0.0.0 Safari/537.36","WebKit","Chrome","134.0.0.0","Windows","10.0","https://hz8g1ckzuq.cognition.run/","en-US,en;q=0.9","88fd0klx2gf20uq","29","[""Black or African-American""]","No","Male","2049468.3000000007","18492","","","{""price_1"":""50"",""price_2"":""60"",""price_3"":""70""}","rating","tdc","attraction_1","2","televisions","null","null","null","null","null","null","2","50","60","45","60","50","60","Screen size","Average lifespan","",""
"","","","","","rating_trial_setup","html-keyboard-response","57","1508756","0.0-3.0-0.27","80","1","2025-04-11 14:35:35","bb671e3ae32f654b8954ea4c4635f915","","Mozilla/5.0 (Windows NT 10.0; Win64; x64) AppleWebKit/537.36 (KHTML, like Gecko) Chrome/134.0.0.0 Safari/537.36","WebKit","Chrome","134.0.0.0","Windows","10.0","https://hz8g1ckzuq.cognition.run/","en-US,en;q=0.9","88fd0klx2gf20uq","29","[""Black or African-American""]","No","Male","2049468.3000000007","null","","<p></p>","null","rating","tdc","attraction_2","2","televisions","null","null","null","null","null","null","1","","","","","","","","","",""
"","","","","","rating_trial","survey-html-form","58","1523651","0.0-3.0-1.27","80","1","2025-04-11 14:35:35","bb671e3ae32f654b8954ea4c4635f915","","Mozilla/5.0 (Windows NT 10.0; Win64; x64) AppleWebKit/537.36 (KHTML, like Gecko) Chrome/134.0.0.0 Safari/537.36","WebKit","Chrome","134.0.0.0","Windows","10.0","https://hz8g1ckzuq.cognition.run/","en-US,en;q=0.9","88fd0klx2gf20uq","29","[""Black or African-American""]","No","Male","2049468.3000000007","14878","","","{""price_1"":""60"",""price_2"":""60"",""price_3"":""55""}","rating","tdc","attraction_2","2","televisions","null","null","null","null","null","null","1","50","60","40","60","50","60","Screen size","Average lifespan","",""
"","","","","","rating_trial_setup","html-keyboard-response","59","1523966","0.0-3.0-0.28","80","1","2025-04-11 14:35:35","bb671e3ae32f654b8954ea4c4635f915","","Mozilla/5.0 (Windows NT 10.0; Win64; x64) AppleWebKit/537.36 (KHTML, like Gecko) Chrome/134.0.0.0 Safari/537.36","WebKit","Chrome","134.0.0.0","Windows","10.0","https://hz8g1ckzuq.cognition.run/","en-US,en;q=0.9","88fd0klx2gf20uq","29","[""Black or African-American""]","No","Male","2049468.3000000007","null","","<p></p>","null","rating","ctd","attraction_1","2","microwave ovens","null","null","null","null","null","null","1","","","","","","","","","",""
"","","","","","rating_trial","survey-html-form","60","1541939","0.0-3.0-1.28","80","1","2025-04-11 14:35:35","bb671e3ae32f654b8954ea4c4635f915","","Mozilla/5.0 (Windows NT 10.0; Win64; x64) AppleWebKit/537.36 (KHTML, like Gecko) Chrome/134.0.0.0 Safari/537.36","WebKit","Chrome","134.0.0.0","Windows","10.0","https://hz8g1ckzuq.cognition.run/","en-US,en;q=0.9","88fd0klx2gf20uq","29","[""Black or African-American""]","No","Male","2049468.3000000007","17965","","","{""price_1"":""50"",""price_2"":""60"",""price_3"":""70""}","rating","ctd","attraction_1","2","microwave ovens","null","null","null","null","null","null","1","50","60","45","60","50","60","Warranty","Cooking power","",""
"","","","","","rating_trial_setup","html-keyboard-response","61","1542261","0.0-3.0-0.29","80","1","2025-04-11 14:35:35","bb671e3ae32f654b8954ea4c4635f915","","Mozilla/5.0 (Windows NT 10.0; Win64; x64) AppleWebKit/537.36 (KHTML, like Gecko) Chrome/134.0.0.0 Safari/537.36","WebKit","Chrome","134.0.0.0","Windows","10.0","https://hz8g1ckzuq.cognition.run/","en-US,en;q=0.9","88fd0klx2gf20uq","29","[""Black or African-American""]","No","Male","2049468.3000000007","null","","<p></p>","null","rating","wbw","catch","null","laptops","50","70","15","35","45","20","1","","","","","","","","","",""
"","","","","","rating_trial","survey-html-form","62","1563577","0.0-3.0-1.29","80","1","2025-04-11 14:35:35","bb671e3ae32f654b8954ea4c4635f915","","Mozilla/5.0 (Windows NT 10.0; Win64; x64) AppleWebKit/537.36 (KHTML, like Gecko) Chrome/134.0.0.0 Safari/537.36","WebKit","Chrome","134.0.0.0","Windows","10.0","https://hz8g1ckzuq.cognition.run/","en-US,en;q=0.9","88fd0klx2gf20uq","29","[""Black or African-American""]","No","Male","2049468.3000000007","21308","","","{""price_1"":""50"",""price_2"":""100"",""price_3"":""40""}","rating","wbw","catch","null","laptops","50","70","15","35","45","20","1","null","null","null","null","null","null","Processing speed","Memory (RAM)","",""
"","","","","","rating_trial_setup","html-keyboard-response","63","1563884","0.0-3.0-0.30","80","1","2025-04-11 14:35:35","bb671e3ae32f654b8954ea4c4635f915","","Mozilla/5.0 (Windows NT 10.0; Win64; x64) AppleWebKit/537.36 (KHTML, like Gecko) Chrome/134.0.0.0 Safari/537.36","WebKit","Chrome","134.0.0.0","Windows","10.0","https://hz8g1ckzuq.cognition.run/","en-US,en;q=0.9","88fd0klx2gf20uq","29","[""Black or African-American""]","No","Male","2049468.3000000007","null","","<p></p>","null","rating","cdt","attraction_1","2","laptops","null","null","null","null","null","null","1","","","","","","","","","",""
"","","","","","rating_trial","survey-html-form","64","1579420","0.0-3.0-1.30","80","1","2025-04-11 14:35:35","bb671e3ae32f654b8954ea4c4635f915","","Mozilla/5.0 (Windows NT 10.0; Win64; x64) AppleWebKit/537.36 (KHTML, like Gecko) Chrome/134.0.0.0 Safari/537.36","WebKit","Chrome","134.0.0.0","Windows","10.0","https://hz8g1ckzuq.cognition.run/","en-US,en;q=0.9","88fd0klx2gf20uq","29","[""Black or African-American""]","No","Male","2049468.3000000007","15524","","","{""price_1"":""50"",""price_2"":""70"",""price_3"":""80""}","rating","cdt","attraction_1","2","laptops","null","null","null","null","null","null","1","50","60","45","60","50","60","Processing speed","Memory (RAM)","",""
"","","","","","rating_trial_setup","html-keyboard-response","65","1579737","0.0-3.0-0.31","80","1","2025-04-11 14:35:35","bb671e3ae32f654b8954ea4c4635f915","","Mozilla/5.0 (Windows NT 10.0; Win64; x64) AppleWebKit/537.36 (KHTML, like Gecko) Chrome/134.0.0.0 Safari/537.36","WebKit","Chrome","134.0.0.0","Windows","10.0","https://hz8g1ckzuq.cognition.run/","en-US,en;q=0.9","88fd0klx2gf20uq","29","[""Black or African-American""]","No","Male","2049468.3000000007","null","","<p></p>","null","rating","tdc","repulsion_2","1","laptops","null","null","null","null","null","null","1","","","","","","","","","",""
"","","","","","rating_trial","survey-html-form","66","1591374","0.0-3.0-1.31","80","1","2025-04-11 14:35:35","bb671e3ae32f654b8954ea4c4635f915","","Mozilla/5.0 (Windows NT 10.0; Win64; x64) AppleWebKit/537.36 (KHTML, like Gecko) Chrome/134.0.0.0 Safari/537.36","WebKit","Chrome","134.0.0.0","Windows","10.0","https://hz8g1ckzuq.cognition.run/","en-US,en;q=0.9","88fd0klx2gf20uq","29","[""Black or African-American""]","No","Male","2049468.3000000007","11617","","","{""price_1"":""30"",""price_2"":""20"",""price_3"":""50""}","rating","tdc","repulsion_2","1","laptops","null","null","null","null","null","null","1","100","90","100","30","40","20","Processing speed","Memory (RAM)","",""
"","","","","","rating_trial_setup","html-keyboard-response","67","1591697","0.0-3.0-0.32","80","1","2025-04-11 14:35:35","bb671e3ae32f654b8954ea4c4635f915","","Mozilla/5.0 (Windows NT 10.0; Win64; x64) AppleWebKit/537.36 (KHTML, like Gecko) Chrome/134.0.0.0 Safari/537.36","WebKit","Chrome","134.0.0.0","Windows","10.0","https://hz8g1ckzuq.cognition.run/","en-US,en;q=0.9","88fd0klx2gf20uq","29","[""Black or African-American""]","No","Male","2049468.3000000007","null","","<p></p>","null","rating","dtc","repulsion_1","2","washing machines","null","null","null","null","null","null","2","","","","","","","","","",""
"","","","","","rating_trial","survey-html-form","68","1616337","0.0-3.0-1.32","80","1","2025-04-11 14:35:35","bb671e3ae32f654b8954ea4c4635f915","","Mozilla/5.0 (Windows NT 10.0; Win64; x64) AppleWebKit/537.36 (KHTML, like Gecko) Chrome/134.0.0.0 Safari/537.36","WebKit","Chrome","134.0.0.0","Windows","10.0","https://hz8g1ckzuq.cognition.run/","en-US,en;q=0.9","88fd0klx2gf20uq","29","[""Black or African-American""]","No","Male","2049468.3000000007","24622","","","{""price_1"":""50"",""price_2"":""60"",""price_3"":""80""}","rating","dtc","repulsion_1","2","washing machines","null","null","null","null","null","null","2","30","40","25","100","90","100","Average lifespan","Energy savings","",""
"","","","","","rating_trial_setup","html-keyboard-response","69","1616647","0.0-3.0-0.33","80","1","2025-04-11 14:35:35","bb671e3ae32f654b8954ea4c4635f915","","Mozilla/5.0 (Windows NT 10.0; Win64; x64) AppleWebKit/537.36 (KHTML, like Gecko) Chrome/134.0.0.0 Safari/537.36","WebKit","Chrome","134.0.0.0","Windows","10.0","https://hz8g1ckzuq.cognition.run/","en-US,en;q=0.9","88fd0klx2gf20uq","29","[""Black or African-American""]","No","Male","2049468.3000000007","null","","<p></p>","null","rating","dct","attraction_2","1","washing machines","null","null","null","null","null","null","1","","","","","","","","","",""
"","","","","","rating_trial","survey-html-form","70","1639084","0.0-3.0-1.33","80","1","2025-04-11 14:35:35","bb671e3ae32f654b8954ea4c4635f915","","Mozilla/5.0 (Windows NT 10.0; Win64; x64) AppleWebKit/537.36 (KHTML, like Gecko) Chrome/134.0.0.0 Safari/537.36","WebKit","Chrome","134.0.0.0","Windows","10.0","https://hz8g1ckzuq.cognition.run/","en-US,en;q=0.9","88fd0klx2gf20uq","29","[""Black or African-American""]","No","Male","2049468.3000000007","22418","","","{""price_1"":""70"",""price_2"":""70"",""price_3"":""65""}","rating","dct","attraction_2","1","washing machines","null","null","null","null","null","null","1","60","50","60","50","60","40","Average lifespan","Energy savings","",""
"","","","","","rating_trial_setup","html-keyboard-response","71","1639393","0.0-3.0-0.34","80","1","2025-04-11 14:35:35","bb671e3ae32f654b8954ea4c4635f915","","Mozilla/5.0 (Windows NT 10.0; Win64; x64) AppleWebKit/537.36 (KHTML, like Gecko) Chrome/134.0.0.0 Safari/537.36","WebKit","Chrome","134.0.0.0","Windows","10.0","https://hz8g1ckzuq.cognition.run/","en-US,en;q=0.9","88fd0klx2gf20uq","29","[""Black or African-American""]","No","Male","2049468.3000000007","null","","<p></p>","null","rating","bww","catch","null","televisions","90","85","20","5","25","45","2","","","","","","","","","",""
"","","","","","rating_trial","survey-html-form","72","1655196","0.0-3.0-1.34","80","1","2025-04-11 14:35:35","bb671e3ae32f654b8954ea4c4635f915","","Mozilla/5.0 (Windows NT 10.0; Win64; x64) AppleWebKit/537.36 (KHTML, like Gecko) Chrome/134.0.0.0 Safari/537.36","WebKit","Chrome","134.0.0.0","Windows","10.0","https://hz8g1ckzuq.cognition.run/","en-US,en;q=0.9","88fd0klx2gf20uq","29","[""Black or African-American""]","No","Male","2049468.3000000007","15785","","","{""price_1"":""70"",""price_2"":""50"",""price_3"":""60""}","rating","bww","catch","null","televisions","90","85","20","5","25","45","2","null","null","null","null","null","null","Screen size","Average lifespan","",""
"","","","","","rating_trial_setup","html-keyboard-response","73","1655514","0.0-3.0-0.35","80","1","2025-04-11 14:35:35","bb671e3ae32f654b8954ea4c4635f915","","Mozilla/5.0 (Windows NT 10.0; Win64; x64) AppleWebKit/537.36 (KHTML, like Gecko) Chrome/134.0.0.0 Safari/537.36","WebKit","Chrome","134.0.0.0","Windows","10.0","https://hz8g1ckzuq.cognition.run/","en-US,en;q=0.9","88fd0klx2gf20uq","29","[""Black or African-American""]","No","Male","2049468.3000000007","null","","<p></p>","null","rating","ctd","repulsion_1","2","televisions","null","null","null","null","null","null","1","","","","","","","","","",""
"","","","","","rating_trial","survey-html-form","74","1667890","0.0-3.0-1.35","80","1","2025-04-11 14:35:35","bb671e3ae32f654b8954ea4c4635f915","","Mozilla/5.0 (Windows NT 10.0; Win64; x64) AppleWebKit/537.36 (KHTML, like Gecko) Chrome/134.0.0.0 Safari/537.36","WebKit","Chrome","134.0.0.0","Windows","10.0","https://hz8g1ckzuq.cognition.run/","en-US,en;q=0.9","88fd0klx2gf20uq","29","[""Black or African-American""]","No","Male","2049468.3000000007","12356","","","{""price_1"":""70"",""price_2"":""80"",""price_3"":""50""}","rating","ctd","repulsion_1","2","televisions","null","null","null","null","null","null","1","30","40","25","100","90","100","Screen size","Average lifespan","",""
"","","","","","rating_trial_setup","html-keyboard-response","75","1668209","0.0-3.0-0.36","80","1","2025-04-11 14:35:35","bb671e3ae32f654b8954ea4c4635f915","","Mozilla/5.0 (Windows NT 10.0; Win64; x64) AppleWebKit/537.36 (KHTML, like Gecko) Chrome/134.0.0.0 Safari/537.36","WebKit","Chrome","134.0.0.0","Windows","10.0","https://hz8g1ckzuq.cognition.run/","en-US,en;q=0.9","88fd0klx2gf20uq","29","[""Black or African-American""]","No","Male","2049468.3000000007","null","","<p></p>","null","rating","ctd","repulsion_1","2","laptops","null","null","null","null","null","null","2","","","","","","","","","",""
"","","","","","rating_trial","survey-html-form","76","1679918","0.0-3.0-1.36","80","1","2025-04-11 14:35:35","bb671e3ae32f654b8954ea4c4635f915","","Mozilla/5.0 (Windows NT 10.0; Win64; x64) AppleWebKit/537.36 (KHTML, like Gecko) Chrome/134.0.0.0 Safari/537.36","WebKit","Chrome","134.0.0.0","Windows","10.0","https://hz8g1ckzuq.cognition.run/","en-US,en;q=0.9","88fd0klx2gf20uq","29","[""Black or African-American""]","No","Male","2049468.3000000007","11689","","","{""price_1"":""60"",""price_2"":""50"",""price_3"":""46""}","rating","ctd","repulsion_1","2","laptops","null","null","null","null","null","null","2","30","40","25","100","90","100","Processing speed","Memory (RAM)","",""
"","","","","","rating_trial_setup","html-keyboard-response","77","1680236","0.0-3.0-0.37","80","1","2025-04-11 14:35:35","bb671e3ae32f654b8954ea4c4635f915","","Mozilla/5.0 (Windows NT 10.0; Win64; x64) AppleWebKit/537.36 (KHTML, like Gecko) Chrome/134.0.0.0 Safari/537.36","WebKit","Chrome","134.0.0.0","Windows","10.0","https://hz8g1ckzuq.cognition.run/","en-US,en;q=0.9","88fd0klx2gf20uq","29","[""Black or African-American""]","No","Male","2049468.3000000007","null","","<p></p>","null","rating","dct","attraction_2","2","microwave ovens","null","null","null","null","null","null","1","","","","","","","","","",""
"","","","","","rating_trial","survey-html-form","78","1698613","0.0-3.0-1.37","80","1","2025-04-11 14:35:35","bb671e3ae32f654b8954ea4c4635f915","","Mozilla/5.0 (Windows NT 10.0; Win64; x64) AppleWebKit/537.36 (KHTML, like Gecko) Chrome/134.0.0.0 Safari/537.36","WebKit","Chrome","134.0.0.0","Windows","10.0","https://hz8g1ckzuq.cognition.run/","en-US,en;q=0.9","88fd0klx2gf20uq","29","[""Black or African-American""]","No","Male","2049468.3000000007","18361","","","{""price_1"":""50"",""price_2"":""57"",""price_3"":""58""}","rating","dct","attraction_2","2","microwave ovens","null","null","null","null","null","null","1","50","60","40","60","50","60","Warranty","Cooking power","",""
"","","","","","rating_trial_setup","html-keyboard-response","79","1698927","0.0-3.0-0.38","80","1","2025-04-11 14:35:35","bb671e3ae32f654b8954ea4c4635f915","","Mozilla/5.0 (Windows NT 10.0; Win64; x64) AppleWebKit/537.36 (KHTML, like Gecko) Chrome/134.0.0.0 Safari/537.36","WebKit","Chrome","134.0.0.0","Windows","10.0","https://hz8g1ckzuq.cognition.run/","en-US,en;q=0.9","88fd0klx2gf20uq","29","[""Black or African-American""]","No","Male","2049468.3000000007","null","","<p></p>","null","rating","tcd","attraction_2","2","washing machines","null","null","null","null","null","null","2","","","","","","","","","",""
"","","","","","rating_trial","survey-html-form","80","1712035","0.0-3.0-1.38","80","1","2025-04-11 14:35:35","bb671e3ae32f654b8954ea4c4635f915","","Mozilla/5.0 (Windows NT 10.0; Win64; x64) AppleWebKit/537.36 (KHTML, like Gecko) Chrome/134.0.0.0 Safari/537.36","WebKit","Chrome","134.0.0.0","Windows","10.0","https://hz8g1ckzuq.cognition.run/","en-US,en;q=0.9","88fd0klx2gf20uq","29","[""Black or African-American""]","No","Male","2049468.3000000007","13088","","","{""price_1"":""130"",""price_2"":""160"",""price_3"":""100""}","rating","tcd","attraction_2","2","washing machines","null","null","null","null","null","null","2","50","60","40","60","50","60","Average lifespan","Energy savings","",""
"","","","","","rating_trial_setup","html-keyboard-response","81","1712344","0.0-3.0-0.39","80","1","2025-04-11 14:35:35","bb671e3ae32f654b8954ea4c4635f915","","Mozilla/5.0 (Windows NT 10.0; Win64; x64) AppleWebKit/537.36 (KHTML, like Gecko) Chrome/134.0.0.0 Safari/537.36","WebKit","Chrome","134.0.0.0","Windows","10.0","https://hz8g1ckzuq.cognition.run/","en-US,en;q=0.9","88fd0klx2gf20uq","29","[""Black or African-American""]","No","Male","2049468.3000000007","null","","<p></p>","null","rating","dct","repulsion_2","1","washing machines","null","null","null","null","null","null","1","","","","","","","","","",""
"","","","","","rating_trial","survey-html-form","82","1726775","0.0-3.0-1.39","80","1","2025-04-11 14:35:35","bb671e3ae32f654b8954ea4c4635f915","","Mozilla/5.0 (Windows NT 10.0; Win64; x64) AppleWebKit/537.36 (KHTML, like Gecko) Chrome/134.0.0.0 Safari/537.36","WebKit","Chrome","134.0.0.0","Windows","10.0","https://hz8g1ckzuq.cognition.run/","en-US,en;q=0.9","88fd0klx2gf20uq","29","[""Black or African-American""]","No","Male","2049468.3000000007","14413","","","{""price_1"":""73"",""price_2"":""90"",""price_3"":""56""}","rating","dct","repulsion_2","1","washing machines","null","null","null","null","null","null","1","100","90","100","30","40","20","Average lifespan","Energy savings","",""
"","","","","","","instructions","83","1763427","0.0-4.0","80","1","2025-04-11 14:35:35","bb671e3ae32f654b8954ea4c4635f915","","Mozilla/5.0 (Windows NT 10.0; Win64; x64) AppleWebKit/537.36 (KHTML, like Gecko) Chrome/134.0.0.0 Safari/537.36","WebKit","Chrome","134.0.0.0","Windows","10.0","https://hz8g1ckzuq.cognition.run/","en-US,en;q=0.9","88fd0klx2gf20uq","29","[""Black or African-American""]","No","Male","2049468.3000000007","36637","[{""page_index"":0,""viewing_time"":1700},{""page_index"":1,""viewing_time"":1206},{""page_index"":2,""viewing_time"":3170},{""page_index"":3,""viewing_time"":3154},{""page_index"":4,""viewing_time"":3981},{""page_index"":5,""viewing_time"":3386},{""page_index"":6,""viewing_time"":15840},{""page_index"":7,""viewing_time"":4199}]","","","","","","","","","","","","","","","","","","","","","","","",""
"","","","","","choice_trial_setup","html-keyboard-response","84","1763742","0.0-5.0-0.0","80","1","2025-04-11 14:35:35","bb671e3ae32f654b8954ea4c4635f915","","Mozilla/5.0 (Windows NT 10.0; Win64; x64) AppleWebKit/537.36 (KHTML, like Gecko) Chrome/134.0.0.0 Safari/537.36","WebKit","Chrome","134.0.0.0","Windows","10.0","https://hz8g1ckzuq.cognition.run/","en-US,en;q=0.9","88fd0klx2gf20uq","29","[""Black or African-American""]","No","Male","2049468.3000000007","null","","<p></p>","null","choice","cdt","repulsion_2","1","washing machines","null","null","null","null","null","null","2","","","","","","","","","",""
"","","","","","choice_trial","survey-html-form","85","1771648","0.0-5.0-1.0","80","1","2025-04-11 14:35:35","bb671e3ae32f654b8954ea4c4635f915","","Mozilla/5.0 (Windows NT 10.0; Win64; x64) AppleWebKit/537.36 (KHTML, like Gecko) Chrome/134.0.0.0 Safari/537.36","WebKit","Chrome","134.0.0.0","Windows","10.0","https://hz8g1ckzuq.cognition.run/","en-US,en;q=0.9","88fd0klx2gf20uq","29","[""Black or African-American""]","No","Male","2049468.3000000007","7888","","","{""product_choice"":""A""}","choice","cdt","repulsion_2","1","washing machines","null","null","null","null","null","null","2","100","90","100","30","40","20","Average lifespan","Energy savings","",""
"","","","","","choice_trial_setup","html-keyboard-response","86","1771966","0.0-5.0-0.1","80","1","2025-04-11 14:35:35","bb671e3ae32f654b8954ea4c4635f915","","Mozilla/5.0 (Windows NT 10.0; Win64; x64) AppleWebKit/537.36 (KHTML, like Gecko) Chrome/134.0.0.0 Safari/537.36","WebKit","Chrome","134.0.0.0","Windows","10.0","https://hz8g1ckzuq.cognition.run/","en-US,en;q=0.9","88fd0klx2gf20uq","29","[""Black or African-American""]","No","Male","2049468.3000000007","null","","<p></p>","null","choice","bww","catch","null","microwave ovens","90","65","50","30","10","5","1","","","","","","","","","",""
"","","","","","choice_trial","survey-html-form","87","1775835","0.0-5.0-1.1","80","1","2025-04-11 14:35:35","bb671e3ae32f654b8954ea4c4635f915","","Mozilla/5.0 (Windows NT 10.0; Win64; x64) AppleWebKit/537.36 (KHTML, like Gecko) Chrome/134.0.0.0 Safari/537.36","WebKit","Chrome","134.0.0.0","Windows","10.0","https://hz8g1ckzuq.cognition.run/","en-US,en;q=0.9","88fd0klx2gf20uq","29","[""Black or African-American""]","No","Male","2049468.3000000007","3860","","","{""product_choice"":""A""}","choice","bww","catch","null","microwave ovens","90","65","50","30","10","5","1","null","null","null","null","null","null","Warranty","Cooking power","",""
"","","","","","choice_trial_setup","html-keyboard-response","88","1776148","0.0-5.0-0.2","80","1","2025-04-11 14:35:35","bb671e3ae32f654b8954ea4c4635f915","","Mozilla/5.0 (Windows NT 10.0; Win64; x64) AppleWebKit/537.36 (KHTML, like Gecko) Chrome/134.0.0.0 Safari/537.36","WebKit","Chrome","134.0.0.0","Windows","10.0","https://hz8g1ckzuq.cognition.run/","en-US,en;q=0.9","88fd0klx2gf20uq","29","[""Black or African-American""]","No","Male","2049468.3000000007","null","","<p></p>","null","choice","wbw","catch","null","laptops","95","75","5","50","30","25","1","","","","","","","","","",""
"","","","","","choice_trial","survey-html-form","89","1779487","0.0-5.0-1.2","80","1","2025-04-11 14:35:35","bb671e3ae32f654b8954ea4c4635f915","","Mozilla/5.0 (Windows NT 10.0; Win64; x64) AppleWebKit/537.36 (KHTML, like Gecko) Chrome/134.0.0.0 Safari/537.36","WebKit","Chrome","134.0.0.0","Windows","10.0","https://hz8g1ckzuq.cognition.run/","en-US,en;q=0.9","88fd0klx2gf20uq","29","[""Black or African-American""]","No","Male","2049468.3000000007","3333","","","{""product_choice"":""B""}","choice","wbw","catch","null","laptops","95","75","5","50","30","25","1","null","null","null","null","null","null","Processing speed","Memory (RAM)","",""
"","","","","","choice_trial_setup","html-keyboard-response","90","1779796","0.0-5.0-0.3","80","1","2025-04-11 14:35:35","bb671e3ae32f654b8954ea4c4635f915","","Mozilla/5.0 (Windows NT 10.0; Win64; x64) AppleWebKit/537.36 (KHTML, like Gecko) Chrome/134.0.0.0 Safari/537.36","WebKit","Chrome","134.0.0.0","Windows","10.0","https://hz8g1ckzuq.cognition.run/","en-US,en;q=0.9","88fd0klx2gf20uq","29","[""Black or African-American""]","No","Male","2049468.3000000007","null","","<p></p>","null","choice","wwb","catch","null","televisions","75","95","15","35","35","30","2","","","","","","","","","",""
"","","","","","choice_trial","survey-html-form","91","1784651","0.0-5.0-1.3","80","1","2025-04-11 14:35:35","bb671e3ae32f654b8954ea4c4635f915","","Mozilla/5.0 (Windows NT 10.0; Win64; x64) AppleWebKit/537.36 (KHTML, like Gecko) Chrome/134.0.0.0 Safari/537.36","WebKit","Chrome","134.0.0.0","Windows","10.0","https://hz8g1ckzuq.cognition.run/","en-US,en;q=0.9","88fd0klx2gf20uq","29","[""Black or African-American""]","No","Male","2049468.3000000007","4835","","","{""product_choice"":""C""}","choice","wwb","catch","null","televisions","75","95","15","35","35","30","2","null","null","null","null","null","null","Screen size","Average lifespan","",""
"","","","","","choice_trial_setup","html-keyboard-response","92","1784966","0.0-5.0-0.4","80","1","2025-04-11 14:35:35","bb671e3ae32f654b8954ea4c4635f915","","Mozilla/5.0 (Windows NT 10.0; Win64; x64) AppleWebKit/537.36 (KHTML, like Gecko) Chrome/134.0.0.0 Safari/537.36","WebKit","Chrome","134.0.0.0","Windows","10.0","https://hz8g1ckzuq.cognition.run/","en-US,en;q=0.9","88fd0klx2gf20uq","29","[""Black or African-American""]","No","Male","2049468.3000000007","null","","<p></p>","null","choice","tcd","repulsion_1","1","microwave ovens","null","null","null","null","null","null","2","","","","","","","","","",""
"","","","","","choice_trial","survey-html-form","93","1788918","0.0-5.0-1.4","80","1","2025-04-11 14:35:35","bb671e3ae32f654b8954ea4c4635f915","","Mozilla/5.0 (Windows NT 10.0; Win64; x64) AppleWebKit/537.36 (KHTML, like Gecko) Chrome/134.0.0.0 Safari/537.36","WebKit","Chrome","134.0.0.0","Windows","10.0","https://hz8g1ckzuq.cognition.run/","en-US,en;q=0.9","88fd0klx2gf20uq","29","[""Black or African-American""]","No","Male","2049468.3000000007","3943","","","{""product_choice"":""B""}","choice","tcd","repulsion_1","1","microwave ovens","null","null","null","null","null","null","2","100","90","100","30","40","25","Warranty","Cooking power","",""
"","","","","","choice_trial_setup","html-keyboard-response","94","1789228","0.0-5.0-0.5","80","1","2025-04-11 14:35:35","bb671e3ae32f654b8954ea4c4635f915","","Mozilla/5.0 (Windows NT 10.0; Win64; x64) AppleWebKit/537.36 (KHTML, like Gecko) Chrome/134.0.0.0 Safari/537.36","WebKit","Chrome","134.0.0.0","Windows","10.0","https://hz8g1ckzuq.cognition.run/","en-US,en;q=0.9","88fd0klx2gf20uq","29","[""Black or African-American""]","No","Male","2049468.3000000007","null","","<p></p>","null","choice","tcd","attraction_2","2","microwave ovens","null","null","null","null","null","null","1","","","","","","","","","",""
"","","","","","choice_trial","survey-html-form","95","1798723","0.0-5.0-1.5","80","1","2025-04-11 14:35:35","bb671e3ae32f654b8954ea4c4635f915","","Mozilla/5.0 (Windows NT 10.0; Win64; x64) AppleWebKit/537.36 (KHTML, like Gecko) Chrome/134.0.0.0 Safari/537.36","WebKit","Chrome","134.0.0.0","Windows","10.0","https://hz8g1ckzuq.cognition.run/","en-US,en;q=0.9","88fd0klx2gf20uq","29","[""Black or African-American""]","No","Male","2049468.3000000007","9487","","","{""product_choice"":""B""}","choice","tcd","attraction_2","2","microwave ovens","null","null","null","null","null","null","1","50","60","40","60","50","60","Warranty","Cooking power","",""
"","","","","","choice_trial_setup","html-keyboard-response","96","1799040","0.0-5.0-0.6","80","1","2025-04-11 14:35:35","bb671e3ae32f654b8954ea4c4635f915","","Mozilla/5.0 (Windows NT 10.0; Win64; x64) AppleWebKit/537.36 (KHTML, like Gecko) Chrome/134.0.0.0 Safari/537.36","WebKit","Chrome","134.0.0.0","Windows","10.0","https://hz8g1ckzuq.cognition.run/","en-US,en;q=0.9","88fd0klx2gf20uq","29","[""Black or African-American""]","No","Male","2049468.3000000007","null","","<p></p>","null","choice","bww","catch","null","microwave ovens","70","55","30","10","30","40","2","","","","","","","","","",""
"","","","","","choice_trial","survey-html-form","97","1802630","0.0-5.0-1.6","80","1","2025-04-11 14:35:35","bb671e3ae32f654b8954ea4c4635f915","","Mozilla/5.0 (Windows NT 10.0; Win64; x64) AppleWebKit/537.36 (KHTML, like Gecko) Chrome/134.0.0.0 Safari/537.36","WebKit","Chrome","134.0.0.0","Windows","10.0","https://hz8g1ckzuq.cognition.run/","en-US,en;q=0.9","88fd0klx2gf20uq","29","[""Black or African-American""]","No","Male","2049468.3000000007","3582","","","{""product_choice"":""A""}","choice","bww","catch","null","microwave ovens","70","55","30","10","30","40","2","null","null","null","null","null","null","Warranty","Cooking power","",""
"","","","","","choice_trial_setup","html-keyboard-response","98","1802948","0.0-5.0-0.7","80","1","2025-04-11 14:35:35","bb671e3ae32f654b8954ea4c4635f915","","Mozilla/5.0 (Windows NT 10.0; Win64; x64) AppleWebKit/537.36 (KHTML, like Gecko) Chrome/134.0.0.0 Safari/537.36","WebKit","Chrome","134.0.0.0","Windows","10.0","https://hz8g1ckzuq.cognition.run/","en-US,en;q=0.9","88fd0klx2gf20uq","29","[""Black or African-American""]","No","Male","2049468.3000000007","null","","<p></p>","null","choice","dct","attraction_2","2","washing machines","null","null","null","null","null","null","2","","","","","","","","","",""
"","","","","","choice_trial","survey-html-form","99","1806003","0.0-5.0-1.7","80","1","2025-04-11 14:35:35","bb671e3ae32f654b8954ea4c4635f915","","Mozilla/5.0 (Windows NT 10.0; Win64; x64) AppleWebKit/537.36 (KHTML, like Gecko) Chrome/134.0.0.0 Safari/537.36","WebKit","Chrome","134.0.0.0","Windows","10.0","https://hz8g1ckzuq.cognition.run/","en-US,en;q=0.9","88fd0klx2gf20uq","29","[""Black or African-American""]","No","Male","2049468.3000000007","3039","","","{""product_choice"":""C""}","choice","dct","attraction_2","2","washing machines","null","null","null","null","null","null","2","50","60","40","60","50","60","Average lifespan","Energy savings","",""
"","","","","","choice_trial_setup","html-keyboard-response","100","1806319","0.0-5.0-0.8","80","1","2025-04-11 14:35:35","bb671e3ae32f654b8954ea4c4635f915","","Mozilla/5.0 (Windows NT 10.0; Win64; x64) AppleWebKit/537.36 (KHTML, like Gecko) Chrome/134.0.0.0 Safari/537.36","WebKit","Chrome","134.0.0.0","Windows","10.0","https://hz8g1ckzuq.cognition.run/","en-US,en;q=0.9","88fd0klx2gf20uq","29","[""Black or African-American""]","No","Male","2049468.3000000007","null","","<p></p>","null","choice","tcd","repulsion_2","2","washing machines","null","null","null","null","null","null","1","","","","","","","","","",""
"","","","","","choice_trial","survey-html-form","101","1810330","0.0-5.0-1.8","80","1","2025-04-11 14:35:35","bb671e3ae32f654b8954ea4c4635f915","","Mozilla/5.0 (Windows NT 10.0; Win64; x64) AppleWebKit/537.36 (KHTML, like Gecko) Chrome/134.0.0.0 Safari/537.36","WebKit","Chrome","134.0.0.0","Windows","10.0","https://hz8g1ckzuq.cognition.run/","en-US,en;q=0.9","88fd0klx2gf20uq","29","[""Black or African-American""]","No","Male","2049468.3000000007","4003","","","{""product_choice"":""B""}","choice","tcd","repulsion_2","2","washing machines","null","null","null","null","null","null","1","30","40","20","100","90","100","Average lifespan","Energy savings","",""
"","","","","","choice_trial_setup","html-keyboard-response","102","1810642","0.0-5.0-0.9","80","1","2025-04-11 14:35:35","bb671e3ae32f654b8954ea4c4635f915","","Mozilla/5.0 (Windows NT 10.0; Win64; x64) AppleWebKit/537.36 (KHTML, like Gecko) Chrome/134.0.0.0 Safari/537.36","WebKit","Chrome","134.0.0.0","Windows","10.0","https://hz8g1ckzuq.cognition.run/","en-US,en;q=0.9","88fd0klx2gf20uq","29","[""Black or African-American""]","No","Male","2049468.3000000007","null","","<p></p>","null","choice","ctd","repulsion_1","2","washing machines","null","null","null","null","null","null","2","","","","","","","","","",""
"","","","","","choice_trial","survey-html-form","103","1821018","0.0-5.0-1.9","80","1","2025-04-11 14:35:35","bb671e3ae32f654b8954ea4c4635f915","","Mozilla/5.0 (Windows NT 10.0; Win64; x64) AppleWebKit/537.36 (KHTML, like Gecko) Chrome/134.0.0.0 Safari/537.36","WebKit","Chrome","134.0.0.0","Windows","10.0","https://hz8g1ckzuq.cognition.run/","en-US,en;q=0.9","88fd0klx2gf20uq","29","[""Black or African-American""]","No","Male","2049468.3000000007","10358","","","{""product_choice"":""A""}","choice","ctd","repulsion_1","2","washing machines","null","null","null","null","null","null","2","30","40","25","100","90","100","Average lifespan","Energy savings","",""
"","","","","","choice_trial_setup","html-keyboard-response","104","1821343","0.0-5.0-0.10","80","1","2025-04-11 14:35:35","bb671e3ae32f654b8954ea4c4635f915","","Mozilla/5.0 (Windows NT 10.0; Win64; x64) AppleWebKit/537.36 (KHTML, like Gecko) Chrome/134.0.0.0 Safari/537.36","WebKit","Chrome","134.0.0.0","Windows","10.0","https://hz8g1ckzuq.cognition.run/","en-US,en;q=0.9","88fd0klx2gf20uq","29","[""Black or African-American""]","No","Male","2049468.3000000007","null","","<p></p>","null","choice","wbw","catch","null","laptops","85","90","30","15","40","40","1","","","","","","","","","",""
"","","","","","choice_trial","survey-html-form","105","1826032","0.0-5.0-1.10","80","1","2025-04-11 14:35:35","bb671e3ae32f654b8954ea4c4635f915","","Mozilla/5.0 (Windows NT 10.0; Win64; x64) AppleWebKit/537.36 (KHTML, like Gecko) Chrome/134.0.0.0 Safari/537.36","WebKit","Chrome","134.0.0.0","Windows","10.0","https://hz8g1ckzuq.cognition.run/","en-US,en;q=0.9","88fd0klx2gf20uq","29","[""Black or African-American""]","No","Male","2049468.3000000007","4678","","","{""product_choice"":""B""}","choice","wbw","catch","null","laptops","85","90","30","15","40","40","1","null","null","null","null","null","null","Processing speed","Memory (RAM)","",""
"","","","","","choice_trial_setup","html-keyboard-response","106","1826354","0.0-5.0-0.11","80","1","2025-04-11 14:35:35","bb671e3ae32f654b8954ea4c4635f915","","Mozilla/5.0 (Windows NT 10.0; Win64; x64) AppleWebKit/537.36 (KHTML, like Gecko) Chrome/134.0.0.0 Safari/537.36","WebKit","Chrome","134.0.0.0","Windows","10.0","https://hz8g1ckzuq.cognition.run/","en-US,en;q=0.9","88fd0klx2gf20uq","29","[""Black or African-American""]","No","Male","2049468.3000000007","null","","<p></p>","null","choice","tcd","repulsion_2","1","microwave ovens","null","null","null","null","null","null","2","","","","","","","","","",""
"","","","","","choice_trial","survey-html-form","107","1829131","0.0-5.0-1.11","80","1","2025-04-11 14:35:35","bb671e3ae32f654b8954ea4c4635f915","","Mozilla/5.0 (Windows NT 10.0; Win64; x64) AppleWebKit/537.36 (KHTML, like Gecko) Chrome/134.0.0.0 Safari/537.36","WebKit","Chrome","134.0.0.0","Windows","10.0","https://hz8g1ckzuq.cognition.run/","en-US,en;q=0.9","88fd0klx2gf20uq","29","[""Black or African-American""]","No","Male","2049468.3000000007","2768","","","{""product_choice"":""A""}","choice","tcd","repulsion_2","1","microwave ovens","null","null","null","null","null","null","2","100","90","100","30","40","20","Warranty","Cooking power","",""
"","","","","","choice_trial_setup","html-keyboard-response","108","1829444","0.0-5.0-0.12","80","1","2025-04-11 14:35:35","bb671e3ae32f654b8954ea4c4635f915","","Mozilla/5.0 (Windows NT 10.0; Win64; x64) AppleWebKit/537.36 (KHTML, like Gecko) Chrome/134.0.0.0 Safari/537.36","WebKit","Chrome","134.0.0.0","Windows","10.0","https://hz8g1ckzuq.cognition.run/","en-US,en;q=0.9","88fd0klx2gf20uq","29","[""Black or African-American""]","No","Male","2049468.3000000007","null","","<p></p>","null","choice","cdt","repulsion_1","1","laptops","null","null","null","null","null","null","1","","","","","","","","","",""
"","","","","","choice_trial","survey-html-form","109","1835115","0.0-5.0-1.12","80","1","2025-04-11 14:35:35","bb671e3ae32f654b8954ea4c4635f915","","Mozilla/5.0 (Windows NT 10.0; Win64; x64) AppleWebKit/537.36 (KHTML, like Gecko) Chrome/134.0.0.0 Safari/537.36","WebKit","Chrome","134.0.0.0","Windows","10.0","https://hz8g1ckzuq.cognition.run/","en-US,en;q=0.9","88fd0klx2gf20uq","29","[""Black or African-American""]","No","Male","2049468.3000000007","5654","","","{""product_choice"":""A""}","choice","cdt","repulsion_1","1","laptops","null","null","null","null","null","null","1","100","90","100","30","40","25","Processing speed","Memory (RAM)","",""
"","","","","","choice_trial_setup","html-keyboard-response","110","1835434","0.0-5.0-0.13","80","1","2025-04-11 14:35:35","bb671e3ae32f654b8954ea4c4635f915","","Mozilla/5.0 (Windows NT 10.0; Win64; x64) AppleWebKit/537.36 (KHTML, like Gecko) Chrome/134.0.0.0 Safari/537.36","WebKit","Chrome","134.0.0.0","Windows","10.0","https://hz8g1ckzuq.cognition.run/","en-US,en;q=0.9","88fd0klx2gf20uq","29","[""Black or African-American""]","No","Male","2049468.3000000007","null","","<p></p>","null","choice","dct","repulsion_1","1","washing machines","null","null","null","null","null","null","2","","","","","","","","","",""
"","","","","","choice_trial","survey-html-form","111","1840159","0.0-5.0-1.13","80","1","2025-04-11 14:35:35","bb671e3ae32f654b8954ea4c4635f915","","Mozilla/5.0 (Windows NT 10.0; Win64; x64) AppleWebKit/537.36 (KHTML, like Gecko) Chrome/134.0.0.0 Safari/537.36","WebKit","Chrome","134.0.0.0","Windows","10.0","https://hz8g1ckzuq.cognition.run/","en-US,en;q=0.9","88fd0klx2gf20uq","29","[""Black or African-American""]","No","Male","2049468.3000000007","4706","","","{""product_choice"":""B""}","choice","dct","repulsion_1","1","washing machines","null","null","null","null","null","null","2","100","90","100","30","40","25","Average lifespan","Energy savings","",""
"","","","","","choice_trial_setup","html-keyboard-response","112","1840470","0.0-5.0-0.14","80","1","2025-04-11 14:35:35","bb671e3ae32f654b8954ea4c4635f915","","Mozilla/5.0 (Windows NT 10.0; Win64; x64) AppleWebKit/537.36 (KHTML, like Gecko) Chrome/134.0.0.0 Safari/537.36","WebKit","Chrome","134.0.0.0","Windows","10.0","https://hz8g1ckzuq.cognition.run/","en-US,en;q=0.9","88fd0klx2gf20uq","29","[""Black or African-American""]","No","Male","2049468.3000000007","null","","<p></p>","null","choice","wbw","catch","null","televisions","90","55","30","30","15","10","2","","","","","","","","","",""
"","","","","","choice_trial","survey-html-form","113","1842929","0.0-5.0-1.14","80","1","2025-04-11 14:35:35","bb671e3ae32f654b8954ea4c4635f915","","Mozilla/5.0 (Windows NT 10.0; Win64; x64) AppleWebKit/537.36 (KHTML, like Gecko) Chrome/134.0.0.0 Safari/537.36","WebKit","Chrome","134.0.0.0","Windows","10.0","https://hz8g1ckzuq.cognition.run/","en-US,en;q=0.9","88fd0klx2gf20uq","29","[""Black or African-American""]","No","Male","2049468.3000000007","2440","","","{""product_choice"":""B""}","choice","wbw","catch","null","televisions","90","55","30","30","15","10","2","null","null","null","null","null","null","Screen size","Average lifespan","",""
"","","","","","choice_trial_setup","html-keyboard-response","114","1843249","0.0-5.0-0.15","80","1","2025-04-11 14:35:35","bb671e3ae32f654b8954ea4c4635f915","","Mozilla/5.0 (Windows NT 10.0; Win64; x64) AppleWebKit/537.36 (KHTML, like Gecko) Chrome/134.0.0.0 Safari/537.36","WebKit","Chrome","134.0.0.0","Windows","10.0","https://hz8g1ckzuq.cognition.run/","en-US,en;q=0.9","88fd0klx2gf20uq","29","[""Black or African-American""]","No","Male","2049468.3000000007","null","","<p></p>","null","choice","dct","attraction_2","2","laptops","null","null","null","null","null","null","1","","","","","","","","","",""
"","","","","","choice_trial","survey-html-form","115","1852164","0.0-5.0-1.15","80","1","2025-04-11 14:35:35","bb671e3ae32f654b8954ea4c4635f915","","Mozilla/5.0 (Windows NT 10.0; Win64; x64) AppleWebKit/537.36 (KHTML, like Gecko) Chrome/134.0.0.0 Safari/537.36","WebKit","Chrome","134.0.0.0","Windows","10.0","https://hz8g1ckzuq.cognition.run/","en-US,en;q=0.9","88fd0klx2gf20uq","29","[""Black or African-American""]","No","Male","2049468.3000000007","8897","","","{""product_choice"":""B""}","choice","dct","attraction_2","2","laptops","null","null","null","null","null","null","1","50","60","40","60","50","60","Processing speed","Memory (RAM)","",""
"","","","","","choice_trial_setup","html-keyboard-response","116","1852476","0.0-5.0-0.16","80","1","2025-04-11 14:35:35","bb671e3ae32f654b8954ea4c4635f915","","Mozilla/5.0 (Windows NT 10.0; Win64; x64) AppleWebKit/537.36 (KHTML, like Gecko) Chrome/134.0.0.0 Safari/537.36","WebKit","Chrome","134.0.0.0","Windows","10.0","https://hz8g1ckzuq.cognition.run/","en-US,en;q=0.9","88fd0klx2gf20uq","29","[""Black or African-American""]","No","Male","2049468.3000000007","null","","<p></p>","null","choice","dtc","attraction_1","1","washing machines","null","null","null","null","null","null","2","","","","","","","","","",""
"","","","","","choice_trial","survey-html-form","117","1860531","0.0-5.0-1.16","80","1","2025-04-11 14:35:35","bb671e3ae32f654b8954ea4c4635f915","","Mozilla/5.0 (Windows NT 10.0; Win64; x64) AppleWebKit/537.36 (KHTML, like Gecko) Chrome/134.0.0.0 Safari/537.36","WebKit","Chrome","134.0.0.0","Windows","10.0","https://hz8g1ckzuq.cognition.run/","en-US,en;q=0.9","88fd0klx2gf20uq","29","[""Black or African-American""]","No","Male","2049468.3000000007","8036","","","{""product_choice"":""C""}","choice","dtc","attraction_1","1","washing machines","null","null","null","null","null","null","2","60","50","60","50","60","45","Average lifespan","Energy savings","",""
"","","","","","choice_trial_setup","html-keyboard-response","118","1860848","0.0-5.0-0.17","80","1","2025-04-11 14:35:35","bb671e3ae32f654b8954ea4c4635f915","","Mozilla/5.0 (Windows NT 10.0; Win64; x64) AppleWebKit/537.36 (KHTML, like Gecko) Chrome/134.0.0.0 Safari/537.36","WebKit","Chrome","134.0.0.0","Windows","10.0","https://hz8g1ckzuq.cognition.run/","en-US,en;q=0.9","88fd0klx2gf20uq","29","[""Black or African-American""]","No","Male","2049468.3000000007","null","","<p></p>","null","choice","dtc","attraction_2","2","televisions","null","null","null","null","null","null","2","","","","","","","","","",""
"","","","","","choice_trial","survey-html-form","119","1867045","0.0-5.0-1.17","80","1","2025-04-11 14:35:35","bb671e3ae32f654b8954ea4c4635f915","","Mozilla/5.0 (Windows NT 10.0; Win64; x64) AppleWebKit/537.36 (KHTML, like Gecko) Chrome/134.0.0.0 Safari/537.36","WebKit","Chrome","134.0.0.0","Windows","10.0","https://hz8g1ckzuq.cognition.run/","en-US,en;q=0.9","88fd0klx2gf20uq","29","[""Black or African-American""]","No","Male","2049468.3000000007","6179","","","{""product_choice"":""C""}","choice","dtc","attraction_2","2","televisions","null","null","null","null","null","null","2","50","60","40","60","50","60","Screen size","Average lifespan","",""
"","","","","","choice_trial_setup","html-keyboard-response","120","1867360","0.0-5.0-0.18","80","1","2025-04-11 14:35:35","bb671e3ae32f654b8954ea4c4635f915","","Mozilla/5.0 (Windows NT 10.0; Win64; x64) AppleWebKit/537.36 (KHTML, like Gecko) Chrome/134.0.0.0 Safari/537.36","WebKit","Chrome","134.0.0.0","Windows","10.0","https://hz8g1ckzuq.cognition.run/","en-US,en;q=0.9","88fd0klx2gf20uq","29","[""Black or African-American""]","No","Male","2049468.3000000007","null","","<p></p>","null","choice","dtc","repulsion_1","1","televisions","null","null","null","null","null","null","1","","","","","","","","","",""
"","","","","","choice_trial","survey-html-form","121","1874888","0.0-5.0-1.18","80","1","2025-04-11 14:35:35","bb671e3ae32f654b8954ea4c4635f915","","Mozilla/5.0 (Windows NT 10.0; Win64; x64) AppleWebKit/537.36 (KHTML, like Gecko) Chrome/134.0.0.0 Safari/537.36","WebKit","Chrome","134.0.0.0","Windows","10.0","https://hz8g1ckzuq.cognition.run/","en-US,en;q=0.9","88fd0klx2gf20uq","29","[""Black or African-American""]","No","Male","2049468.3000000007","7509","","","{""product_choice"":""C""}","choice","dtc","repulsion_1","1","televisions","null","null","null","null","null","null","1","100","90","100","30","40","25","Screen size","Average lifespan","",""
"","","","","","choice_trial_setup","html-keyboard-response","122","1875202","0.0-5.0-0.19","80","1","2025-04-11 14:35:35","bb671e3ae32f654b8954ea4c4635f915","","Mozilla/5.0 (Windows NT 10.0; Win64; x64) AppleWebKit/537.36 (KHTML, like Gecko) Chrome/134.0.0.0 Safari/537.36","WebKit","Chrome","134.0.0.0","Windows","10.0","https://hz8g1ckzuq.cognition.run/","en-US,en;q=0.9","88fd0klx2gf20uq","29","[""Black or African-American""]","No","Male","2049468.3000000007","null","","<p></p>","null","choice","cdt","repulsion_2","1","televisions","null","null","null","null","null","null","1","","","","","","","","","",""
"","","","","","choice_trial","survey-html-form","123","1878848","0.0-5.0-1.19","80","1","2025-04-11 14:35:35","bb671e3ae32f654b8954ea4c4635f915","","Mozilla/5.0 (Windows NT 10.0; Win64; x64) AppleWebKit/537.36 (KHTML, like Gecko) Chrome/134.0.0.0 Safari/537.36","WebKit","Chrome","134.0.0.0","Windows","10.0","https://hz8g1ckzuq.cognition.run/","en-US,en;q=0.9","88fd0klx2gf20uq","29","[""Black or African-American""]","No","Male","2049468.3000000007","3626","","","{""product_choice"":""A""}","choice","cdt","repulsion_2","1","televisions","null","null","null","null","null","null","1","100","90","100","30","40","20","Screen size","Average lifespan","",""
"","","","","","choice_trial_setup","html-keyboard-response","124","1879167","0.0-5.0-0.20","80","1","2025-04-11 14:35:35","bb671e3ae32f654b8954ea4c4635f915","","Mozilla/5.0 (Windows NT 10.0; Win64; x64) AppleWebKit/537.36 (KHTML, like Gecko) Chrome/134.0.0.0 Safari/537.36","WebKit","Chrome","134.0.0.0","Windows","10.0","https://hz8g1ckzuq.cognition.run/","en-US,en;q=0.9","88fd0klx2gf20uq","29","[""Black or African-American""]","No","Male","2049468.3000000007","null","","<p></p>","null","choice","bww","catch","null","washing machines","75","85","25","5","30","40","1","","","","","","","","","",""
"","","","","","choice_trial","survey-html-form","125","1882275","0.0-5.0-1.20","80","1","2025-04-11 14:35:35","bb671e3ae32f654b8954ea4c4635f915","","Mozilla/5.0 (Windows NT 10.0; Win64; x64) AppleWebKit/537.36 (KHTML, like Gecko) Chrome/134.0.0.0 Safari/537.36","WebKit","Chrome","134.0.0.0","Windows","10.0","https://hz8g1ckzuq.cognition.run/","en-US,en;q=0.9","88fd0klx2gf20uq","29","[""Black or African-American""]","No","Male","2049468.3000000007","3088","","","{""product_choice"":""A""}","choice","bww","catch","null","washing machines","75","85","25","5","30","40","1","null","null","null","null","null","null","Average lifespan","Energy savings","",""
"","","","","","choice_trial_setup","html-keyboard-response","126","1882600","0.0-5.0-0.21","80","1","2025-04-11 14:35:35","bb671e3ae32f654b8954ea4c4635f915","","Mozilla/5.0 (Windows NT 10.0; Win64; x64) AppleWebKit/537.36 (KHTML, like Gecko) Chrome/134.0.0.0 Safari/537.36","WebKit","Chrome","134.0.0.0","Windows","10.0","https://hz8g1ckzuq.cognition.run/","en-US,en;q=0.9","88fd0klx2gf20uq","29","[""Black or African-American""]","No","Male","2049468.3000000007","null","","<p></p>","null","choice","ctd","repulsion_1","2","laptops","null","null","null","null","null","null","2","","","","","","","","","",""
"","","","","","choice_trial","survey-html-form","127","1884782","0.0-5.0-1.21","80","1","2025-04-11 14:35:35","bb671e3ae32f654b8954ea4c4635f915","","Mozilla/5.0 (Windows NT 10.0; Win64; x64) AppleWebKit/537.36 (KHTML, like Gecko) Chrome/134.0.0.0 Safari/537.36","WebKit","Chrome","134.0.0.0","Windows","10.0","https://hz8g1ckzuq.cognition.run/","en-US,en;q=0.9","88fd0klx2gf20uq","29","[""Black or African-American""]","No","Male","2049468.3000000007","2160","","","{""product_choice"":""A""}","choice","ctd","repulsion_1","2","laptops","null","null","null","null","null","null","2","30","40","25","100","90","100","Processing speed","Memory (RAM)","",""
"","","","","","choice_trial_setup","html-keyboard-response","128","1885096","0.0-5.0-0.22","80","1","2025-04-11 14:35:35","bb671e3ae32f654b8954ea4c4635f915","","Mozilla/5.0 (Windows NT 10.0; Win64; x64) AppleWebKit/537.36 (KHTML, like Gecko) Chrome/134.0.0.0 Safari/537.36","WebKit","Chrome","134.0.0.0","Windows","10.0","https://hz8g1ckzuq.cognition.run/","en-US,en;q=0.9","88fd0klx2gf20uq","29","[""Black or African-American""]","No","Male","2049468.3000000007","null","","<p></p>","null","choice","dtc","repulsion_2","2","microwave ovens","null","null","null","null","null","null","2","","","","","","","","","",""
"","","","","","choice_trial","survey-html-form","129","1889913","0.0-5.0-1.22","80","1","2025-04-11 14:35:35","bb671e3ae32f654b8954ea4c4635f915","","Mozilla/5.0 (Windows NT 10.0; Win64; x64) AppleWebKit/537.36 (KHTML, like Gecko) Chrome/134.0.0.0 Safari/537.36","WebKit","Chrome","134.0.0.0","Windows","10.0","https://hz8g1ckzuq.cognition.run/","en-US,en;q=0.9","88fd0klx2gf20uq","29","[""Black or African-American""]","No","Male","2049468.3000000007","4797","","","{""product_choice"":""C""}","choice","dtc","repulsion_2","2","microwave ovens","null","null","null","null","null","null","2","30","40","20","100","90","100","Warranty","Cooking power","",""
"","","","","","choice_trial_setup","html-keyboard-response","130","1890225","0.0-5.0-0.23","80","1","2025-04-11 14:35:35","bb671e3ae32f654b8954ea4c4635f915","","Mozilla/5.0 (Windows NT 10.0; Win64; x64) AppleWebKit/537.36 (KHTML, like Gecko) Chrome/134.0.0.0 Safari/537.36","WebKit","Chrome","134.0.0.0","Windows","10.0","https://hz8g1ckzuq.cognition.run/","en-US,en;q=0.9","88fd0klx2gf20uq","29","[""Black or African-American""]","No","Male","2049468.3000000007","null","","<p></p>","null","choice","tcd","attraction_2","1","microwave ovens","null","null","null","null","null","null","1","","","","","","","","","",""
"","","","","","choice_trial","survey-html-form","131","1894173","0.0-5.0-1.23","80","1","2025-04-11 14:35:35","bb671e3ae32f654b8954ea4c4635f915","","Mozilla/5.0 (Windows NT 10.0; Win64; x64) AppleWebKit/537.36 (KHTML, like Gecko) Chrome/134.0.0.0 Safari/537.36","WebKit","Chrome","134.0.0.0","Windows","10.0","https://hz8g1ckzuq.cognition.run/","en-US,en;q=0.9","88fd0klx2gf20uq","29","[""Black or African-American""]","No","Male","2049468.3000000007","3930","","","{""product_choice"":""B""}","choice","tcd","attraction_2","1","microwave ovens","null","null","null","null","null","null","1","60","50","60","50","60","40","Warranty","Cooking power","",""
"","","","","","choice_trial_setup","html-keyboard-response","132","1894486","0.0-5.0-0.24","80","1","2025-04-11 14:35:35","bb671e3ae32f654b8954ea4c4635f915","","Mozilla/5.0 (Windows NT 10.0; Win64; x64) AppleWebKit/537.36 (KHTML, like Gecko) Chrome/134.0.0.0 Safari/537.36","WebKit","Chrome","134.0.0.0","Windows","10.0","https://hz8g1ckzuq.cognition.run/","en-US,en;q=0.9","88fd0klx2gf20uq","29","[""Black or African-American""]","No","Male","2049468.3000000007","null","","<p></p>","null","choice","ctd","attraction_1","1","televisions","null","null","null","null","null","null","1","","","","","","","","","",""
"","","","","","choice_trial","survey-html-form","133","1899323","0.0-5.0-1.24","80","1","2025-04-11 14:35:35","bb671e3ae32f654b8954ea4c4635f915","","Mozilla/5.0 (Windows NT 10.0; Win64; x64) AppleWebKit/537.36 (KHTML, like Gecko) Chrome/134.0.0.0 Safari/537.36","WebKit","Chrome","134.0.0.0","Windows","10.0","https://hz8g1ckzuq.cognition.run/","en-US,en;q=0.9","88fd0klx2gf20uq","29","[""Black or African-American""]","No","Male","2049468.3000000007","4813","","","{""product_choice"":""A""}","choice","ctd","attraction_1","1","televisions","null","null","null","null","null","null","1","60","50","60","50","60","45","Screen size","Average lifespan","",""
"","","","","","choice_trial_setup","html-keyboard-response","134","1899646","0.0-5.0-0.25","80","1","2025-04-11 14:35:35","bb671e3ae32f654b8954ea4c4635f915","","Mozilla/5.0 (Windows NT 10.0; Win64; x64) AppleWebKit/537.36 (KHTML, like Gecko) Chrome/134.0.0.0 Safari/537.36","WebKit","Chrome","134.0.0.0","Windows","10.0","https://hz8g1ckzuq.cognition.run/","en-US,en;q=0.9","88fd0klx2gf20uq","29","[""Black or African-American""]","No","Male","2049468.3000000007","null","","<p></p>","null","choice","ctd","repulsion_2","2","laptops","null","null","null","null","null","null","2","","","","","","","","","",""
"","","","","","choice_trial","survey-html-form","135","1902383","0.0-5.0-1.25","80","1","2025-04-11 14:35:35","bb671e3ae32f654b8954ea4c4635f915","","Mozilla/5.0 (Windows NT 10.0; Win64; x64) AppleWebKit/537.36 (KHTML, like Gecko) Chrome/134.0.0.0 Safari/537.36","WebKit","Chrome","134.0.0.0","Windows","10.0","https://hz8g1ckzuq.cognition.run/","en-US,en;q=0.9","88fd0klx2gf20uq","29","[""Black or African-American""]","No","Male","2049468.3000000007","2719","","","{""product_choice"":""A""}","choice","ctd","repulsion_2","2","laptops","null","null","null","null","null","null","2","30","40","20","100","90","100","Processing speed","Memory (RAM)","",""
"","","","","","choice_trial_setup","html-keyboard-response","136","1902703","0.0-5.0-0.26","80","1","2025-04-11 14:35:35","bb671e3ae32f654b8954ea4c4635f915","","Mozilla/5.0 (Windows NT 10.0; Win64; x64) AppleWebKit/537.36 (KHTML, like Gecko) Chrome/134.0.0.0 Safari/537.36","WebKit","Chrome","134.0.0.0","Windows","10.0","https://hz8g1ckzuq.cognition.run/","en-US,en;q=0.9","88fd0klx2gf20uq","29","[""Black or African-American""]","No","Male","2049468.3000000007","null","","<p></p>","null","choice","dtc","attraction_2","1","televisions","null","null","null","null","null","null","2","","","","","","","","","",""
"","","","","","choice_trial","survey-html-form","137","1909511","0.0-5.0-1.26","80","1","2025-04-11 14:35:35","bb671e3ae32f654b8954ea4c4635f915","","Mozilla/5.0 (Windows NT 10.0; Win64; x64) AppleWebKit/537.36 (KHTML, like Gecko) Chrome/134.0.0.0 Safari/537.36","WebKit","Chrome","134.0.0.0","Windows","10.0","https://hz8g1ckzuq.cognition.run/","en-US,en;q=0.9","88fd0klx2gf20uq","29","[""Black or African-American""]","No","Male","2049468.3000000007","6784","","","{""product_choice"":""C""}","choice","dtc","attraction_2","1","televisions","null","null","null","null","null","null","2","60","50","60","50","60","40","Screen size","Average lifespan","",""
"","","","","","choice_trial_setup","html-keyboard-response","138","1909830","0.0-5.0-0.27","80","1","2025-04-11 14:35:35","bb671e3ae32f654b8954ea4c4635f915","","Mozilla/5.0 (Windows NT 10.0; Win64; x64) AppleWebKit/537.36 (KHTML, like Gecko) Chrome/134.0.0.0 Safari/537.36","WebKit","Chrome","134.0.0.0","Windows","10.0","https://hz8g1ckzuq.cognition.run/","en-US,en;q=0.9","88fd0klx2gf20uq","29","[""Black or African-American""]","No","Male","2049468.3000000007","null","","<p></p>","null","choice","tdc","attraction_1","2","washing machines","null","null","null","null","null","null","1","","","","","","","","","",""
"","","","","","choice_trial","survey-html-form","139","1913733","0.0-5.0-1.27","80","1","2025-04-11 14:35:35","bb671e3ae32f654b8954ea4c4635f915","","Mozilla/5.0 (Windows NT 10.0; Win64; x64) AppleWebKit/537.36 (KHTML, like Gecko) Chrome/134.0.0.0 Safari/537.36","WebKit","Chrome","134.0.0.0","Windows","10.0","https://hz8g1ckzuq.cognition.run/","en-US,en;q=0.9","88fd0klx2gf20uq","29","[""Black or African-American""]","No","Male","2049468.3000000007","3881","","","{""product_choice"":""C""}","choice","tdc","attraction_1","2","washing machines","null","null","null","null","null","null","1","50","60","45","60","50","60","Average lifespan","Energy savings","",""
"","","","","","choice_trial_setup","html-keyboard-response","140","1914051","0.0-5.0-0.28","80","1","2025-04-11 14:35:35","bb671e3ae32f654b8954ea4c4635f915","","Mozilla/5.0 (Windows NT 10.0; Win64; x64) AppleWebKit/537.36 (KHTML, like Gecko) Chrome/134.0.0.0 Safari/537.36","WebKit","Chrome","134.0.0.0","Windows","10.0","https://hz8g1ckzuq.cognition.run/","en-US,en;q=0.9","88fd0klx2gf20uq","29","[""Black or African-American""]","No","Male","2049468.3000000007","null","","<p></p>","null","choice","dct","repulsion_2","1","laptops","null","null","null","null","null","null","1","","","","","","","","","",""
"","","","","","choice_trial","survey-html-form","141","1917746","0.0-5.0-1.28","80","1","2025-04-11 14:35:35","bb671e3ae32f654b8954ea4c4635f915","","Mozilla/5.0 (Windows NT 10.0; Win64; x64) AppleWebKit/537.36 (KHTML, like Gecko) Chrome/134.0.0.0 Safari/537.36","WebKit","Chrome","134.0.0.0","Windows","10.0","https://hz8g1ckzuq.cognition.run/","en-US,en;q=0.9","88fd0klx2gf20uq","29","[""Black or African-American""]","No","Male","2049468.3000000007","3676","","","{""product_choice"":""B""}","choice","dct","repulsion_2","1","laptops","null","null","null","null","null","null","1","100","90","100","30","40","20","Processing speed","Memory (RAM)","",""
"","","","","","choice_trial_setup","html-keyboard-response","142","1918060","0.0-5.0-0.29","80","1","2025-04-11 14:35:35","bb671e3ae32f654b8954ea4c4635f915","","Mozilla/5.0 (Windows NT 10.0; Win64; x64) AppleWebKit/537.36 (KHTML, like Gecko) Chrome/134.0.0.0 Safari/537.36","WebKit","Chrome","134.0.0.0","Windows","10.0","https://hz8g1ckzuq.cognition.run/","en-US,en;q=0.9","88fd0klx2gf20uq","29","[""Black or African-American""]","No","Male","2049468.3000000007","null","","<p></p>","null","choice","dct","repulsion_1","2","televisions","null","null","null","null","null","null","1","","","","","","","","","",""
"","","","","","choice_trial","survey-html-form","143","1921248","0.0-5.0-1.29","80","1","2025-04-11 14:35:35","bb671e3ae32f654b8954ea4c4635f915","","Mozilla/5.0 (Windows NT 10.0; Win64; x64) AppleWebKit/537.36 (KHTML, like Gecko) Chrome/134.0.0.0 Safari/537.36","WebKit","Chrome","134.0.0.0","Windows","10.0","https://hz8g1ckzuq.cognition.run/","en-US,en;q=0.9","88fd0klx2gf20uq","29","[""Black or African-American""]","No","Male","2049468.3000000007","3165","","","{""product_choice"":""B""}","choice","dct","repulsion_1","2","televisions","null","null","null","null","null","null","1","30","40","25","100","90","100","Screen size","Average lifespan","",""
"","","","","","choice_trial_setup","html-keyboard-response","144","1921567","0.0-5.0-0.30","80","1","2025-04-11 14:35:35","bb671e3ae32f654b8954ea4c4635f915","","Mozilla/5.0 (Windows NT 10.0; Win64; x64) AppleWebKit/537.36 (KHTML, like Gecko) Chrome/134.0.0.0 Safari/537.36","WebKit","Chrome","134.0.0.0","Windows","10.0","https://hz8g1ckzuq.cognition.run/","en-US,en;q=0.9","88fd0klx2gf20uq","29","[""Black or African-American""]","No","Male","2049468.3000000007","null","","<p></p>","null","choice","wbw","catch","null","washing machines","55","90","15","40","20","30","1","","","","","","","","","",""
"","","","","","choice_trial","survey-html-form","145","1924558","0.0-5.0-1.30","80","1","2025-04-11 14:35:35","bb671e3ae32f654b8954ea4c4635f915","","Mozilla/5.0 (Windows NT 10.0; Win64; x64) AppleWebKit/537.36 (KHTML, like Gecko) Chrome/134.0.0.0 Safari/537.36","WebKit","Chrome","134.0.0.0","Windows","10.0","https://hz8g1ckzuq.cognition.run/","en-US,en;q=0.9","88fd0klx2gf20uq","29","[""Black or African-American""]","No","Male","2049468.3000000007","2969","","","{""product_choice"":""B""}","choice","wbw","catch","null","washing machines","55","90","15","40","20","30","1","null","null","null","null","null","null","Average lifespan","Energy savings","",""
"","","","","","choice_trial_setup","html-keyboard-response","146","1924872","0.0-5.0-0.31","80","1","2025-04-11 14:35:35","bb671e3ae32f654b8954ea4c4635f915","","Mozilla/5.0 (Windows NT 10.0; Win64; x64) AppleWebKit/537.36 (KHTML, like Gecko) Chrome/134.0.0.0 Safari/537.36","WebKit","Chrome","134.0.0.0","Windows","10.0","https://hz8g1ckzuq.cognition.run/","en-US,en;q=0.9","88fd0klx2gf20uq","29","[""Black or African-American""]","No","Male","2049468.3000000007","null","","<p></p>","null","choice","dtc","attraction_1","2","microwave ovens","null","null","null","null","null","null","2","","","","","","","","","",""
"","","","","","choice_trial","survey-html-form","147","1930350","0.0-5.0-1.31","80","1","2025-04-11 14:35:35","bb671e3ae32f654b8954ea4c4635f915","","Mozilla/5.0 (Windows NT 10.0; Win64; x64) AppleWebKit/537.36 (KHTML, like Gecko) Chrome/134.0.0.0 Safari/537.36","WebKit","Chrome","134.0.0.0","Windows","10.0","https://hz8g1ckzuq.cognition.run/","en-US,en;q=0.9","88fd0klx2gf20uq","29","[""Black or African-American""]","No","Male","2049468.3000000007","5472","","","{""product_choice"":""B""}","choice","dtc","attraction_1","2","microwave ovens","null","null","null","null","null","null","2","50","60","45","60","50","60","Warranty","Cooking power","",""
"","","","","","choice_trial_setup","html-keyboard-response","148","1930676","0.0-5.0-0.32","80","1","2025-04-11 14:35:35","bb671e3ae32f654b8954ea4c4635f915","","Mozilla/5.0 (Windows NT 10.0; Win64; x64) AppleWebKit/537.36 (KHTML, like Gecko) Chrome/134.0.0.0 Safari/537.36","WebKit","Chrome","134.0.0.0","Windows","10.0","https://hz8g1ckzuq.cognition.run/","en-US,en;q=0.9","88fd0klx2gf20uq","29","[""Black or African-American""]","No","Male","2049468.3000000007","null","","<p></p>","null","choice","tdc","repulsion_1","2","microwave ovens","null","null","null","null","null","null","1","","","","","","","","","",""
"","","","","","choice_trial","survey-html-form","149","1933228","0.0-5.0-1.32","80","1","2025-04-11 14:35:35","bb671e3ae32f654b8954ea4c4635f915","","Mozilla/5.0 (Windows NT 10.0; Win64; x64) AppleWebKit/537.36 (KHTML, like Gecko) Chrome/134.0.0.0 Safari/537.36","WebKit","Chrome","134.0.0.0","Windows","10.0","https://hz8g1ckzuq.cognition.run/","en-US,en;q=0.9","88fd0klx2gf20uq","29","[""Black or African-American""]","No","Male","2049468.3000000007","2527","","","{""product_choice"":""C""}","choice","tdc","repulsion_1","2","microwave ovens","null","null","null","null","null","null","1","30","40","25","100","90","100","Warranty","Cooking power","",""
"","","","","","choice_trial_setup","html-keyboard-response","150","1933547","0.0-5.0-0.33","80","1","2025-04-11 14:35:35","bb671e3ae32f654b8954ea4c4635f915","","Mozilla/5.0 (Windows NT 10.0; Win64; x64) AppleWebKit/537.36 (KHTML, like Gecko) Chrome/134.0.0.0 Safari/537.36","WebKit","Chrome","134.0.0.0","Windows","10.0","https://hz8g1ckzuq.cognition.run/","en-US,en;q=0.9","88fd0klx2gf20uq","29","[""Black or African-American""]","No","Male","2049468.3000000007","null","","<p></p>","null","choice","tcd","attraction_2","1","washing machines","null","null","null","null","null","null","1","","","","","","","","","",""
"","","","","","choice_trial","survey-html-form","151","1936715","0.0-5.0-1.33","80","1","2025-04-11 14:35:35","bb671e3ae32f654b8954ea4c4635f915","","Mozilla/5.0 (Windows NT 10.0; Win64; x64) AppleWebKit/537.36 (KHTML, like Gecko) Chrome/134.0.0.0 Safari/537.36","WebKit","Chrome","134.0.0.0","Windows","10.0","https://hz8g1ckzuq.cognition.run/","en-US,en;q=0.9","88fd0klx2gf20uq","29","[""Black or African-American""]","No","Male","2049468.3000000007","3146","","","{""product_choice"":""B""}","choice","tcd","attraction_2","1","washing machines","null","null","null","null","null","null","1","60","50","60","50","60","40","Average lifespan","Energy savings","",""
"","","","","","choice_trial_setup","html-keyboard-response","152","1937037","0.0-5.0-0.34","80","1","2025-04-11 14:35:35","bb671e3ae32f654b8954ea4c4635f915","","Mozilla/5.0 (Windows NT 10.0; Win64; x64) AppleWebKit/537.36 (KHTML, like Gecko) Chrome/134.0.0.0 Safari/537.36","WebKit","Chrome","134.0.0.0","Windows","10.0","https://hz8g1ckzuq.cognition.run/","en-US,en;q=0.9","88fd0klx2gf20uq","29","[""Black or African-American""]","No","Male","2049468.3000000007","null","","<p></p>","null","choice","ctd","repulsion_2","2","televisions","null","null","null","null","null","null","1","","","","","","","","","",""
