"success","timeout","failed_images","failed_audio","failed_video","screen_id","trial_type","trial_index","time_elapsed","internal_node_id","run_id","condition","recorded_at","source_code_version","ip","user_agent","device","browser","browser_version","platform","platform_version","referer","accept_language","ppt_id","age","race","ethnicity","gender","exp_duration","rt","view_history","stimulus","response","phase","order","effect","t_high","category","d1_best","d2_best","d1_worst1","d2_worst1","d1_worst2","d2_worst2","first_dim","d1_t","d1_c","d1_d","d2_t","d2_c","d2_d","d1_name","d2_name","strategy_response","question_order"
"true","false","[]","[]","[]","img preload","preload","0","244","0.0-0.0","81","1","2025-04-11 14:36:09","bb671e3ae32f654b8954ea4c4635f915","","Mozilla/5.0 (Linux; Android 10; K) AppleWebKit/537.36 (KHTML, like Gecko) Chrome/135.0.0.0 Mobile Safari/537.36","WebKit","Chrome","135.0.0.0","AndroidOS","10","https://hz8g1ckzuq.cognition.run/","en-US,en;q=0.9","eku2ddhg7b8ovwc","41","[""White""]","No","Female","1956398.2999999523","","","","","","","","","","","","","","","","","","","","","","","","","",""
"true","","","","","","fullscreen","1","5152","0.0-1.0","81","1","2025-04-11 14:36:09","bb671e3ae32f654b8954ea4c4635f915","","Mozilla/5.0 (Linux; Android 10; K) AppleWebKit/537.36 (KHTML, like Gecko) Chrome/135.0.0.0 Mobile Safari/537.36","WebKit","Chrome","135.0.0.0","AndroidOS","10","https://hz8g1ckzuq.cognition.run/","en-US,en;q=0.9","eku2ddhg7b8ovwc","41","[""White""]","No","Female","1956398.2999999523","3900","","","","","","","","","","","","","","","","","","","","","","","","",""
"","","","","","","instructions","2","94605","0.0-2.0","81","1","2025-04-11 14:36:09","bb671e3ae32f654b8954ea4c4635f915","","Mozilla/5.0 (Linux; Android 10; K) AppleWebKit/537.36 (KHTML, like Gecko) Chrome/135.0.0.0 Mobile Safari/537.36","WebKit","Chrome","135.0.0.0","AndroidOS","10","https://hz8g1ckzuq.cognition.run/","en-US,en;q=0.9","eku2ddhg7b8ovwc","41","[""White""]","No","Female","1956398.2999999523","89446","[{""page_index"":0,""viewing_time"":3045},{""page_index"":1,""viewing_time"":5019},{""page_index"":2,""viewing_time"":5706},{""page_index"":3,""viewing_time"":7998},{""page_index"":4,""viewing_time"":10964},{""page_index"":5,""viewing_time"":6468},{""page_index"":6,""viewing_time"":5954},{""page_index"":7,""viewing_time"":19728},{""page_index"":8,""viewing_time"":18803},{""page_index"":9,""viewing_time"":5760}]","","","","","","","","","","","","","","","","","","","","","","","",""
"","","","","","rating_trial_setup","html-keyboard-response","3","94910","0.0-3.0-0.0","81","1","2025-04-11 14:36:09","bb671e3ae32f654b8954ea4c4635f915","","Mozilla/5.0 (Linux; Android 10; K) AppleWebKit/537.36 (KHTML, like Gecko) Chrome/135.0.0.0 Mobile Safari/537.36","WebKit","Chrome","135.0.0.0","AndroidOS","10","https://hz8g1ckzuq.cognition.run/","en-US,en;q=0.9","eku2ddhg7b8ovwc","41","[""White""]","No","Female","1956398.2999999523","null","","<p></p>","null","rating","wbw","catch","null","televisions","85","80","15","10","5","45","1","","","","","","","","","",""
"","","","","","rating_trial","survey-html-form","4","152263","0.0-3.0-1.0","81","1","2025-04-11 14:36:09","bb671e3ae32f654b8954ea4c4635f915","","Mozilla/5.0 (Linux; Android 10; K) AppleWebKit/537.36 (KHTML, like Gecko) Chrome/135.0.0.0 Mobile Safari/537.36","WebKit","Chrome","135.0.0.0","AndroidOS","10","https://hz8g1ckzuq.cognition.run/","en-US,en;q=0.9","eku2ddhg7b8ovwc","41","[""White""]","No","Female","1956398.2999999523","57329","","","{""price_1"":""30"",""price_2"":""100"",""price_3"":""45""}","rating","wbw","catch","null","televisions","85","80","15","10","5","45","1","null","null","null","null","null","null","Screen size","Average lifespan","",""
"","","","","","rating_trial_setup","html-keyboard-response","5","152566","0.0-3.0-0.1","81","1","2025-04-11 14:36:09","bb671e3ae32f654b8954ea4c4635f915","","Mozilla/5.0 (Linux; Android 10; K) AppleWebKit/537.36 (KHTML, like Gecko) Chrome/135.0.0.0 Mobile Safari/537.36","WebKit","Chrome","135.0.0.0","AndroidOS","10","https://hz8g1ckzuq.cognition.run/","en-US,en;q=0.9","eku2ddhg7b8ovwc","41","[""White""]","No","Female","1956398.2999999523","null","","<p></p>","null","rating","tcd","repulsion_2","2","televisions","null","null","null","null","null","null","2","","","","","","","","","",""
"","","","","","rating_trial","survey-html-form","6","202027","0.0-3.0-1.1","81","1","2025-04-11 14:36:09","bb671e3ae32f654b8954ea4c4635f915","","Mozilla/5.0 (Linux; Android 10; K) AppleWebKit/537.36 (KHTML, like Gecko) Chrome/135.0.0.0 Mobile Safari/537.36","WebKit","Chrome","135.0.0.0","AndroidOS","10","https://hz8g1ckzuq.cognition.run/","en-US,en;q=0.9","eku2ddhg7b8ovwc","41","[""White""]","No","Female","1956398.2999999523","49451","","","{""price_1"":""45"",""price_2"":""100"",""price_3"":""30""}","rating","tcd","repulsion_2","2","televisions","null","null","null","null","null","null","2","30","40","20","100","90","100","Screen size","Average lifespan","",""
"","","","","","rating_trial_setup","html-keyboard-response","7","202330","0.0-3.0-0.2","81","1","2025-04-11 14:36:09","bb671e3ae32f654b8954ea4c4635f915","","Mozilla/5.0 (Linux; Android 10; K) AppleWebKit/537.36 (KHTML, like Gecko) Chrome/135.0.0.0 Mobile Safari/537.36","WebKit","Chrome","135.0.0.0","AndroidOS","10","https://hz8g1ckzuq.cognition.run/","en-US,en;q=0.9","eku2ddhg7b8ovwc","41","[""White""]","No","Female","1956398.2999999523","null","","<p></p>","null","rating","tdc","attraction_2","1","washing machines","null","null","null","null","null","null","1","","","","","","","","","",""
"","","","","","rating_trial","survey-html-form","8","255497","0.0-3.0-1.2","81","1","2025-04-11 14:36:09","bb671e3ae32f654b8954ea4c4635f915","","Mozilla/5.0 (Linux; Android 10; K) AppleWebKit/537.36 (KHTML, like Gecko) Chrome/135.0.0.0 Mobile Safari/537.36","WebKit","Chrome","135.0.0.0","AndroidOS","10","https://hz8g1ckzuq.cognition.run/","en-US,en;q=0.9","eku2ddhg7b8ovwc","41","[""White""]","No","Female","1956398.2999999523","53162","","","{""price_1"":""125"",""price_2"":""100"",""price_3"":""130""}","rating","tdc","attraction_2","1","washing machines","null","null","null","null","null","null","1","60","50","60","50","60","40","Average lifespan","Energy savings","",""
"","","","","","rating_trial_setup","html-keyboard-response","9","255800","0.0-3.0-0.3","81","1","2025-04-11 14:36:09","bb671e3ae32f654b8954ea4c4635f915","","Mozilla/5.0 (Linux; Android 10; K) AppleWebKit/537.36 (KHTML, like Gecko) Chrome/135.0.0.0 Mobile Safari/537.36","WebKit","Chrome","135.0.0.0","AndroidOS","10","https://hz8g1ckzuq.cognition.run/","en-US,en;q=0.9","eku2ddhg7b8ovwc","41","[""White""]","No","Female","1956398.2999999523","null","","<p></p>","null","rating","wbw","catch","null","microwave ovens","70","80","40","15","10","40","1","","","","","","","","","",""
"","","","","","rating_trial","survey-html-form","10","305086","0.0-3.0-1.3","81","1","2025-04-11 14:36:09","bb671e3ae32f654b8954ea4c4635f915","","Mozilla/5.0 (Linux; Android 10; K) AppleWebKit/537.36 (KHTML, like Gecko) Chrome/135.0.0.0 Mobile Safari/537.36","WebKit","Chrome","135.0.0.0","AndroidOS","10","https://hz8g1ckzuq.cognition.run/","en-US,en;q=0.9","eku2ddhg7b8ovwc","41","[""White""]","No","Female","1956398.2999999523","49275","","","{""price_1"":""25"",""price_2"":""105"",""price_3"":""45""}","rating","wbw","catch","null","microwave ovens","70","80","40","15","10","40","1","null","null","null","null","null","null","Warranty","Cooking power","",""
"","","","","","rating_trial_setup","html-keyboard-response","11","305393","0.0-3.0-0.4","81","1","2025-04-11 14:36:09","bb671e3ae32f654b8954ea4c4635f915","","Mozilla/5.0 (Linux; Android 10; K) AppleWebKit/537.36 (KHTML, like Gecko) Chrome/135.0.0.0 Mobile Safari/537.36","WebKit","Chrome","135.0.0.0","AndroidOS","10","https://hz8g1ckzuq.cognition.run/","en-US,en;q=0.9","eku2ddhg7b8ovwc","41","[""White""]","No","Female","1956398.2999999523","null","","<p></p>","null","rating","dct","attraction_1","1","laptops","null","null","null","null","null","null","1","","","","","","","","","",""
"","","","","","rating_trial","survey-html-form","12","349065","0.0-3.0-1.4","81","1","2025-04-11 14:36:09","bb671e3ae32f654b8954ea4c4635f915","","Mozilla/5.0 (Linux; Android 10; K) AppleWebKit/537.36 (KHTML, like Gecko) Chrome/135.0.0.0 Mobile Safari/537.36","WebKit","Chrome","135.0.0.0","AndroidOS","10","https://hz8g1ckzuq.cognition.run/","en-US,en;q=0.9","eku2ddhg7b8ovwc","41","[""White""]","No","Female","1956398.2999999523","43657","","","{""price_1"":""85"",""price_2"":""125"",""price_3"":""125""}","rating","dct","attraction_1","1","laptops","null","null","null","null","null","null","1","60","50","60","50","60","45","Processing speed","Memory (RAM)","",""
"","","","","","rating_trial_setup","html-keyboard-response","13","349368","0.0-3.0-0.5","81","1","2025-04-11 14:36:09","bb671e3ae32f654b8954ea4c4635f915","","Mozilla/5.0 (Linux; Android 10; K) AppleWebKit/537.36 (KHTML, like Gecko) Chrome/135.0.0.0 Mobile Safari/537.36","WebKit","Chrome","135.0.0.0","AndroidOS","10","https://hz8g1ckzuq.cognition.run/","en-US,en;q=0.9","eku2ddhg7b8ovwc","41","[""White""]","No","Female","1956398.2999999523","null","","<p></p>","null","rating","tdc","repulsion_2","2","washing machines","null","null","null","null","null","null","1","","","","","","","","","",""
"","","","","","rating_trial","survey-html-form","14","379803","0.0-3.0-1.5","81","1","2025-04-11 14:36:09","bb671e3ae32f654b8954ea4c4635f915","","Mozilla/5.0 (Linux; Android 10; K) AppleWebKit/537.36 (KHTML, like Gecko) Chrome/135.0.0.0 Mobile Safari/537.36","WebKit","Chrome","135.0.0.0","AndroidOS","10","https://hz8g1ckzuq.cognition.run/","en-US,en;q=0.9","eku2ddhg7b8ovwc","41","[""White""]","No","Female","1956398.2999999523","30424","","","{""price_1"":""130"",""price_2"":""100"",""price_3"":""120""}","rating","tdc","repulsion_2","2","washing machines","null","null","null","null","null","null","1","30","40","20","100","90","100","Average lifespan","Energy savings","",""
"","","","","","rating_trial_setup","html-keyboard-response","15","380106","0.0-3.0-0.6","81","1","2025-04-11 14:36:09","bb671e3ae32f654b8954ea4c4635f915","","Mozilla/5.0 (Linux; Android 10; K) AppleWebKit/537.36 (KHTML, like Gecko) Chrome/135.0.0.0 Mobile Safari/537.36","WebKit","Chrome","135.0.0.0","AndroidOS","10","https://hz8g1ckzuq.cognition.run/","en-US,en;q=0.9","eku2ddhg7b8ovwc","41","[""White""]","No","Female","1956398.2999999523","null","","<p></p>","null","rating","tdc","attraction_1","1","microwave ovens","null","null","null","null","null","null","1","","","","","","","","","",""
"","","","","","rating_trial","survey-html-form","16","420970","0.0-3.0-1.6","81","1","2025-04-11 14:36:09","bb671e3ae32f654b8954ea4c4635f915","","Mozilla/5.0 (Linux; Android 10; K) AppleWebKit/537.36 (KHTML, like Gecko) Chrome/135.0.0.0 Mobile Safari/537.36","WebKit","Chrome","135.0.0.0","AndroidOS","10","https://hz8g1ckzuq.cognition.run/","en-US,en;q=0.9","eku2ddhg7b8ovwc","41","[""White""]","No","Female","1956398.2999999523","40856","","","{""price_1"":""125"",""price_2"":""110"",""price_3"":""145""}","rating","tdc","attraction_1","1","microwave ovens","null","null","null","null","null","null","1","60","50","60","50","60","45","Warranty","Cooking power","",""
"","","","","","rating_trial_setup","html-keyboard-response","17","421274","0.0-3.0-0.7","81","1","2025-04-11 14:36:09","bb671e3ae32f654b8954ea4c4635f915","","Mozilla/5.0 (Linux; Android 10; K) AppleWebKit/537.36 (KHTML, like Gecko) Chrome/135.0.0.0 Mobile Safari/537.36","WebKit","Chrome","135.0.0.0","AndroidOS","10","https://hz8g1ckzuq.cognition.run/","en-US,en;q=0.9","eku2ddhg7b8ovwc","41","[""White""]","No","Female","1956398.2999999523","null","","<p></p>","null","rating","tcd","repulsion_1","1","washing machines","null","null","null","null","null","null","1","","","","","","","","","",""
"","","","","","rating_trial","survey-html-form","18","464540","0.0-3.0-1.7","81","1","2025-04-11 14:36:09","bb671e3ae32f654b8954ea4c4635f915","","Mozilla/5.0 (Linux; Android 10; K) AppleWebKit/537.36 (KHTML, like Gecko) Chrome/135.0.0.0 Mobile Safari/537.36","WebKit","Chrome","135.0.0.0","AndroidOS","10","https://hz8g1ckzuq.cognition.run/","en-US,en;q=0.9","eku2ddhg7b8ovwc","41","[""White""]","No","Female","1956398.2999999523","43254","","","{""price_1"":""110"",""price_2"":""120"",""price_3"":""100""}","rating","tcd","repulsion_1","1","washing machines","null","null","null","null","null","null","1","100","90","100","30","40","25","Average lifespan","Energy savings","",""
"","","","","","rating_trial_setup","html-keyboard-response","19","464844","0.0-3.0-0.8","81","1","2025-04-11 14:36:09","bb671e3ae32f654b8954ea4c4635f915","","Mozilla/5.0 (Linux; Android 10; K) AppleWebKit/537.36 (KHTML, like Gecko) Chrome/135.0.0.0 Mobile Safari/537.36","WebKit","Chrome","135.0.0.0","AndroidOS","10","https://hz8g1ckzuq.cognition.run/","en-US,en;q=0.9","eku2ddhg7b8ovwc","41","[""White""]","No","Female","1956398.2999999523","null","","<p></p>","null","rating","bww","catch","null","washing machines","60","95","35","5","25","25","2","","","","","","","","","",""
"","","","","","rating_trial","survey-html-form","20","502759","0.0-3.0-1.8","81","1","2025-04-11 14:36:09","bb671e3ae32f654b8954ea4c4635f915","","Mozilla/5.0 (Linux; Android 10; K) AppleWebKit/537.36 (KHTML, like Gecko) Chrome/135.0.0.0 Mobile Safari/537.36","WebKit","Chrome","135.0.0.0","AndroidOS","10","https://hz8g1ckzuq.cognition.run/","en-US,en;q=0.9","eku2ddhg7b8ovwc","41","[""White""]","No","Female","1956398.2999999523","37891","","","{""price_1"":""145"",""price_2"":""100"",""price_3"":""110""}","rating","bww","catch","null","washing machines","60","95","35","5","25","25","2","null","null","null","null","null","null","Average lifespan","Energy savings","",""
"","","","","","rating_trial_setup","html-keyboard-response","21","503082","0.0-3.0-0.9","81","1","2025-04-11 14:36:09","bb671e3ae32f654b8954ea4c4635f915","","Mozilla/5.0 (Linux; Android 10; K) AppleWebKit/537.36 (KHTML, like Gecko) Chrome/135.0.0.0 Mobile Safari/537.36","WebKit","Chrome","135.0.0.0","AndroidOS","10","https://hz8g1ckzuq.cognition.run/","en-US,en;q=0.9","eku2ddhg7b8ovwc","41","[""White""]","No","Female","1956398.2999999523","null","","<p></p>","null","rating","ctd","repulsion_1","1","microwave ovens","null","null","null","null","null","null","2","","","","","","","","","",""
"","","","","","rating_trial","survey-html-form","22","527700","0.0-3.0-1.9","81","1","2025-04-11 14:36:09","bb671e3ae32f654b8954ea4c4635f915","","Mozilla/5.0 (Linux; Android 10; K) AppleWebKit/537.36 (KHTML, like Gecko) Chrome/135.0.0.0 Mobile Safari/537.36","WebKit","Chrome","135.0.0.0","AndroidOS","10","https://hz8g1ckzuq.cognition.run/","en-US,en;q=0.9","eku2ddhg7b8ovwc","41","[""White""]","No","Female","1956398.2999999523","24589","","","{""price_1"":""125"",""price_2"":""110"",""price_3"":""100""}","rating","ctd","repulsion_1","1","microwave ovens","null","null","null","null","null","null","2","100","90","100","30","40","25","Warranty","Cooking power","",""
"","","","","","rating_trial_setup","html-keyboard-response","23","528003","0.0-3.0-0.10","81","1","2025-04-11 14:36:09","bb671e3ae32f654b8954ea4c4635f915","","Mozilla/5.0 (Linux; Android 10; K) AppleWebKit/537.36 (KHTML, like Gecko) Chrome/135.0.0.0 Mobile Safari/537.36","WebKit","Chrome","135.0.0.0","AndroidOS","10","https://hz8g1ckzuq.cognition.run/","en-US,en;q=0.9","eku2ddhg7b8ovwc","41","[""White""]","No","Female","1956398.2999999523","null","","<p></p>","null","rating","ctd","attraction_1","2","washing machines","null","null","null","null","null","null","1","","","","","","","","","",""
"","","","","","rating_trial","survey-html-form","24","565204","0.0-3.0-1.10","81","1","2025-04-11 14:36:09","bb671e3ae32f654b8954ea4c4635f915","","Mozilla/5.0 (Linux; Android 10; K) AppleWebKit/537.36 (KHTML, like Gecko) Chrome/135.0.0.0 Mobile Safari/537.36","WebKit","Chrome","135.0.0.0","AndroidOS","10","https://hz8g1ckzuq.cognition.run/","en-US,en;q=0.9","eku2ddhg7b8ovwc","41","[""White""]","No","Female","1956398.2999999523","37194","","","{""price_1"":""115"",""price_2"":""145"",""price_3"":""125""}","rating","ctd","attraction_1","2","washing machines","null","null","null","null","null","null","1","50","60","45","60","50","60","Average lifespan","Energy savings","",""
"","","","","","rating_trial_setup","html-keyboard-response","25","565507","0.0-3.0-0.11","81","1","2025-04-11 14:36:09","bb671e3ae32f654b8954ea4c4635f915","","Mozilla/5.0 (Linux; Android 10; K) AppleWebKit/537.36 (KHTML, like Gecko) Chrome/135.0.0.0 Mobile Safari/537.36","WebKit","Chrome","135.0.0.0","AndroidOS","10","https://hz8g1ckzuq.cognition.run/","en-US,en;q=0.9","eku2ddhg7b8ovwc","41","[""White""]","No","Female","1956398.2999999523","null","","<p></p>","null","rating","tdc","repulsion_1","2","washing machines","null","null","null","null","null","null","1","","","","","","","","","",""
"","","","","","rating_trial","survey-html-form","26","588856","0.0-3.0-1.11","81","1","2025-04-11 14:36:09","bb671e3ae32f654b8954ea4c4635f915","","Mozilla/5.0 (Linux; Android 10; K) AppleWebKit/537.36 (KHTML, like Gecko) Chrome/135.0.0.0 Mobile Safari/537.36","WebKit","Chrome","135.0.0.0","AndroidOS","10","https://hz8g1ckzuq.cognition.run/","en-US,en;q=0.9","eku2ddhg7b8ovwc","41","[""White""]","No","Female","1956398.2999999523","23335","","","{""price_1"":""125"",""price_2"":""110"",""price_3"":""145""}","rating","tdc","repulsion_1","2","washing machines","null","null","null","null","null","null","1","30","40","25","100","90","100","Average lifespan","Energy savings","",""
"","","","","","rating_trial_setup","html-keyboard-response","27","589159","0.0-3.0-0.12","81","1","2025-04-11 14:36:09","bb671e3ae32f654b8954ea4c4635f915","","Mozilla/5.0 (Linux; Android 10; K) AppleWebKit/537.36 (KHTML, like Gecko) Chrome/135.0.0.0 Mobile Safari/537.36","WebKit","Chrome","135.0.0.0","AndroidOS","10","https://hz8g1ckzuq.cognition.run/","en-US,en;q=0.9","eku2ddhg7b8ovwc","41","[""White""]","No","Female","1956398.2999999523","null","","<p></p>","null","rating","wwb","catch","null","televisions","90","75","35","35","50","5","1","","","","","","","","","",""
"","","","","","rating_trial","survey-html-form","28","623859","0.0-3.0-1.12","81","1","2025-04-11 14:36:09","bb671e3ae32f654b8954ea4c4635f915","","Mozilla/5.0 (Linux; Android 10; K) AppleWebKit/537.36 (KHTML, like Gecko) Chrome/135.0.0.0 Mobile Safari/537.36","WebKit","Chrome","135.0.0.0","AndroidOS","10","https://hz8g1ckzuq.cognition.run/","en-US,en;q=0.9","eku2ddhg7b8ovwc","41","[""White""]","No","Female","1956398.2999999523","34684","","","{""price_1"":""125"",""price_2"":""100"",""price_3"":""150""}","rating","wwb","catch","null","televisions","90","75","35","35","50","5","1","null","null","null","null","null","null","Screen size","Average lifespan","",""
"","","","","","rating_trial_setup","html-keyboard-response","29","624162","0.0-3.0-0.13","81","1","2025-04-11 14:36:09","bb671e3ae32f654b8954ea4c4635f915","","Mozilla/5.0 (Linux; Android 10; K) AppleWebKit/537.36 (KHTML, like Gecko) Chrome/135.0.0.0 Mobile Safari/537.36","WebKit","Chrome","135.0.0.0","AndroidOS","10","https://hz8g1ckzuq.cognition.run/","en-US,en;q=0.9","eku2ddhg7b8ovwc","41","[""White""]","No","Female","1956398.2999999523","null","","<p></p>","null","rating","dct","repulsion_1","2","laptops","null","null","null","null","null","null","2","","","","","","","","","",""
"","","","","","rating_trial","survey-html-form","30","704184","0.0-3.0-1.13","81","1","2025-04-11 14:36:09","bb671e3ae32f654b8954ea4c4635f915","","Mozilla/5.0 (Linux; Android 10; K) AppleWebKit/537.36 (KHTML, like Gecko) Chrome/135.0.0.0 Mobile Safari/537.36","WebKit","Chrome","135.0.0.0","AndroidOS","10","https://hz8g1ckzuq.cognition.run/","en-US,en;q=0.9","eku2ddhg7b8ovwc","41","[""White""]","No","Female","1956398.2999999523","80002","","","{""price_1"":""110"",""price_2"":""140"",""price_3"":""125""}","rating","dct","repulsion_1","2","laptops","null","null","null","null","null","null","2","30","40","25","100","90","100","Processing speed","Memory (RAM)","",""
"","","","","","rating_trial_setup","html-keyboard-response","31","704502","0.0-3.0-0.14","81","1","2025-04-11 14:36:09","bb671e3ae32f654b8954ea4c4635f915","","Mozilla/5.0 (Linux; Android 10; K) AppleWebKit/537.36 (KHTML, like Gecko) Chrome/135.0.0.0 Mobile Safari/537.36","WebKit","Chrome","135.0.0.0","AndroidOS","10","https://hz8g1ckzuq.cognition.run/","en-US,en;q=0.9","eku2ddhg7b8ovwc","41","[""White""]","No","Female","1956398.2999999523","null","","<p></p>","null","rating","cdt","attraction_2","2","washing machines","null","null","null","null","null","null","1","","","","","","","","","",""
"","","","","","rating_trial","survey-html-form","32","750422","0.0-3.0-1.14","81","1","2025-04-11 14:36:09","bb671e3ae32f654b8954ea4c4635f915","","Mozilla/5.0 (Linux; Android 10; K) AppleWebKit/537.36 (KHTML, like Gecko) Chrome/135.0.0.0 Mobile Safari/537.36","WebKit","Chrome","135.0.0.0","AndroidOS","10","https://hz8g1ckzuq.cognition.run/","en-US,en;q=0.9","eku2ddhg7b8ovwc","41","[""White""]","No","Female","1956398.2999999523","45885","","","{""price_1"":""140"",""price_2"":""145"",""price_3"":""125""}","rating","cdt","attraction_2","2","washing machines","null","null","null","null","null","null","1","50","60","40","60","50","60","Average lifespan","Energy savings","",""
"","","","","","rating_trial_setup","html-keyboard-response","33","750726","0.0-3.0-0.15","81","1","2025-04-11 14:36:09","bb671e3ae32f654b8954ea4c4635f915","","Mozilla/5.0 (Linux; Android 10; K) AppleWebKit/537.36 (KHTML, like Gecko) Chrome/135.0.0.0 Mobile Safari/537.36","WebKit","Chrome","135.0.0.0","AndroidOS","10","https://hz8g1ckzuq.cognition.run/","en-US,en;q=0.9","eku2ddhg7b8ovwc","41","[""White""]","No","Female","1956398.2999999523","null","","<p></p>","null","rating","tdc","attraction_2","2","televisions","null","null","null","null","null","null","1","","","","","","","","","",""
"","","","","","rating_trial","survey-html-form","34","793361","0.0-3.0-1.15","81","1","2025-04-11 14:36:09","bb671e3ae32f654b8954ea4c4635f915","","Mozilla/5.0 (Linux; Android 10; K) AppleWebKit/537.36 (KHTML, like Gecko) Chrome/135.0.0.0 Mobile Safari/537.36","WebKit","Chrome","135.0.0.0","AndroidOS","10","https://hz8g1ckzuq.cognition.run/","en-US,en;q=0.9","eku2ddhg7b8ovwc","41","[""White""]","No","Female","1956398.2999999523","42620","","","{""price_1"":""140"",""price_2"":""125"",""price_3"":""150""}","rating","tdc","attraction_2","2","televisions","null","null","null","null","null","null","1","50","60","40","60","50","60","Screen size","Average lifespan","",""
"","","","","","rating_trial_setup","html-keyboard-response","35","793670","0.0-3.0-0.16","81","1","2025-04-11 14:36:09","bb671e3ae32f654b8954ea4c4635f915","","Mozilla/5.0 (Linux; Android 10; K) AppleWebKit/537.36 (KHTML, like Gecko) Chrome/135.0.0.0 Mobile Safari/537.36","WebKit","Chrome","135.0.0.0","AndroidOS","10","https://hz8g1ckzuq.cognition.run/","en-US,en;q=0.9","eku2ddhg7b8ovwc","41","[""White""]","No","Female","1956398.2999999523","null","","<p></p>","null","rating","dct","attraction_1","2","televisions","null","null","null","null","null","null","2","","","","","","","","","",""
"","","","","","rating_trial","survey-html-form","36","824580","0.0-3.0-1.16","81","1","2025-04-11 14:36:09","bb671e3ae32f654b8954ea4c4635f915","","Mozilla/5.0 (Linux; Android 10; K) AppleWebKit/537.36 (KHTML, like Gecko) Chrome/135.0.0.0 Mobile Safari/537.36","WebKit","Chrome","135.0.0.0","AndroidOS","10","https://hz8g1ckzuq.cognition.run/","en-US,en;q=0.9","eku2ddhg7b8ovwc","41","[""White""]","No","Female","1956398.2999999523","30897","","","{""price_1"":""110"",""price_2"":""150"",""price_3"":""135""}","rating","dct","attraction_1","2","televisions","null","null","null","null","null","null","2","50","60","45","60","50","60","Screen size","Average lifespan","",""
"","","","","","rating_trial_setup","html-keyboard-response","37","824884","0.0-3.0-0.17","81","1","2025-04-11 14:36:09","bb671e3ae32f654b8954ea4c4635f915","","Mozilla/5.0 (Linux; Android 10; K) AppleWebKit/537.36 (KHTML, like Gecko) Chrome/135.0.0.0 Mobile Safari/537.36","WebKit","Chrome","135.0.0.0","AndroidOS","10","https://hz8g1ckzuq.cognition.run/","en-US,en;q=0.9","eku2ddhg7b8ovwc","41","[""White""]","No","Female","1956398.2999999523","null","","<p></p>","null","rating","dtc","attraction_1","2","microwave ovens","null","null","null","null","null","null","2","","","","","","","","","",""
"","","","","","rating_trial","survey-html-form","38","851823","0.0-3.0-1.17","81","1","2025-04-11 14:36:09","bb671e3ae32f654b8954ea4c4635f915","","Mozilla/5.0 (Linux; Android 10; K) AppleWebKit/537.36 (KHTML, like Gecko) Chrome/135.0.0.0 Mobile Safari/537.36","WebKit","Chrome","135.0.0.0","AndroidOS","10","https://hz8g1ckzuq.cognition.run/","en-US,en;q=0.9","eku2ddhg7b8ovwc","41","[""White""]","No","Female","1956398.2999999523","26921","","","{""price_1"":""125"",""price_2"":""140"",""price_3"":""130""}","rating","dtc","attraction_1","2","microwave ovens","null","null","null","null","null","null","2","50","60","45","60","50","60","Warranty","Cooking power","",""
"","","","","","rating_trial_setup","html-keyboard-response","39","852127","0.0-3.0-0.18","81","1","2025-04-11 14:36:09","bb671e3ae32f654b8954ea4c4635f915","","Mozilla/5.0 (Linux; Android 10; K) AppleWebKit/537.36 (KHTML, like Gecko) Chrome/135.0.0.0 Mobile Safari/537.36","WebKit","Chrome","135.0.0.0","AndroidOS","10","https://hz8g1ckzuq.cognition.run/","en-US,en;q=0.9","eku2ddhg7b8ovwc","41","[""White""]","No","Female","1956398.2999999523","null","","<p></p>","null","rating","dct","repulsion_1","2","televisions","null","null","null","null","null","null","1","","","","","","","","","",""
"","","","","","rating_trial","survey-html-form","40","887871","0.0-3.0-1.18","81","1","2025-04-11 14:36:09","bb671e3ae32f654b8954ea4c4635f915","","Mozilla/5.0 (Linux; Android 10; K) AppleWebKit/537.36 (KHTML, like Gecko) Chrome/135.0.0.0 Mobile Safari/537.36","WebKit","Chrome","135.0.0.0","AndroidOS","10","https://hz8g1ckzuq.cognition.run/","en-US,en;q=0.9","eku2ddhg7b8ovwc","41","[""White""]","No","Female","1956398.2999999523","35733","","","{""price_1"":""130"",""price_2"":""150"",""price_3"":""140""}","rating","dct","repulsion_1","2","televisions","null","null","null","null","null","null","1","30","40","25","100","90","100","Screen size","Average lifespan","",""
"","","","","","rating_trial_setup","html-keyboard-response","41","888177","0.0-3.0-0.19","81","1","2025-04-11 14:36:09","bb671e3ae32f654b8954ea4c4635f915","","Mozilla/5.0 (Linux; Android 10; K) AppleWebKit/537.36 (KHTML, like Gecko) Chrome/135.0.0.0 Mobile Safari/537.36","WebKit","Chrome","135.0.0.0","AndroidOS","10","https://hz8g1ckzuq.cognition.run/","en-US,en;q=0.9","eku2ddhg7b8ovwc","41","[""White""]","No","Female","1956398.2999999523","null","","<p></p>","null","rating","cdt","attraction_2","1","laptops","null","null","null","null","null","null","2","","","","","","","","","",""
"","","","","","rating_trial","survey-html-form","42","918955","0.0-3.0-1.19","81","1","2025-04-11 14:36:09","bb671e3ae32f654b8954ea4c4635f915","","Mozilla/5.0 (Linux; Android 10; K) AppleWebKit/537.36 (KHTML, like Gecko) Chrome/135.0.0.0 Mobile Safari/537.36","WebKit","Chrome","135.0.0.0","AndroidOS","10","https://hz8g1ckzuq.cognition.run/","en-US,en;q=0.9","eku2ddhg7b8ovwc","41","[""White""]","No","Female","1956398.2999999523","30768","","","{""price_1"":""145"",""price_2"":""100"",""price_3"":""115""}","rating","cdt","attraction_2","1","laptops","null","null","null","null","null","null","2","60","50","60","50","60","40","Processing speed","Memory (RAM)","",""
"","","","","","rating_trial_setup","html-keyboard-response","43","919258","0.0-3.0-0.20","81","1","2025-04-11 14:36:09","bb671e3ae32f654b8954ea4c4635f915","","Mozilla/5.0 (Linux; Android 10; K) AppleWebKit/537.36 (KHTML, like Gecko) Chrome/135.0.0.0 Mobile Safari/537.36","WebKit","Chrome","135.0.0.0","AndroidOS","10","https://hz8g1ckzuq.cognition.run/","en-US,en;q=0.9","eku2ddhg7b8ovwc","41","[""White""]","No","Female","1956398.2999999523","null","","<p></p>","null","rating","cdt","repulsion_2","2","laptops","null","null","null","null","null","null","2","","","","","","","","","",""
"","","","","","rating_trial","survey-html-form","44","945345","0.0-3.0-1.20","81","1","2025-04-11 14:36:09","bb671e3ae32f654b8954ea4c4635f915","","Mozilla/5.0 (Linux; Android 10; K) AppleWebKit/537.36 (KHTML, like Gecko) Chrome/135.0.0.0 Mobile Safari/537.36","WebKit","Chrome","135.0.0.0","AndroidOS","10","https://hz8g1ckzuq.cognition.run/","en-US,en;q=0.9","eku2ddhg7b8ovwc","41","[""White""]","No","Female","1956398.2999999523","26071","","","{""price_1"":""145"",""price_2"":""100"",""price_3"":""125""}","rating","cdt","repulsion_2","2","laptops","null","null","null","null","null","null","2","30","40","20","100","90","100","Processing speed","Memory (RAM)","",""
"","","","","","rating_trial_setup","html-keyboard-response","45","945650","0.0-3.0-0.21","81","1","2025-04-11 14:36:09","bb671e3ae32f654b8954ea4c4635f915","","Mozilla/5.0 (Linux; Android 10; K) AppleWebKit/537.36 (KHTML, like Gecko) Chrome/135.0.0.0 Mobile Safari/537.36","WebKit","Chrome","135.0.0.0","AndroidOS","10","https://hz8g1ckzuq.cognition.run/","en-US,en;q=0.9","eku2ddhg7b8ovwc","41","[""White""]","No","Female","1956398.2999999523","null","","<p></p>","null","rating","dct","attraction_1","2","laptops","null","null","null","null","null","null","1","","","","","","","","","",""
"","","","","","rating_trial","survey-html-form","46","973369","0.0-3.0-1.21","81","1","2025-04-11 14:36:09","bb671e3ae32f654b8954ea4c4635f915","","Mozilla/5.0 (Linux; Android 10; K) AppleWebKit/537.36 (KHTML, like Gecko) Chrome/135.0.0.0 Mobile Safari/537.36","WebKit","Chrome","135.0.0.0","AndroidOS","10","https://hz8g1ckzuq.cognition.run/","en-US,en;q=0.9","eku2ddhg7b8ovwc","41","[""White""]","No","Female","1956398.2999999523","27704","","","{""price_1"":""115"",""price_2"":""135"",""price_3"":""145""}","rating","dct","attraction_1","2","laptops","null","null","null","null","null","null","1","50","60","45","60","50","60","Processing speed","Memory (RAM)","",""
"","","","","","rating_trial_setup","html-keyboard-response","47","973672","0.0-3.0-0.22","81","1","2025-04-11 14:36:09","bb671e3ae32f654b8954ea4c4635f915","","Mozilla/5.0 (Linux; Android 10; K) AppleWebKit/537.36 (KHTML, like Gecko) Chrome/135.0.0.0 Mobile Safari/537.36","WebKit","Chrome","135.0.0.0","AndroidOS","10","https://hz8g1ckzuq.cognition.run/","en-US,en;q=0.9","eku2ddhg7b8ovwc","41","[""White""]","No","Female","1956398.2999999523","null","","<p></p>","null","rating","dtc","repulsion_2","2","microwave ovens","null","null","null","null","null","null","1","","","","","","","","","",""
"","","","","","rating_trial","survey-html-form","48","1007203","0.0-3.0-1.22","81","1","2025-04-11 14:36:09","bb671e3ae32f654b8954ea4c4635f915","","Mozilla/5.0 (Linux; Android 10; K) AppleWebKit/537.36 (KHTML, like Gecko) Chrome/135.0.0.0 Mobile Safari/537.36","WebKit","Chrome","135.0.0.0","AndroidOS","10","https://hz8g1ckzuq.cognition.run/","en-US,en;q=0.9","eku2ddhg7b8ovwc","41","[""White""]","No","Female","1956398.2999999523","33515","","","{""price_1"":""140"",""price_2"":""150"",""price_3"":""130""}","rating","dtc","repulsion_2","2","microwave ovens","null","null","null","null","null","null","1","30","40","20","100","90","100","Warranty","Cooking power","",""
"","","","","","rating_trial_setup","html-keyboard-response","49","1007507","0.0-3.0-0.23","81","1","2025-04-11 14:36:09","bb671e3ae32f654b8954ea4c4635f915","","Mozilla/5.0 (Linux; Android 10; K) AppleWebKit/537.36 (KHTML, like Gecko) Chrome/135.0.0.0 Mobile Safari/537.36","WebKit","Chrome","135.0.0.0","AndroidOS","10","https://hz8g1ckzuq.cognition.run/","en-US,en;q=0.9","eku2ddhg7b8ovwc","41","[""White""]","No","Female","1956398.2999999523","null","","<p></p>","null","rating","tdc","attraction_1","1","washing machines","null","null","null","null","null","null","2","","","","","","","","","",""
"","","","","","rating_trial","survey-html-form","50","1032262","0.0-3.0-1.23","81","1","2025-04-11 14:36:09","bb671e3ae32f654b8954ea4c4635f915","","Mozilla/5.0 (Linux; Android 10; K) AppleWebKit/537.36 (KHTML, like Gecko) Chrome/135.0.0.0 Mobile Safari/537.36","WebKit","Chrome","135.0.0.0","AndroidOS","10","https://hz8g1ckzuq.cognition.run/","en-US,en;q=0.9","eku2ddhg7b8ovwc","41","[""White""]","No","Female","1956398.2999999523","24740","","","{""price_1"":""140"",""price_2"":""125"",""price_3"":""150""}","rating","tdc","attraction_1","1","washing machines","null","null","null","null","null","null","2","60","50","60","50","60","45","Average lifespan","Energy savings","",""
"","","","","","rating_trial_setup","html-keyboard-response","51","1032569","0.0-3.0-0.24","81","1","2025-04-11 14:36:09","bb671e3ae32f654b8954ea4c4635f915","","Mozilla/5.0 (Linux; Android 10; K) AppleWebKit/537.36 (KHTML, like Gecko) Chrome/135.0.0.0 Mobile Safari/537.36","WebKit","Chrome","135.0.0.0","AndroidOS","10","https://hz8g1ckzuq.cognition.run/","en-US,en;q=0.9","eku2ddhg7b8ovwc","41","[""White""]","No","Female","1956398.2999999523","null","","<p></p>","null","rating","wbw","catch","null","laptops","85","60","15","10","40","10","1","","","","","","","","","",""
"","","","","","rating_trial","survey-html-form","52","1058652","0.0-3.0-1.24","81","1","2025-04-11 14:36:09","bb671e3ae32f654b8954ea4c4635f915","","Mozilla/5.0 (Linux; Android 10; K) AppleWebKit/537.36 (KHTML, like Gecko) Chrome/135.0.0.0 Mobile Safari/537.36","WebKit","Chrome","135.0.0.0","AndroidOS","10","https://hz8g1ckzuq.cognition.run/","en-US,en;q=0.9","eku2ddhg7b8ovwc","41","[""White""]","No","Female","1956398.2999999523","26062","","","{""price_1"":""100"",""price_2"":""145"",""price_3"":""125""}","rating","wbw","catch","null","laptops","85","60","15","10","40","10","1","null","null","null","null","null","null","Processing speed","Memory (RAM)","",""
"","","","","","rating_trial_setup","html-keyboard-response","53","1058956","0.0-3.0-0.25","81","1","2025-04-11 14:36:09","bb671e3ae32f654b8954ea4c4635f915","","Mozilla/5.0 (Linux; Android 10; K) AppleWebKit/537.36 (KHTML, like Gecko) Chrome/135.0.0.0 Mobile Safari/537.36","WebKit","Chrome","135.0.0.0","AndroidOS","10","https://hz8g1ckzuq.cognition.run/","en-US,en;q=0.9","eku2ddhg7b8ovwc","41","[""White""]","No","Female","1956398.2999999523","null","","<p></p>","null","rating","wwb","catch","null","laptops","75","90","5","10","35","30","2","","","","","","","","","",""
"","","","","","rating_trial","survey-html-form","54","1082113","0.0-3.0-1.25","81","1","2025-04-11 14:36:09","bb671e3ae32f654b8954ea4c4635f915","","Mozilla/5.0 (Linux; Android 10; K) AppleWebKit/537.36 (KHTML, like Gecko) Chrome/135.0.0.0 Mobile Safari/537.36","WebKit","Chrome","135.0.0.0","AndroidOS","10","https://hz8g1ckzuq.cognition.run/","en-US,en;q=0.9","eku2ddhg7b8ovwc","41","[""White""]","No","Female","1956398.2999999523","23152","","","{""price_1"":""90"",""price_2"":""125"",""price_3"":""145""}","rating","wwb","catch","null","laptops","75","90","5","10","35","30","2","null","null","null","null","null","null","Processing speed","Memory (RAM)","",""
"","","","","","rating_trial_setup","html-keyboard-response","55","1082419","0.0-3.0-0.26","81","1","2025-04-11 14:36:09","bb671e3ae32f654b8954ea4c4635f915","","Mozilla/5.0 (Linux; Android 10; K) AppleWebKit/537.36 (KHTML, like Gecko) Chrome/135.0.0.0 Mobile Safari/537.36","WebKit","Chrome","135.0.0.0","AndroidOS","10","https://hz8g1ckzuq.cognition.run/","en-US,en;q=0.9","eku2ddhg7b8ovwc","41","[""White""]","No","Female","1956398.2999999523","null","","<p></p>","null","rating","tdc","repulsion_2","1","laptops","null","null","null","null","null","null","2","","","","","","","","","",""
"","","","","","rating_trial","survey-html-form","56","1104372","0.0-3.0-1.26","81","1","2025-04-11 14:36:09","bb671e3ae32f654b8954ea4c4635f915","","Mozilla/5.0 (Linux; Android 10; K) AppleWebKit/537.36 (KHTML, like Gecko) Chrome/135.0.0.0 Mobile Safari/537.36","WebKit","Chrome","135.0.0.0","AndroidOS","10","https://hz8g1ckzuq.cognition.run/","en-US,en;q=0.9","eku2ddhg7b8ovwc","41","[""White""]","No","Female","1956398.2999999523","21939","","","{""price_1"":""115"",""price_2"":""125"",""price_3"":""145""}","rating","tdc","repulsion_2","1","laptops","null","null","null","null","null","null","2","100","90","100","30","40","20","Processing speed","Memory (RAM)","",""
"","","","","","rating_trial_setup","html-keyboard-response","57","1104682","0.0-3.0-0.27","81","1","2025-04-11 14:36:09","bb671e3ae32f654b8954ea4c4635f915","","Mozilla/5.0 (Linux; Android 10; K) AppleWebKit/537.36 (KHTML, like Gecko) Chrome/135.0.0.0 Mobile Safari/537.36","WebKit","Chrome","135.0.0.0","AndroidOS","10","https://hz8g1ckzuq.cognition.run/","en-US,en;q=0.9","eku2ddhg7b8ovwc","41","[""White""]","No","Female","1956398.2999999523","null","","<p></p>","null","rating","dct","attraction_2","1","televisions","null","null","null","null","null","null","2","","","","","","","","","",""
"","","","","","rating_trial","survey-html-form","58","1150860","0.0-3.0-1.27","81","1","2025-04-11 14:36:09","bb671e3ae32f654b8954ea4c4635f915","","Mozilla/5.0 (Linux; Android 10; K) AppleWebKit/537.36 (KHTML, like Gecko) Chrome/135.0.0.0 Mobile Safari/537.36","WebKit","Chrome","135.0.0.0","AndroidOS","10","https://hz8g1ckzuq.cognition.run/","en-US,en;q=0.9","eku2ddhg7b8ovwc","41","[""White""]","No","Female","1956398.2999999523","46163","","","{""price_1"":""125"",""price_2"":""140"",""price_3"":""150""}","rating","dct","attraction_2","1","televisions","null","null","null","null","null","null","2","60","50","60","50","60","40","Screen size","Average lifespan","",""
"","","","","","rating_trial_setup","html-keyboard-response","59","1151164","0.0-3.0-0.28","81","1","2025-04-11 14:36:09","bb671e3ae32f654b8954ea4c4635f915","","Mozilla/5.0 (Linux; Android 10; K) AppleWebKit/537.36 (KHTML, like Gecko) Chrome/135.0.0.0 Mobile Safari/537.36","WebKit","Chrome","135.0.0.0","AndroidOS","10","https://hz8g1ckzuq.cognition.run/","en-US,en;q=0.9","eku2ddhg7b8ovwc","41","[""White""]","No","Female","1956398.2999999523","null","","<p></p>","null","rating","dtc","attraction_2","2","microwave ovens","null","null","null","null","null","null","2","","","","","","","","","",""
"","","","","","rating_trial","survey-html-form","60","1190904","0.0-3.0-1.28","81","1","2025-04-11 14:36:09","bb671e3ae32f654b8954ea4c4635f915","","Mozilla/5.0 (Linux; Android 10; K) AppleWebKit/537.36 (KHTML, like Gecko) Chrome/135.0.0.0 Mobile Safari/537.36","WebKit","Chrome","135.0.0.0","AndroidOS","10","https://hz8g1ckzuq.cognition.run/","en-US,en;q=0.9","eku2ddhg7b8ovwc","41","[""White""]","No","Female","1956398.2999999523","39718","","","{""price_1"":""110"",""price_2"":""145"",""price_3"":""125""}","rating","dtc","attraction_2","2","microwave ovens","null","null","null","null","null","null","2","50","60","40","60","50","60","Warranty","Cooking power","",""
"","","","","","rating_trial_setup","html-keyboard-response","61","1191209","0.0-3.0-0.29","81","1","2025-04-11 14:36:09","bb671e3ae32f654b8954ea4c4635f915","","Mozilla/5.0 (Linux; Android 10; K) AppleWebKit/537.36 (KHTML, like Gecko) Chrome/135.0.0.0 Mobile Safari/537.36","WebKit","Chrome","135.0.0.0","AndroidOS","10","https://hz8g1ckzuq.cognition.run/","en-US,en;q=0.9","eku2ddhg7b8ovwc","41","[""White""]","No","Female","1956398.2999999523","null","","<p></p>","null","rating","dtc","repulsion_1","1","laptops","null","null","null","null","null","null","2","","","","","","","","","",""
"","","","","","rating_trial","survey-html-form","62","1229116","0.0-3.0-1.29","81","1","2025-04-11 14:36:09","bb671e3ae32f654b8954ea4c4635f915","","Mozilla/5.0 (Linux; Android 10; K) AppleWebKit/537.36 (KHTML, like Gecko) Chrome/135.0.0.0 Mobile Safari/537.36","WebKit","Chrome","135.0.0.0","AndroidOS","10","https://hz8g1ckzuq.cognition.run/","en-US,en;q=0.9","eku2ddhg7b8ovwc","41","[""White""]","No","Female","1956398.2999999523","37888","","","{""price_1"":""115"",""price_2"":""125"",""price_3"":""140""}","rating","dtc","repulsion_1","1","laptops","null","null","null","null","null","null","2","100","90","100","30","40","25","Processing speed","Memory (RAM)","",""
"","","","","","rating_trial_setup","html-keyboard-response","63","1229419","0.0-3.0-0.30","81","1","2025-04-11 14:36:09","bb671e3ae32f654b8954ea4c4635f915","","Mozilla/5.0 (Linux; Android 10; K) AppleWebKit/537.36 (KHTML, like Gecko) Chrome/135.0.0.0 Mobile Safari/537.36","WebKit","Chrome","135.0.0.0","AndroidOS","10","https://hz8g1ckzuq.cognition.run/","en-US,en;q=0.9","eku2ddhg7b8ovwc","41","[""White""]","No","Female","1956398.2999999523","null","","<p></p>","null","rating","wbw","catch","null","microwave ovens","95","55","10","10","35","5","1","","","","","","","","","",""
"","","","","","rating_trial","survey-html-form","64","1269277","0.0-3.0-1.30","81","1","2025-04-11 14:36:09","bb671e3ae32f654b8954ea4c4635f915","","Mozilla/5.0 (Linux; Android 10; K) AppleWebKit/537.36 (KHTML, like Gecko) Chrome/135.0.0.0 Mobile Safari/537.36","WebKit","Chrome","135.0.0.0","AndroidOS","10","https://hz8g1ckzuq.cognition.run/","en-US,en;q=0.9","eku2ddhg7b8ovwc","41","[""White""]","No","Female","1956398.2999999523","39853","","","{""price_1"":""60"",""price_2"":""125"",""price_3"":""50""}","rating","wbw","catch","null","microwave ovens","95","55","10","10","35","5","1","null","null","null","null","null","null","Warranty","Cooking power","",""
"","","","","","rating_trial_setup","html-keyboard-response","65","1269581","0.0-3.0-0.31","81","1","2025-04-11 14:36:09","bb671e3ae32f654b8954ea4c4635f915","","Mozilla/5.0 (Linux; Android 10; K) AppleWebKit/537.36 (KHTML, like Gecko) Chrome/135.0.0.0 Mobile Safari/537.36","WebKit","Chrome","135.0.0.0","AndroidOS","10","https://hz8g1ckzuq.cognition.run/","en-US,en;q=0.9","eku2ddhg7b8ovwc","41","[""White""]","No","Female","1956398.2999999523","null","","<p></p>","null","rating","ctd","repulsion_1","1","televisions","null","null","null","null","null","null","2","","","","","","","","","",""
"","","","","","rating_trial","survey-html-form","66","1296315","0.0-3.0-1.31","81","1","2025-04-11 14:36:09","bb671e3ae32f654b8954ea4c4635f915","","Mozilla/5.0 (Linux; Android 10; K) AppleWebKit/537.36 (KHTML, like Gecko) Chrome/135.0.0.0 Mobile Safari/537.36","WebKit","Chrome","135.0.0.0","AndroidOS","10","https://hz8g1ckzuq.cognition.run/","en-US,en;q=0.9","eku2ddhg7b8ovwc","41","[""White""]","No","Female","1956398.2999999523","26718","","","{""price_1"":""140"",""price_2"":""125"",""price_3"":""110""}","rating","ctd","repulsion_1","1","televisions","null","null","null","null","null","null","2","100","90","100","30","40","25","Screen size","Average lifespan","",""
"","","","","","rating_trial_setup","html-keyboard-response","67","1296619","0.0-3.0-0.32","81","1","2025-04-11 14:36:09","bb671e3ae32f654b8954ea4c4635f915","","Mozilla/5.0 (Linux; Android 10; K) AppleWebKit/537.36 (KHTML, like Gecko) Chrome/135.0.0.0 Mobile Safari/537.36","WebKit","Chrome","135.0.0.0","AndroidOS","10","https://hz8g1ckzuq.cognition.run/","en-US,en;q=0.9","eku2ddhg7b8ovwc","41","[""White""]","No","Female","1956398.2999999523","null","","<p></p>","null","rating","ctd","repulsion_2","1","televisions","null","null","null","null","null","null","1","","","","","","","","","",""
"","","","","","rating_trial","survey-html-form","68","1324190","0.0-3.0-1.32","81","1","2025-04-11 14:36:09","bb671e3ae32f654b8954ea4c4635f915","","Mozilla/5.0 (Linux; Android 10; K) AppleWebKit/537.36 (KHTML, like Gecko) Chrome/135.0.0.0 Mobile Safari/537.36","WebKit","Chrome","135.0.0.0","AndroidOS","10","https://hz8g1ckzuq.cognition.run/","en-US,en;q=0.9","eku2ddhg7b8ovwc","41","[""White""]","No","Female","1956398.2999999523","27556","","","{""price_1"":""140"",""price_2"":""125"",""price_3"":""115""}","rating","ctd","repulsion_2","1","televisions","null","null","null","null","null","null","1","100","90","100","30","40","20","Screen size","Average lifespan","",""
"","","","","","rating_trial_setup","html-keyboard-response","69","1324494","0.0-3.0-0.33","81","1","2025-04-11 14:36:09","bb671e3ae32f654b8954ea4c4635f915","","Mozilla/5.0 (Linux; Android 10; K) AppleWebKit/537.36 (KHTML, like Gecko) Chrome/135.0.0.0 Mobile Safari/537.36","WebKit","Chrome","135.0.0.0","AndroidOS","10","https://hz8g1ckzuq.cognition.run/","en-US,en;q=0.9","eku2ddhg7b8ovwc","41","[""White""]","No","Female","1956398.2999999523","null","","<p></p>","null","rating","bww","catch","null","washing machines","50","60","10","50","30","40","1","","","","","","","","","",""
"","","","","","rating_trial","survey-html-form","70","1355023","0.0-3.0-1.33","81","1","2025-04-11 14:36:09","bb671e3ae32f654b8954ea4c4635f915","","Mozilla/5.0 (Linux; Android 10; K) AppleWebKit/537.36 (KHTML, like Gecko) Chrome/135.0.0.0 Mobile Safari/537.36","WebKit","Chrome","135.0.0.0","AndroidOS","10","https://hz8g1ckzuq.cognition.run/","en-US,en;q=0.9","eku2ddhg7b8ovwc","41","[""White""]","No","Female","1956398.2999999523","30524","","","{""price_1"":""150"",""price_2"":""110"",""price_3"":""130""}","rating","bww","catch","null","washing machines","50","60","10","50","30","40","1","null","null","null","null","null","null","Average lifespan","Energy savings","",""
"","","","","","rating_trial_setup","html-keyboard-response","71","1355328","0.0-3.0-0.34","81","1","2025-04-11 14:36:09","bb671e3ae32f654b8954ea4c4635f915","","Mozilla/5.0 (Linux; Android 10; K) AppleWebKit/537.36 (KHTML, like Gecko) Chrome/135.0.0.0 Mobile Safari/537.36","WebKit","Chrome","135.0.0.0","AndroidOS","10","https://hz8g1ckzuq.cognition.run/","en-US,en;q=0.9","eku2ddhg7b8ovwc","41","[""White""]","No","Female","1956398.2999999523","null","","<p></p>","null","rating","dct","repulsion_1","2","microwave ovens","null","null","null","null","null","null","2","","","","","","","","","",""
"","","","","","rating_trial","survey-html-form","72","1382282","0.0-3.0-1.34","81","1","2025-04-11 14:36:09","bb671e3ae32f654b8954ea4c4635f915","","Mozilla/5.0 (Linux; Android 10; K) AppleWebKit/537.36 (KHTML, like Gecko) Chrome/135.0.0.0 Mobile Safari/537.36","WebKit","Chrome","135.0.0.0","AndroidOS","10","https://hz8g1ckzuq.cognition.run/","en-US,en;q=0.9","eku2ddhg7b8ovwc","41","[""White""]","No","Female","1956398.2999999523","26949","","","{""price_1"":""120"",""price_2"":""145"",""price_3"":""125""}","rating","dct","repulsion_1","2","microwave ovens","null","null","null","null","null","null","2","30","40","25","100","90","100","Warranty","Cooking power","",""
"","","","","","rating_trial_setup","html-keyboard-response","73","1382590","0.0-3.0-0.35","81","1","2025-04-11 14:36:09","bb671e3ae32f654b8954ea4c4635f915","","Mozilla/5.0 (Linux; Android 10; K) AppleWebKit/537.36 (KHTML, like Gecko) Chrome/135.0.0.0 Mobile Safari/537.36","WebKit","Chrome","135.0.0.0","AndroidOS","10","https://hz8g1ckzuq.cognition.run/","en-US,en;q=0.9","eku2ddhg7b8ovwc","41","[""White""]","No","Female","1956398.2999999523","null","","<p></p>","null","rating","dtc","attraction_2","2","laptops","null","null","null","null","null","null","1","","","","","","","","","",""
"","","","","","rating_trial","survey-html-form","74","1415134","0.0-3.0-1.35","81","1","2025-04-11 14:36:09","bb671e3ae32f654b8954ea4c4635f915","","Mozilla/5.0 (Linux; Android 10; K) AppleWebKit/537.36 (KHTML, like Gecko) Chrome/135.0.0.0 Mobile Safari/537.36","WebKit","Chrome","135.0.0.0","AndroidOS","10","https://hz8g1ckzuq.cognition.run/","en-US,en;q=0.9","eku2ddhg7b8ovwc","41","[""White""]","No","Female","1956398.2999999523","32530","","","{""price_1"":""115"",""price_2"":""125"",""price_3"":""135""}","rating","dtc","attraction_2","2","laptops","null","null","null","null","null","null","1","50","60","40","60","50","60","Processing speed","Memory (RAM)","",""
"","","","","","rating_trial_setup","html-keyboard-response","75","1415440","0.0-3.0-0.36","81","1","2025-04-11 14:36:09","bb671e3ae32f654b8954ea4c4635f915","","Mozilla/5.0 (Linux; Android 10; K) AppleWebKit/537.36 (KHTML, like Gecko) Chrome/135.0.0.0 Mobile Safari/537.36","WebKit","Chrome","135.0.0.0","AndroidOS","10","https://hz8g1ckzuq.cognition.run/","en-US,en;q=0.9","eku2ddhg7b8ovwc","41","[""White""]","No","Female","1956398.2999999523","null","","<p></p>","null","rating","dct","repulsion_2","1","washing machines","null","null","null","null","null","null","2","","","","","","","","","",""
"","","","","","rating_trial","survey-html-form","76","1438330","0.0-3.0-1.36","81","1","2025-04-11 14:36:09","bb671e3ae32f654b8954ea4c4635f915","","Mozilla/5.0 (Linux; Android 10; K) AppleWebKit/537.36 (KHTML, like Gecko) Chrome/135.0.0.0 Mobile Safari/537.36","WebKit","Chrome","135.0.0.0","AndroidOS","10","https://hz8g1ckzuq.cognition.run/","en-US,en;q=0.9","eku2ddhg7b8ovwc","41","[""White""]","No","Female","1956398.2999999523","22866","","","{""price_1"":""125"",""price_2"":""150"",""price_3"":""140""}","rating","dct","repulsion_2","1","washing machines","null","null","null","null","null","null","2","100","90","100","30","40","20","Average lifespan","Energy savings","",""
"","","","","","rating_trial_setup","html-keyboard-response","77","1438669","0.0-3.0-0.37","81","1","2025-04-11 14:36:09","bb671e3ae32f654b8954ea4c4635f915","","Mozilla/5.0 (Linux; Android 10; K) AppleWebKit/537.36 (KHTML, like Gecko) Chrome/135.0.0.0 Mobile Safari/537.36","WebKit","Chrome","135.0.0.0","AndroidOS","10","https://hz8g1ckzuq.cognition.run/","en-US,en;q=0.9","eku2ddhg7b8ovwc","41","[""White""]","No","Female","1956398.2999999523","null","","<p></p>","null","rating","ctd","attraction_1","1","televisions","null","null","null","null","null","null","2","","","","","","","","","",""
"","","","","","rating_trial","survey-html-form","78","1466832","0.0-3.0-1.37","81","1","2025-04-11 14:36:09","bb671e3ae32f654b8954ea4c4635f915","","Mozilla/5.0 (Linux; Android 10; K) AppleWebKit/537.36 (KHTML, like Gecko) Chrome/135.0.0.0 Mobile Safari/537.36","WebKit","Chrome","135.0.0.0","AndroidOS","10","https://hz8g1ckzuq.cognition.run/","en-US,en;q=0.9","eku2ddhg7b8ovwc","41","[""White""]","No","Female","1956398.2999999523","28136","","","{""price_1"":""130"",""price_2"":""150"",""price_3"":""140""}","rating","ctd","attraction_1","1","televisions","null","null","null","null","null","null","2","60","50","60","50","60","45","Screen size","Average lifespan","",""
"","","","","","rating_trial_setup","html-keyboard-response","79","1467138","0.0-3.0-0.38","81","1","2025-04-11 14:36:09","bb671e3ae32f654b8954ea4c4635f915","","Mozilla/5.0 (Linux; Android 10; K) AppleWebKit/537.36 (KHTML, like Gecko) Chrome/135.0.0.0 Mobile Safari/537.36","WebKit","Chrome","135.0.0.0","AndroidOS","10","https://hz8g1ckzuq.cognition.run/","en-US,en;q=0.9","eku2ddhg7b8ovwc","41","[""White""]","No","Female","1956398.2999999523","null","","<p></p>","null","rating","tdc","attraction_2","1","microwave ovens","null","null","null","null","null","null","1","","","","","","","","","",""
"","","","","","rating_trial","survey-html-form","80","1500716","0.0-3.0-1.38","81","1","2025-04-11 14:36:09","bb671e3ae32f654b8954ea4c4635f915","","Mozilla/5.0 (Linux; Android 10; K) AppleWebKit/537.36 (KHTML, like Gecko) Chrome/135.0.0.0 Mobile Safari/537.36","WebKit","Chrome","135.0.0.0","AndroidOS","10","https://hz8g1ckzuq.cognition.run/","en-US,en;q=0.9","eku2ddhg7b8ovwc","41","[""White""]","No","Female","1956398.2999999523","33573","","","{""price_1"":""120"",""price_2"":""110"",""price_3"":""135""}","rating","tdc","attraction_2","1","microwave ovens","null","null","null","null","null","null","1","60","50","60","50","60","40","Warranty","Cooking power","",""
"","","","","","rating_trial_setup","html-keyboard-response","81","1501021","0.0-3.0-0.39","81","1","2025-04-11 14:36:09","bb671e3ae32f654b8954ea4c4635f915","","Mozilla/5.0 (Linux; Android 10; K) AppleWebKit/537.36 (KHTML, like Gecko) Chrome/135.0.0.0 Mobile Safari/537.36","WebKit","Chrome","135.0.0.0","AndroidOS","10","https://hz8g1ckzuq.cognition.run/","en-US,en;q=0.9","eku2ddhg7b8ovwc","41","[""White""]","No","Female","1956398.2999999523","null","","<p></p>","null","rating","dct","repulsion_2","1","microwave ovens","null","null","null","null","null","null","1","","","","","","","","","",""
"","","","","","rating_trial","survey-html-form","82","1527022","0.0-3.0-1.39","81","1","2025-04-11 14:36:09","bb671e3ae32f654b8954ea4c4635f915","","Mozilla/5.0 (Linux; Android 10; K) AppleWebKit/537.36 (KHTML, like Gecko) Chrome/135.0.0.0 Mobile Safari/537.36","WebKit","Chrome","135.0.0.0","AndroidOS","10","https://hz8g1ckzuq.cognition.run/","en-US,en;q=0.9","eku2ddhg7b8ovwc","41","[""White""]","No","Female","1956398.2999999523","25997","","","{""price_1"":""115"",""price_2"":""135"",""price_3"":""125""}","rating","dct","repulsion_2","1","microwave ovens","null","null","null","null","null","null","1","100","90","100","30","40","20","Warranty","Cooking power","",""
"","","","","","","instructions","83","1575841","0.0-4.0","81","1","2025-04-11 14:36:09","bb671e3ae32f654b8954ea4c4635f915","","Mozilla/5.0 (Linux; Android 10; K) AppleWebKit/537.36 (KHTML, like Gecko) Chrome/135.0.0.0 Mobile Safari/537.36","WebKit","Chrome","135.0.0.0","AndroidOS","10","https://hz8g1ckzuq.cognition.run/","en-US,en;q=0.9","eku2ddhg7b8ovwc","41","[""White""]","No","Female","1956398.2999999523","48806","[{""page_index"":0,""viewing_time"":1936},{""page_index"":1,""viewing_time"":1800},{""page_index"":2,""viewing_time"":3564},{""page_index"":3,""viewing_time"":3429},{""page_index"":4,""viewing_time"":4262},{""page_index"":5,""viewing_time"":3547},{""page_index"":6,""viewing_time"":26788},{""page_index"":7,""viewing_time"":3480}]","","","","","","","","","","","","","","","","","","","","","","","",""
"","","","","","choice_trial_setup","html-keyboard-response","84","1576148","0.0-5.0-0.0","81","1","2025-04-11 14:36:09","bb671e3ae32f654b8954ea4c4635f915","","Mozilla/5.0 (Linux; Android 10; K) AppleWebKit/537.36 (KHTML, like Gecko) Chrome/135.0.0.0 Mobile Safari/537.36","WebKit","Chrome","135.0.0.0","AndroidOS","10","https://hz8g1ckzuq.cognition.run/","en-US,en;q=0.9","eku2ddhg7b8ovwc","41","[""White""]","No","Female","1956398.2999999523","null","","<p></p>","null","choice","ctd","attraction_1","2","televisions","null","null","null","null","null","null","2","","","","","","","","","",""
"","","","","","choice_trial","survey-html-form","85","1587863","0.0-5.0-1.0","81","1","2025-04-11 14:36:09","bb671e3ae32f654b8954ea4c4635f915","","Mozilla/5.0 (Linux; Android 10; K) AppleWebKit/537.36 (KHTML, like Gecko) Chrome/135.0.0.0 Mobile Safari/537.36","WebKit","Chrome","135.0.0.0","AndroidOS","10","https://hz8g1ckzuq.cognition.run/","en-US,en;q=0.9","eku2ddhg7b8ovwc","41","[""White""]","No","Female","1956398.2999999523","11704","","","{""product_choice"":""A""}","choice","ctd","attraction_1","2","televisions","null","null","null","null","null","null","2","50","60","45","60","50","60","Screen size","Average lifespan","",""
"","","","","","choice_trial_setup","html-keyboard-response","86","1588168","0.0-5.0-0.1","81","1","2025-04-11 14:36:09","bb671e3ae32f654b8954ea4c4635f915","","Mozilla/5.0 (Linux; Android 10; K) AppleWebKit/537.36 (KHTML, like Gecko) Chrome/135.0.0.0 Mobile Safari/537.36","WebKit","Chrome","135.0.0.0","AndroidOS","10","https://hz8g1ckzuq.cognition.run/","en-US,en;q=0.9","eku2ddhg7b8ovwc","41","[""White""]","No","Female","1956398.2999999523","null","","<p></p>","null","choice","dct","attraction_1","1","televisions","null","null","null","null","null","null","1","","","","","","","","","",""
"","","","","","choice_trial","survey-html-form","87","1600249","0.0-5.0-1.1","81","1","2025-04-11 14:36:09","bb671e3ae32f654b8954ea4c4635f915","","Mozilla/5.0 (Linux; Android 10; K) AppleWebKit/537.36 (KHTML, like Gecko) Chrome/135.0.0.0 Mobile Safari/537.36","WebKit","Chrome","135.0.0.0","AndroidOS","10","https://hz8g1ckzuq.cognition.run/","en-US,en;q=0.9","eku2ddhg7b8ovwc","41","[""White""]","No","Female","1956398.2999999523","12055","","","{""product_choice"":""C""}","choice","dct","attraction_1","1","televisions","null","null","null","null","null","null","1","60","50","60","50","60","45","Screen size","Average lifespan","",""
"","","","","","choice_trial_setup","html-keyboard-response","88","1600554","0.0-5.0-0.2","81","1","2025-04-11 14:36:09","bb671e3ae32f654b8954ea4c4635f915","","Mozilla/5.0 (Linux; Android 10; K) AppleWebKit/537.36 (KHTML, like Gecko) Chrome/135.0.0.0 Mobile Safari/537.36","WebKit","Chrome","135.0.0.0","AndroidOS","10","https://hz8g1ckzuq.cognition.run/","en-US,en;q=0.9","eku2ddhg7b8ovwc","41","[""White""]","No","Female","1956398.2999999523","null","","<p></p>","null","choice","cdt","attraction_1","1","microwave ovens","null","null","null","null","null","null","2","","","","","","","","","",""
"","","","","","choice_trial","survey-html-form","89","1607428","0.0-5.0-1.2","81","1","2025-04-11 14:36:09","bb671e3ae32f654b8954ea4c4635f915","","Mozilla/5.0 (Linux; Android 10; K) AppleWebKit/537.36 (KHTML, like Gecko) Chrome/135.0.0.0 Mobile Safari/537.36","WebKit","Chrome","135.0.0.0","AndroidOS","10","https://hz8g1ckzuq.cognition.run/","en-US,en;q=0.9","eku2ddhg7b8ovwc","41","[""White""]","No","Female","1956398.2999999523","6855","","","{""product_choice"":""A""}","choice","cdt","attraction_1","1","microwave ovens","null","null","null","null","null","null","2","60","50","60","50","60","45","Warranty","Cooking power","",""
"","","","","","choice_trial_setup","html-keyboard-response","90","1607737","0.0-5.0-0.3","81","1","2025-04-11 14:36:09","bb671e3ae32f654b8954ea4c4635f915","","Mozilla/5.0 (Linux; Android 10; K) AppleWebKit/537.36 (KHTML, like Gecko) Chrome/135.0.0.0 Mobile Safari/537.36","WebKit","Chrome","135.0.0.0","AndroidOS","10","https://hz8g1ckzuq.cognition.run/","en-US,en;q=0.9","eku2ddhg7b8ovwc","41","[""White""]","No","Female","1956398.2999999523","null","","<p></p>","null","choice","tdc","attraction_1","2","microwave ovens","null","null","null","null","null","null","2","","","","","","","","","",""
"","","","","","choice_trial","survey-html-form","91","1612339","0.0-5.0-1.3","81","1","2025-04-11 14:36:09","bb671e3ae32f654b8954ea4c4635f915","","Mozilla/5.0 (Linux; Android 10; K) AppleWebKit/537.36 (KHTML, like Gecko) Chrome/135.0.0.0 Mobile Safari/537.36","WebKit","Chrome","135.0.0.0","AndroidOS","10","https://hz8g1ckzuq.cognition.run/","en-US,en;q=0.9","eku2ddhg7b8ovwc","41","[""White""]","No","Female","1956398.2999999523","4585","","","{""product_choice"":""A""}","choice","tdc","attraction_1","2","microwave ovens","null","null","null","null","null","null","2","50","60","45","60","50","60","Warranty","Cooking power","",""
"","","","","","choice_trial_setup","html-keyboard-response","92","1612643","0.0-5.0-0.4","81","1","2025-04-11 14:36:09","bb671e3ae32f654b8954ea4c4635f915","","Mozilla/5.0 (Linux; Android 10; K) AppleWebKit/537.36 (KHTML, like Gecko) Chrome/135.0.0.0 Mobile Safari/537.36","WebKit","Chrome","135.0.0.0","AndroidOS","10","https://hz8g1ckzuq.cognition.run/","en-US,en;q=0.9","eku2ddhg7b8ovwc","41","[""White""]","No","Female","1956398.2999999523","null","","<p></p>","null","choice","bww","catch","null","televisions","50","65","30","5","5","45","1","","","","","","","","","",""
"","","","","","choice_trial","survey-html-form","93","1620863","0.0-5.0-1.4","81","1","2025-04-11 14:36:09","bb671e3ae32f654b8954ea4c4635f915","","Mozilla/5.0 (Linux; Android 10; K) AppleWebKit/537.36 (KHTML, like Gecko) Chrome/135.0.0.0 Mobile Safari/537.36","WebKit","Chrome","135.0.0.0","AndroidOS","10","https://hz8g1ckzuq.cognition.run/","en-US,en;q=0.9","eku2ddhg7b8ovwc","41","[""White""]","No","Female","1956398.2999999523","8182","","","{""product_choice"":""A""}","choice","bww","catch","null","televisions","50","65","30","5","5","45","1","null","null","null","null","null","null","Screen size","Average lifespan","",""
"","","","","","choice_trial_setup","html-keyboard-response","94","1621168","0.0-5.0-0.5","81","1","2025-04-11 14:36:09","bb671e3ae32f654b8954ea4c4635f915","","Mozilla/5.0 (Linux; Android 10; K) AppleWebKit/537.36 (KHTML, like Gecko) Chrome/135.0.0.0 Mobile Safari/537.36","WebKit","Chrome","135.0.0.0","AndroidOS","10","https://hz8g1ckzuq.cognition.run/","en-US,en;q=0.9","eku2ddhg7b8ovwc","41","[""White""]","No","Female","1956398.2999999523","null","","<p></p>","null","choice","ctd","repulsion_1","1","washing machines","null","null","null","null","null","null","1","","","","","","","","","",""
"","","","","","choice_trial","survey-html-form","95","1627623","0.0-5.0-1.5","81","1","2025-04-11 14:36:09","bb671e3ae32f654b8954ea4c4635f915","","Mozilla/5.0 (Linux; Android 10; K) AppleWebKit/537.36 (KHTML, like Gecko) Chrome/135.0.0.0 Mobile Safari/537.36","WebKit","Chrome","135.0.0.0","AndroidOS","10","https://hz8g1ckzuq.cognition.run/","en-US,en;q=0.9","eku2ddhg7b8ovwc","41","[""White""]","No","Female","1956398.2999999523","6430","","","{""product_choice"":""A""}","choice","ctd","repulsion_1","1","washing machines","null","null","null","null","null","null","1","100","90","100","30","40","25","Average lifespan","Energy savings","",""
"","","","","","choice_trial_setup","html-keyboard-response","96","1627928","0.0-5.0-0.6","81","1","2025-04-11 14:36:09","bb671e3ae32f654b8954ea4c4635f915","","Mozilla/5.0 (Linux; Android 10; K) AppleWebKit/537.36 (KHTML, like Gecko) Chrome/135.0.0.0 Mobile Safari/537.36","WebKit","Chrome","135.0.0.0","AndroidOS","10","https://hz8g1ckzuq.cognition.run/","en-US,en;q=0.9","eku2ddhg7b8ovwc","41","[""White""]","No","Female","1956398.2999999523","null","","<p></p>","null","choice","ctd","repulsion_1","2","washing machines","null","null","null","null","null","null","1","","","","","","","","","",""
"","","","","","choice_trial","survey-html-form","97","1636231","0.0-5.0-1.6","81","1","2025-04-11 14:36:09","bb671e3ae32f654b8954ea4c4635f915","","Mozilla/5.0 (Linux; Android 10; K) AppleWebKit/537.36 (KHTML, like Gecko) Chrome/135.0.0.0 Mobile Safari/537.36","WebKit","Chrome","135.0.0.0","AndroidOS","10","https://hz8g1ckzuq.cognition.run/","en-US,en;q=0.9","eku2ddhg7b8ovwc","41","[""White""]","No","Female","1956398.2999999523","8276","","","{""product_choice"":""A""}","choice","ctd","repulsion_1","2","washing machines","null","null","null","null","null","null","1","30","40","25","100","90","100","Average lifespan","Energy savings","",""
"","","","","","choice_trial_setup","html-keyboard-response","98","1636535","0.0-5.0-0.7","81","1","2025-04-11 14:36:09","bb671e3ae32f654b8954ea4c4635f915","","Mozilla/5.0 (Linux; Android 10; K) AppleWebKit/537.36 (KHTML, like Gecko) Chrome/135.0.0.0 Mobile Safari/537.36","WebKit","Chrome","135.0.0.0","AndroidOS","10","https://hz8g1ckzuq.cognition.run/","en-US,en;q=0.9","eku2ddhg7b8ovwc","41","[""White""]","No","Female","1956398.2999999523","null","","<p></p>","null","choice","wbw","catch","null","microwave ovens","75","50","35","40","25","10","1","","","","","","","","","",""
"","","","","","choice_trial","survey-html-form","99","1641541","0.0-5.0-1.7","81","1","2025-04-11 14:36:09","bb671e3ae32f654b8954ea4c4635f915","","Mozilla/5.0 (Linux; Android 10; K) AppleWebKit/537.36 (KHTML, like Gecko) Chrome/135.0.0.0 Mobile Safari/537.36","WebKit","Chrome","135.0.0.0","AndroidOS","10","https://hz8g1ckzuq.cognition.run/","en-US,en;q=0.9","eku2ddhg7b8ovwc","41","[""White""]","No","Female","1956398.2999999523","4982","","","{""product_choice"":""B""}","choice","wbw","catch","null","microwave ovens","75","50","35","40","25","10","1","null","null","null","null","null","null","Warranty","Cooking power","",""
"","","","","","choice_trial_setup","html-keyboard-response","100","1641849","0.0-5.0-0.8","81","1","2025-04-11 14:36:09","bb671e3ae32f654b8954ea4c4635f915","","Mozilla/5.0 (Linux; Android 10; K) AppleWebKit/537.36 (KHTML, like Gecko) Chrome/135.0.0.0 Mobile Safari/537.36","WebKit","Chrome","135.0.0.0","AndroidOS","10","https://hz8g1ckzuq.cognition.run/","en-US,en;q=0.9","eku2ddhg7b8ovwc","41","[""White""]","No","Female","1956398.2999999523","null","","<p></p>","null","choice","dtc","repulsion_1","1","laptops","null","null","null","null","null","null","1","","","","","","","","","",""
"","","","","","choice_trial","survey-html-form","101","1648704","0.0-5.0-1.8","81","1","2025-04-11 14:36:09","bb671e3ae32f654b8954ea4c4635f915","","Mozilla/5.0 (Linux; Android 10; K) AppleWebKit/537.36 (KHTML, like Gecko) Chrome/135.0.0.0 Mobile Safari/537.36","WebKit","Chrome","135.0.0.0","AndroidOS","10","https://hz8g1ckzuq.cognition.run/","en-US,en;q=0.9","eku2ddhg7b8ovwc","41","[""White""]","No","Female","1956398.2999999523","6831","","","{""product_choice"":""C""}","choice","dtc","repulsion_1","1","laptops","null","null","null","null","null","null","1","100","90","100","30","40","25","Processing speed","Memory (RAM)","",""
"","","","","","choice_trial_setup","html-keyboard-response","102","1649011","0.0-5.0-0.9","81","1","2025-04-11 14:36:09","bb671e3ae32f654b8954ea4c4635f915","","Mozilla/5.0 (Linux; Android 10; K) AppleWebKit/537.36 (KHTML, like Gecko) Chrome/135.0.0.0 Mobile Safari/537.36","WebKit","Chrome","135.0.0.0","AndroidOS","10","https://hz8g1ckzuq.cognition.run/","en-US,en;q=0.9","eku2ddhg7b8ovwc","41","[""White""]","No","Female","1956398.2999999523","null","","<p></p>","null","choice","wwb","catch","null","laptops","75","95","25","10","25","35","2","","","","","","","","","",""
"","","","","","choice_trial","survey-html-form","103","1653467","0.0-5.0-1.9","81","1","2025-04-11 14:36:09","bb671e3ae32f654b8954ea4c4635f915","","Mozilla/5.0 (Linux; Android 10; K) AppleWebKit/537.36 (KHTML, like Gecko) Chrome/135.0.0.0 Mobile Safari/537.36","WebKit","Chrome","135.0.0.0","AndroidOS","10","https://hz8g1ckzuq.cognition.run/","en-US,en;q=0.9","eku2ddhg7b8ovwc","41","[""White""]","No","Female","1956398.2999999523","4433","","","{""product_choice"":""C""}","choice","wwb","catch","null","laptops","75","95","25","10","25","35","2","null","null","null","null","null","null","Processing speed","Memory (RAM)","",""
"","","","","","choice_trial_setup","html-keyboard-response","104","1653773","0.0-5.0-0.10","81","1","2025-04-11 14:36:09","bb671e3ae32f654b8954ea4c4635f915","","Mozilla/5.0 (Linux; Android 10; K) AppleWebKit/537.36 (KHTML, like Gecko) Chrome/135.0.0.0 Mobile Safari/537.36","WebKit","Chrome","135.0.0.0","AndroidOS","10","https://hz8g1ckzuq.cognition.run/","en-US,en;q=0.9","eku2ddhg7b8ovwc","41","[""White""]","No","Female","1956398.2999999523","null","","<p></p>","null","choice","tdc","attraction_2","1","washing machines","null","null","null","null","null","null","2","","","","","","","","","",""
"","","","","","choice_trial","survey-html-form","105","1662351","0.0-5.0-1.10","81","1","2025-04-11 14:36:09","bb671e3ae32f654b8954ea4c4635f915","","Mozilla/5.0 (Linux; Android 10; K) AppleWebKit/537.36 (KHTML, like Gecko) Chrome/135.0.0.0 Mobile Safari/537.36","WebKit","Chrome","135.0.0.0","AndroidOS","10","https://hz8g1ckzuq.cognition.run/","en-US,en;q=0.9","eku2ddhg7b8ovwc","41","[""White""]","No","Female","1956398.2999999523","8560","","","{""product_choice"":""C""}","choice","tdc","attraction_2","1","washing machines","null","null","null","null","null","null","2","60","50","60","50","60","40","Average lifespan","Energy savings","",""
"","","","","","choice_trial_setup","html-keyboard-response","106","1662656","0.0-5.0-0.11","81","1","2025-04-11 14:36:09","bb671e3ae32f654b8954ea4c4635f915","","Mozilla/5.0 (Linux; Android 10; K) AppleWebKit/537.36 (KHTML, like Gecko) Chrome/135.0.0.0 Mobile Safari/537.36","WebKit","Chrome","135.0.0.0","AndroidOS","10","https://hz8g1ckzuq.cognition.run/","en-US,en;q=0.9","eku2ddhg7b8ovwc","41","[""White""]","No","Female","1956398.2999999523","null","","<p></p>","null","choice","wbw","catch","null","microwave ovens","85","80","40","35","45","20","2","","","","","","","","","",""
"","","","","","choice_trial","survey-html-form","107","1668816","0.0-5.0-1.11","81","1","2025-04-11 14:36:09","bb671e3ae32f654b8954ea4c4635f915","","Mozilla/5.0 (Linux; Android 10; K) AppleWebKit/537.36 (KHTML, like Gecko) Chrome/135.0.0.0 Mobile Safari/537.36","WebKit","Chrome","135.0.0.0","AndroidOS","10","https://hz8g1ckzuq.cognition.run/","en-US,en;q=0.9","eku2ddhg7b8ovwc","41","[""White""]","No","Female","1956398.2999999523","6133","","","{""product_choice"":""B""}","choice","wbw","catch","null","microwave ovens","85","80","40","35","45","20","2","null","null","null","null","null","null","Warranty","Cooking power","",""
"","","","","","choice_trial_setup","html-keyboard-response","108","1669122","0.0-5.0-0.12","81","1","2025-04-11 14:36:09","bb671e3ae32f654b8954ea4c4635f915","","Mozilla/5.0 (Linux; Android 10; K) AppleWebKit/537.36 (KHTML, like Gecko) Chrome/135.0.0.0 Mobile Safari/537.36","WebKit","Chrome","135.0.0.0","AndroidOS","10","https://hz8g1ckzuq.cognition.run/","en-US,en;q=0.9","eku2ddhg7b8ovwc","41","[""White""]","No","Female","1956398.2999999523","null","","<p></p>","null","choice","tdc","repulsion_1","1","televisions","null","null","null","null","null","null","2","","","","","","","","","",""
"","","","","","choice_trial","survey-html-form","109","1678280","0.0-5.0-1.12","81","1","2025-04-11 14:36:09","bb671e3ae32f654b8954ea4c4635f915","","Mozilla/5.0 (Linux; Android 10; K) AppleWebKit/537.36 (KHTML, like Gecko) Chrome/135.0.0.0 Mobile Safari/537.36","WebKit","Chrome","135.0.0.0","AndroidOS","10","https://hz8g1ckzuq.cognition.run/","en-US,en;q=0.9","eku2ddhg7b8ovwc","41","[""White""]","No","Female","1956398.2999999523","9125","","","{""product_choice"":""C""}","choice","tdc","repulsion_1","1","televisions","null","null","null","null","null","null","2","100","90","100","30","40","25","Screen size","Average lifespan","",""
"","","","","","choice_trial_setup","html-keyboard-response","110","1678586","0.0-5.0-0.13","81","1","2025-04-11 14:36:09","bb671e3ae32f654b8954ea4c4635f915","","Mozilla/5.0 (Linux; Android 10; K) AppleWebKit/537.36 (KHTML, like Gecko) Chrome/135.0.0.0 Mobile Safari/537.36","WebKit","Chrome","135.0.0.0","AndroidOS","10","https://hz8g1ckzuq.cognition.run/","en-US,en;q=0.9","eku2ddhg7b8ovwc","41","[""White""]","No","Female","1956398.2999999523","null","","<p></p>","null","choice","wwb","catch","null","washing machines","75","80","40","30","25","30","2","","","","","","","","","",""
"","","","","","choice_trial","survey-html-form","111","1685413","0.0-5.0-1.13","81","1","2025-04-11 14:36:09","bb671e3ae32f654b8954ea4c4635f915","","Mozilla/5.0 (Linux; Android 10; K) AppleWebKit/537.36 (KHTML, like Gecko) Chrome/135.0.0.0 Mobile Safari/537.36","WebKit","Chrome","135.0.0.0","AndroidOS","10","https://hz8g1ckzuq.cognition.run/","en-US,en;q=0.9","eku2ddhg7b8ovwc","41","[""White""]","No","Female","1956398.2999999523","6811","","","{""product_choice"":""C""}","choice","wwb","catch","null","washing machines","75","80","40","30","25","30","2","null","null","null","null","null","null","Average lifespan","Energy savings","",""
"","","","","","choice_trial_setup","html-keyboard-response","112","1685719","0.0-5.0-0.14","81","1","2025-04-11 14:36:09","bb671e3ae32f654b8954ea4c4635f915","","Mozilla/5.0 (Linux; Android 10; K) AppleWebKit/537.36 (KHTML, like Gecko) Chrome/135.0.0.0 Mobile Safari/537.36","WebKit","Chrome","135.0.0.0","AndroidOS","10","https://hz8g1ckzuq.cognition.run/","en-US,en;q=0.9","eku2ddhg7b8ovwc","41","[""White""]","No","Female","1956398.2999999523","null","","<p></p>","null","choice","tdc","attraction_2","1","laptops","null","null","null","null","null","null","1","","","","","","","","","",""
"","","","","","choice_trial","survey-html-form","113","1694262","0.0-5.0-1.14","81","1","2025-04-11 14:36:09","bb671e3ae32f654b8954ea4c4635f915","","Mozilla/5.0 (Linux; Android 10; K) AppleWebKit/537.36 (KHTML, like Gecko) Chrome/135.0.0.0 Mobile Safari/537.36","WebKit","Chrome","135.0.0.0","AndroidOS","10","https://hz8g1ckzuq.cognition.run/","en-US,en;q=0.9","eku2ddhg7b8ovwc","41","[""White""]","No","Female","1956398.2999999523","8517","","","{""product_choice"":""C""}","choice","tdc","attraction_2","1","laptops","null","null","null","null","null","null","1","60","50","60","50","60","40","Processing speed","Memory (RAM)","",""
"","","","","","choice_trial_setup","html-keyboard-response","114","1694567","0.0-5.0-0.15","81","1","2025-04-11 14:36:09","bb671e3ae32f654b8954ea4c4635f915","","Mozilla/5.0 (Linux; Android 10; K) AppleWebKit/537.36 (KHTML, like Gecko) Chrome/135.0.0.0 Mobile Safari/537.36","WebKit","Chrome","135.0.0.0","AndroidOS","10","https://hz8g1ckzuq.cognition.run/","en-US,en;q=0.9","eku2ddhg7b8ovwc","41","[""White""]","No","Female","1956398.2999999523","null","","<p></p>","null","choice","cdt","repulsion_2","1","laptops","null","null","null","null","null","null","1","","","","","","","","","",""
"","","","","","choice_trial","survey-html-form","115","1701126","0.0-5.0-1.15","81","1","2025-04-11 14:36:09","bb671e3ae32f654b8954ea4c4635f915","","Mozilla/5.0 (Linux; Android 10; K) AppleWebKit/537.36 (KHTML, like Gecko) Chrome/135.0.0.0 Mobile Safari/537.36","WebKit","Chrome","135.0.0.0","AndroidOS","10","https://hz8g1ckzuq.cognition.run/","en-US,en;q=0.9","eku2ddhg7b8ovwc","41","[""White""]","No","Female","1956398.2999999523","6534","","","{""product_choice"":""A""}","choice","cdt","repulsion_2","1","laptops","null","null","null","null","null","null","1","100","90","100","30","40","20","Processing speed","Memory (RAM)","",""
"","","","","","choice_trial_setup","html-keyboard-response","116","1701432","0.0-5.0-0.16","81","1","2025-04-11 14:36:09","bb671e3ae32f654b8954ea4c4635f915","","Mozilla/5.0 (Linux; Android 10; K) AppleWebKit/537.36 (KHTML, like Gecko) Chrome/135.0.0.0 Mobile Safari/537.36","WebKit","Chrome","135.0.0.0","AndroidOS","10","https://hz8g1ckzuq.cognition.run/","en-US,en;q=0.9","eku2ddhg7b8ovwc","41","[""White""]","No","Female","1956398.2999999523","null","","<p></p>","null","choice","tdc","attraction_1","2","laptops","null","null","null","null","null","null","2","","","","","","","","","",""
"","","","","","choice_trial","survey-html-form","117","1710540","0.0-5.0-1.16","81","1","2025-04-11 14:36:09","bb671e3ae32f654b8954ea4c4635f915","","Mozilla/5.0 (Linux; Android 10; K) AppleWebKit/537.36 (KHTML, like Gecko) Chrome/135.0.0.0 Mobile Safari/537.36","WebKit","Chrome","135.0.0.0","AndroidOS","10","https://hz8g1ckzuq.cognition.run/","en-US,en;q=0.9","eku2ddhg7b8ovwc","41","[""White""]","No","Female","1956398.2999999523","9082","","","{""product_choice"":""A""}","choice","tdc","attraction_1","2","laptops","null","null","null","null","null","null","2","50","60","45","60","50","60","Processing speed","Memory (RAM)","",""
"","","","","","choice_trial_setup","html-keyboard-response","118","1710847","0.0-5.0-0.17","81","1","2025-04-11 14:36:09","bb671e3ae32f654b8954ea4c4635f915","","Mozilla/5.0 (Linux; Android 10; K) AppleWebKit/537.36 (KHTML, like Gecko) Chrome/135.0.0.0 Mobile Safari/537.36","WebKit","Chrome","135.0.0.0","AndroidOS","10","https://hz8g1ckzuq.cognition.run/","en-US,en;q=0.9","eku2ddhg7b8ovwc","41","[""White""]","No","Female","1956398.2999999523","null","","<p></p>","null","choice","dtc","attraction_2","1","televisions","null","null","null","null","null","null","1","","","","","","","","","",""
"","","","","","choice_trial","survey-html-form","119","1720254","0.0-5.0-1.17","81","1","2025-04-11 14:36:09","bb671e3ae32f654b8954ea4c4635f915","","Mozilla/5.0 (Linux; Android 10; K) AppleWebKit/537.36 (KHTML, like Gecko) Chrome/135.0.0.0 Mobile Safari/537.36","WebKit","Chrome","135.0.0.0","AndroidOS","10","https://hz8g1ckzuq.cognition.run/","en-US,en;q=0.9","eku2ddhg7b8ovwc","41","[""White""]","No","Female","1956398.2999999523","9380","","","{""product_choice"":""B""}","choice","dtc","attraction_2","1","televisions","null","null","null","null","null","null","1","60","50","60","50","60","40","Screen size","Average lifespan","",""
"","","","","","choice_trial_setup","html-keyboard-response","120","1720560","0.0-5.0-0.18","81","1","2025-04-11 14:36:09","bb671e3ae32f654b8954ea4c4635f915","","Mozilla/5.0 (Linux; Android 10; K) AppleWebKit/537.36 (KHTML, like Gecko) Chrome/135.0.0.0 Mobile Safari/537.36","WebKit","Chrome","135.0.0.0","AndroidOS","10","https://hz8g1ckzuq.cognition.run/","en-US,en;q=0.9","eku2ddhg7b8ovwc","41","[""White""]","No","Female","1956398.2999999523","null","","<p></p>","null","choice","tdc","repulsion_1","2","microwave ovens","null","null","null","null","null","null","2","","","","","","","","","",""
"","","","","","choice_trial","survey-html-form","121","1724621","0.0-5.0-1.18","81","1","2025-04-11 14:36:09","bb671e3ae32f654b8954ea4c4635f915","","Mozilla/5.0 (Linux; Android 10; K) AppleWebKit/537.36 (KHTML, like Gecko) Chrome/135.0.0.0 Mobile Safari/537.36","WebKit","Chrome","135.0.0.0","AndroidOS","10","https://hz8g1ckzuq.cognition.run/","en-US,en;q=0.9","eku2ddhg7b8ovwc","41","[""White""]","No","Female","1956398.2999999523","4038","","","{""product_choice"":""C""}","choice","tdc","repulsion_1","2","microwave ovens","null","null","null","null","null","null","2","30","40","25","100","90","100","Warranty","Cooking power","",""
"","","","","","choice_trial_setup","html-keyboard-response","122","1724928","0.0-5.0-0.19","81","1","2025-04-11 14:36:09","bb671e3ae32f654b8954ea4c4635f915","","Mozilla/5.0 (Linux; Android 10; K) AppleWebKit/537.36 (KHTML, like Gecko) Chrome/135.0.0.0 Mobile Safari/537.36","WebKit","Chrome","135.0.0.0","AndroidOS","10","https://hz8g1ckzuq.cognition.run/","en-US,en;q=0.9","eku2ddhg7b8ovwc","41","[""White""]","No","Female","1956398.2999999523","null","","<p></p>","null","choice","dct","repulsion_1","1","microwave ovens","null","null","null","null","null","null","1","","","","","","","","","",""
"","","","","","choice_trial","survey-html-form","123","1733769","0.0-5.0-1.19","81","1","2025-04-11 14:36:09","bb671e3ae32f654b8954ea4c4635f915","","Mozilla/5.0 (Linux; Android 10; K) AppleWebKit/537.36 (KHTML, like Gecko) Chrome/135.0.0.0 Mobile Safari/537.36","WebKit","Chrome","135.0.0.0","AndroidOS","10","https://hz8g1ckzuq.cognition.run/","en-US,en;q=0.9","eku2ddhg7b8ovwc","41","[""White""]","No","Female","1956398.2999999523","8815","","","{""product_choice"":""B""}","choice","dct","repulsion_1","1","microwave ovens","null","null","null","null","null","null","1","100","90","100","30","40","25","Warranty","Cooking power","",""
"","","","","","choice_trial_setup","html-keyboard-response","124","1734075","0.0-5.0-0.20","81","1","2025-04-11 14:36:09","bb671e3ae32f654b8954ea4c4635f915","","Mozilla/5.0 (Linux; Android 10; K) AppleWebKit/537.36 (KHTML, like Gecko) Chrome/135.0.0.0 Mobile Safari/537.36","WebKit","Chrome","135.0.0.0","AndroidOS","10","https://hz8g1ckzuq.cognition.run/","en-US,en;q=0.9","eku2ddhg7b8ovwc","41","[""White""]","No","Female","1956398.2999999523","null","","<p></p>","null","choice","ctd","attraction_1","1","washing machines","null","null","null","null","null","null","2","","","","","","","","","",""
"","","","","","choice_trial","survey-html-form","125","1738550","0.0-5.0-1.20","81","1","2025-04-11 14:36:09","bb671e3ae32f654b8954ea4c4635f915","","Mozilla/5.0 (Linux; Android 10; K) AppleWebKit/537.36 (KHTML, like Gecko) Chrome/135.0.0.0 Mobile Safari/537.36","WebKit","Chrome","135.0.0.0","AndroidOS","10","https://hz8g1ckzuq.cognition.run/","en-US,en;q=0.9","eku2ddhg7b8ovwc","41","[""White""]","No","Female","1956398.2999999523","4453","","","{""product_choice"":""A""}","choice","ctd","attraction_1","1","washing machines","null","null","null","null","null","null","2","60","50","60","50","60","45","Average lifespan","Energy savings","",""
"","","","","","choice_trial_setup","html-keyboard-response","126","1738856","0.0-5.0-0.21","81","1","2025-04-11 14:36:09","bb671e3ae32f654b8954ea4c4635f915","","Mozilla/5.0 (Linux; Android 10; K) AppleWebKit/537.36 (KHTML, like Gecko) Chrome/135.0.0.0 Mobile Safari/537.36","WebKit","Chrome","135.0.0.0","AndroidOS","10","https://hz8g1ckzuq.cognition.run/","en-US,en;q=0.9","eku2ddhg7b8ovwc","41","[""White""]","No","Female","1956398.2999999523","null","","<p></p>","null","choice","dct","repulsion_1","2","laptops","null","null","null","null","null","null","2","","","","","","","","","",""
"","","","","","choice_trial","survey-html-form","127","1747548","0.0-5.0-1.21","81","1","2025-04-11 14:36:09","bb671e3ae32f654b8954ea4c4635f915","","Mozilla/5.0 (Linux; Android 10; K) AppleWebKit/537.36 (KHTML, like Gecko) Chrome/135.0.0.0 Mobile Safari/537.36","WebKit","Chrome","135.0.0.0","AndroidOS","10","https://hz8g1ckzuq.cognition.run/","en-US,en;q=0.9","eku2ddhg7b8ovwc","41","[""White""]","No","Female","1956398.2999999523","8677","","","{""product_choice"":""B""}","choice","dct","repulsion_1","2","laptops","null","null","null","null","null","null","2","30","40","25","100","90","100","Processing speed","Memory (RAM)","",""
"","","","","","choice_trial_setup","html-keyboard-response","128","1747855","0.0-5.0-0.22","81","1","2025-04-11 14:36:09","bb671e3ae32f654b8954ea4c4635f915","","Mozilla/5.0 (Linux; Android 10; K) AppleWebKit/537.36 (KHTML, like Gecko) Chrome/135.0.0.0 Mobile Safari/537.36","WebKit","Chrome","135.0.0.0","AndroidOS","10","https://hz8g1ckzuq.cognition.run/","en-US,en;q=0.9","eku2ddhg7b8ovwc","41","[""White""]","No","Female","1956398.2999999523","null","","<p></p>","null","choice","dtc","repulsion_2","2","washing machines","null","null","null","null","null","null","1","","","","","","","","","",""
"","","","","","choice_trial","survey-html-form","129","1754681","0.0-5.0-1.22","81","1","2025-04-11 14:36:09","bb671e3ae32f654b8954ea4c4635f915","","Mozilla/5.0 (Linux; Android 10; K) AppleWebKit/537.36 (KHTML, like Gecko) Chrome/135.0.0.0 Mobile Safari/537.36","WebKit","Chrome","135.0.0.0","AndroidOS","10","https://hz8g1ckzuq.cognition.run/","en-US,en;q=0.9","eku2ddhg7b8ovwc","41","[""White""]","No","Female","1956398.2999999523","6804","","","{""product_choice"":""C""}","choice","dtc","repulsion_2","2","washing machines","null","null","null","null","null","null","1","30","40","20","100","90","100","Average lifespan","Energy savings","",""
"","","","","","choice_trial_setup","html-keyboard-response","130","1754987","0.0-5.0-0.23","81","1","2025-04-11 14:36:09","bb671e3ae32f654b8954ea4c4635f915","","Mozilla/5.0 (Linux; Android 10; K) AppleWebKit/537.36 (KHTML, like Gecko) Chrome/135.0.0.0 Mobile Safari/537.36","WebKit","Chrome","135.0.0.0","AndroidOS","10","https://hz8g1ckzuq.cognition.run/","en-US,en;q=0.9","eku2ddhg7b8ovwc","41","[""White""]","No","Female","1956398.2999999523","null","","<p></p>","null","choice","bww","catch","null","laptops","90","90","15","40","15","25","1","","","","","","","","","",""
"","","","","","choice_trial","survey-html-form","131","1760198","0.0-5.0-1.23","81","1","2025-04-11 14:36:09","bb671e3ae32f654b8954ea4c4635f915","","Mozilla/5.0 (Linux; Android 10; K) AppleWebKit/537.36 (KHTML, like Gecko) Chrome/135.0.0.0 Mobile Safari/537.36","WebKit","Chrome","135.0.0.0","AndroidOS","10","https://hz8g1ckzuq.cognition.run/","en-US,en;q=0.9","eku2ddhg7b8ovwc","41","[""White""]","No","Female","1956398.2999999523","5187","","","{""product_choice"":""A""}","choice","bww","catch","null","laptops","90","90","15","40","15","25","1","null","null","null","null","null","null","Processing speed","Memory (RAM)","",""
"","","","","","choice_trial_setup","html-keyboard-response","132","1760507","0.0-5.0-0.24","81","1","2025-04-11 14:36:09","bb671e3ae32f654b8954ea4c4635f915","","Mozilla/5.0 (Linux; Android 10; K) AppleWebKit/537.36 (KHTML, like Gecko) Chrome/135.0.0.0 Mobile Safari/537.36","WebKit","Chrome","135.0.0.0","AndroidOS","10","https://hz8g1ckzuq.cognition.run/","en-US,en;q=0.9","eku2ddhg7b8ovwc","41","[""White""]","No","Female","1956398.2999999523","null","","<p></p>","null","choice","bww","catch","null","televisions","60","55","5","45","20","50","2","","","","","","","","","",""
"","","","","","choice_trial","survey-html-form","133","1766629","0.0-5.0-1.24","81","1","2025-04-11 14:36:09","bb671e3ae32f654b8954ea4c4635f915","","Mozilla/5.0 (Linux; Android 10; K) AppleWebKit/537.36 (KHTML, like Gecko) Chrome/135.0.0.0 Mobile Safari/537.36","WebKit","Chrome","135.0.0.0","AndroidOS","10","https://hz8g1ckzuq.cognition.run/","en-US,en;q=0.9","eku2ddhg7b8ovwc","41","[""White""]","No","Female","1956398.2999999523","6094","","","{""product_choice"":""A""}","choice","bww","catch","null","televisions","60","55","5","45","20","50","2","null","null","null","null","null","null","Screen size","Average lifespan","",""
"","","","","","choice_trial_setup","html-keyboard-response","134","1766935","0.0-5.0-0.25","81","1","2025-04-11 14:36:09","bb671e3ae32f654b8954ea4c4635f915","","Mozilla/5.0 (Linux; Android 10; K) AppleWebKit/537.36 (KHTML, like Gecko) Chrome/135.0.0.0 Mobile Safari/537.36","WebKit","Chrome","135.0.0.0","AndroidOS","10","https://hz8g1ckzuq.cognition.run/","en-US,en;q=0.9","eku2ddhg7b8ovwc","41","[""White""]","No","Female","1956398.2999999523","null","","<p></p>","null","choice","ctd","attraction_2","2","washing machines","null","null","null","null","null","null","2","","","","","","","","","",""
"","","","","","choice_trial","survey-html-form","135","1774559","0.0-5.0-1.25","81","1","2025-04-11 14:36:09","bb671e3ae32f654b8954ea4c4635f915","","Mozilla/5.0 (Linux; Android 10; K) AppleWebKit/537.36 (KHTML, like Gecko) Chrome/135.0.0.0 Mobile Safari/537.36","WebKit","Chrome","135.0.0.0","AndroidOS","10","https://hz8g1ckzuq.cognition.run/","en-US,en;q=0.9","eku2ddhg7b8ovwc","41","[""White""]","No","Female","1956398.2999999523","7595","","","{""product_choice"":""B""}","choice","ctd","attraction_2","2","washing machines","null","null","null","null","null","null","2","50","60","40","60","50","60","Average lifespan","Energy savings","",""
"","","","","","choice_trial_setup","html-keyboard-response","136","1774866","0.0-5.0-0.26","81","1","2025-04-11 14:36:09","bb671e3ae32f654b8954ea4c4635f915","","Mozilla/5.0 (Linux; Android 10; K) AppleWebKit/537.36 (KHTML, like Gecko) Chrome/135.0.0.0 Mobile Safari/537.36","WebKit","Chrome","135.0.0.0","AndroidOS","10","https://hz8g1ckzuq.cognition.run/","en-US,en;q=0.9","eku2ddhg7b8ovwc","41","[""White""]","No","Female","1956398.2999999523","null","","<p></p>","null","choice","tcd","attraction_2","1","microwave ovens","null","null","null","null","null","null","1","","","","","","","","","",""
"","","","","","choice_trial","survey-html-form","137","1781058","0.0-5.0-1.26","81","1","2025-04-11 14:36:09","bb671e3ae32f654b8954ea4c4635f915","","Mozilla/5.0 (Linux; Android 10; K) AppleWebKit/537.36 (KHTML, like Gecko) Chrome/135.0.0.0 Mobile Safari/537.36","WebKit","Chrome","135.0.0.0","AndroidOS","10","https://hz8g1ckzuq.cognition.run/","en-US,en;q=0.9","eku2ddhg7b8ovwc","41","[""White""]","No","Female","1956398.2999999523","6163","","","{""product_choice"":""B""}","choice","tcd","attraction_2","1","microwave ovens","null","null","null","null","null","null","1","60","50","60","50","60","40","Warranty","Cooking power","",""
"","","","","","choice_trial_setup","html-keyboard-response","138","1781366","0.0-5.0-0.27","81","1","2025-04-11 14:36:09","bb671e3ae32f654b8954ea4c4635f915","","Mozilla/5.0 (Linux; Android 10; K) AppleWebKit/537.36 (KHTML, like Gecko) Chrome/135.0.0.0 Mobile Safari/537.36","WebKit","Chrome","135.0.0.0","AndroidOS","10","https://hz8g1ckzuq.cognition.run/","en-US,en;q=0.9","eku2ddhg7b8ovwc","41","[""White""]","No","Female","1956398.2999999523","null","","<p></p>","null","choice","ctd","attraction_2","2","laptops","null","null","null","null","null","null","2","","","","","","","","","",""
"","","","","","choice_trial","survey-html-form","139","1791157","0.0-5.0-1.27","81","1","2025-04-11 14:36:09","bb671e3ae32f654b8954ea4c4635f915","","Mozilla/5.0 (Linux; Android 10; K) AppleWebKit/537.36 (KHTML, like Gecko) Chrome/135.0.0.0 Mobile Safari/537.36","WebKit","Chrome","135.0.0.0","AndroidOS","10","https://hz8g1ckzuq.cognition.run/","en-US,en;q=0.9","eku2ddhg7b8ovwc","41","[""White""]","No","Female","1956398.2999999523","9766","","","{""product_choice"":""B""}","choice","ctd","attraction_2","2","laptops","null","null","null","null","null","null","2","50","60","40","60","50","60","Processing speed","Memory (RAM)","",""
"","","","","","choice_trial_setup","html-keyboard-response","140","1791463","0.0-5.0-0.28","81","1","2025-04-11 14:36:09","bb671e3ae32f654b8954ea4c4635f915","","Mozilla/5.0 (Linux; Android 10; K) AppleWebKit/537.36 (KHTML, like Gecko) Chrome/135.0.0.0 Mobile Safari/537.36","WebKit","Chrome","135.0.0.0","AndroidOS","10","https://hz8g1ckzuq.cognition.run/","en-US,en;q=0.9","eku2ddhg7b8ovwc","41","[""White""]","No","Female","1956398.2999999523","null","","<p></p>","null","choice","dtc","repulsion_2","2","microwave ovens","null","null","null","null","null","null","1","","","","","","","","","",""
"","","","","","choice_trial","survey-html-form","141","1798539","0.0-5.0-1.28","81","1","2025-04-11 14:36:09","bb671e3ae32f654b8954ea4c4635f915","","Mozilla/5.0 (Linux; Android 10; K) AppleWebKit/537.36 (KHTML, like Gecko) Chrome/135.0.0.0 Mobile Safari/537.36","WebKit","Chrome","135.0.0.0","AndroidOS","10","https://hz8g1ckzuq.cognition.run/","en-US,en;q=0.9","eku2ddhg7b8ovwc","41","[""White""]","No","Female","1956398.2999999523","7069","","","{""product_choice"":""C""}","choice","dtc","repulsion_2","2","microwave ovens","null","null","null","null","null","null","1","30","40","20","100","90","100","Warranty","Cooking power","",""
"","","","","","choice_trial_setup","html-keyboard-response","142","1798846","0.0-5.0-0.29","81","1","2025-04-11 14:36:09","bb671e3ae32f654b8954ea4c4635f915","","Mozilla/5.0 (Linux; Android 10; K) AppleWebKit/537.36 (KHTML, like Gecko) Chrome/135.0.0.0 Mobile Safari/537.36","WebKit","Chrome","135.0.0.0","AndroidOS","10","https://hz8g1ckzuq.cognition.run/","en-US,en;q=0.9","eku2ddhg7b8ovwc","41","[""White""]","No","Female","1956398.2999999523","null","","<p></p>","null","choice","dtc","attraction_2","2","televisions","null","null","null","null","null","null","2","","","","","","","","","",""
"","","","","","choice_trial","survey-html-form","143","1806603","0.0-5.0-1.29","81","1","2025-04-11 14:36:09","bb671e3ae32f654b8954ea4c4635f915","","Mozilla/5.0 (Linux; Android 10; K) AppleWebKit/537.36 (KHTML, like Gecko) Chrome/135.0.0.0 Mobile Safari/537.36","WebKit","Chrome","135.0.0.0","AndroidOS","10","https://hz8g1ckzuq.cognition.run/","en-US,en;q=0.9","eku2ddhg7b8ovwc","41","[""White""]","No","Female","1956398.2999999523","7732","","","{""product_choice"":""C""}","choice","dtc","attraction_2","2","televisions","null","null","null","null","null","null","2","50","60","40","60","50","60","Screen size","Average lifespan","",""
"","","","","","choice_trial_setup","html-keyboard-response","144","1806910","0.0-5.0-0.30","81","1","2025-04-11 14:36:09","bb671e3ae32f654b8954ea4c4635f915","","Mozilla/5.0 (Linux; Android 10; K) AppleWebKit/537.36 (KHTML, like Gecko) Chrome/135.0.0.0 Mobile Safari/537.36","WebKit","Chrome","135.0.0.0","AndroidOS","10","https://hz8g1ckzuq.cognition.run/","en-US,en;q=0.9","eku2ddhg7b8ovwc","41","[""White""]","No","Female","1956398.2999999523","null","","<p></p>","null","choice","cdt","repulsion_2","2","laptops","null","null","null","null","null","null","2","","","","","","","","","",""
"","","","","","choice_trial","survey-html-form","145","1815751","0.0-5.0-1.30","81","1","2025-04-11 14:36:09","bb671e3ae32f654b8954ea4c4635f915","","Mozilla/5.0 (Linux; Android 10; K) AppleWebKit/537.36 (KHTML, like Gecko) Chrome/135.0.0.0 Mobile Safari/537.36","WebKit","Chrome","135.0.0.0","AndroidOS","10","https://hz8g1ckzuq.cognition.run/","en-US,en;q=0.9","eku2ddhg7b8ovwc","41","[""White""]","No","Female","1956398.2999999523","8821","","","{""product_choice"":""A""}","choice","cdt","repulsion_2","2","laptops","null","null","null","null","null","null","2","30","40","20","100","90","100","Processing speed","Memory (RAM)","",""
"","","","","","choice_trial_setup","html-keyboard-response","146","1816057","0.0-5.0-0.31","81","1","2025-04-11 14:36:09","bb671e3ae32f654b8954ea4c4635f915","","Mozilla/5.0 (Linux; Android 10; K) AppleWebKit/537.36 (KHTML, like Gecko) Chrome/135.0.0.0 Mobile Safari/537.36","WebKit","Chrome","135.0.0.0","AndroidOS","10","https://hz8g1ckzuq.cognition.run/","en-US,en;q=0.9","eku2ddhg7b8ovwc","41","[""White""]","No","Female","1956398.2999999523","null","","<p></p>","null","choice","dtc","repulsion_2","1","washing machines","null","null","null","null","null","null","2","","","","","","","","","",""
"","","","","","choice_trial","survey-html-form","147","1833248","0.0-5.0-1.31","81","1","2025-04-11 14:36:09","bb671e3ae32f654b8954ea4c4635f915","","Mozilla/5.0 (Linux; Android 10; K) AppleWebKit/537.36 (KHTML, like Gecko) Chrome/135.0.0.0 Mobile Safari/537.36","WebKit","Chrome","135.0.0.0","AndroidOS","10","https://hz8g1ckzuq.cognition.run/","en-US,en;q=0.9","eku2ddhg7b8ovwc","41","[""White""]","No","Female","1956398.2999999523","17159","","","{""product_choice"":""C""}","choice","dtc","repulsion_2","1","washing machines","null","null","null","null","null","null","2","100","90","100","30","40","20","Average lifespan","Energy savings","",""
"","","","","","choice_trial_setup","html-keyboard-response","148","1833554","0.0-5.0-0.32","81","1","2025-04-11 14:36:09","bb671e3ae32f654b8954ea4c4635f915","","Mozilla/5.0 (Linux; Android 10; K) AppleWebKit/537.36 (KHTML, like Gecko) Chrome/135.0.0.0 Mobile Safari/537.36","WebKit","Chrome","135.0.0.0","AndroidOS","10","https://hz8g1ckzuq.cognition.run/","en-US,en;q=0.9","eku2ddhg7b8ovwc","41","[""White""]","No","Female","1956398.2999999523","null","","<p></p>","null","choice","cdt","repulsion_2","2","televisions","null","null","null","null","null","null","2","","","","","","","","","",""
"","","","","","choice_trial","survey-html-form","149","1839013","0.0-5.0-1.32","81","1","2025-04-11 14:36:09","bb671e3ae32f654b8954ea4c4635f915","","Mozilla/5.0 (Linux; Android 10; K) AppleWebKit/537.36 (KHTML, like Gecko) Chrome/135.0.0.0 Mobile Safari/537.36","WebKit","Chrome","135.0.0.0","AndroidOS","10","https://hz8g1ckzuq.cognition.run/","en-US,en;q=0.9","eku2ddhg7b8ovwc","41","[""White""]","No","Female","1956398.2999999523","5451","","","{""product_choice"":""A""}","choice","cdt","repulsion_2","2","televisions","null","null","null","null","null","null","2","30","40","20","100","90","100","Screen size","Average lifespan","",""
"","","","","","choice_trial_setup","html-keyboard-response","150","1839319","0.0-5.0-0.33","81","1","2025-04-11 14:36:09","bb671e3ae32f654b8954ea4c4635f915","","Mozilla/5.0 (Linux; Android 10; K) AppleWebKit/537.36 (KHTML, like Gecko) Chrome/135.0.0.0 Mobile Safari/537.36","WebKit","Chrome","135.0.0.0","AndroidOS","10","https://hz8g1ckzuq.cognition.run/","en-US,en;q=0.9","eku2ddhg7b8ovwc","41","[""White""]","No","Female","1956398.2999999523","null","","<p></p>","null","choice","bww","catch","null","washing machines","50","60","35","20","20","5","2","","","","","","","","","",""
"","","","","","choice_trial","survey-html-form","151","1851560","0.0-5.0-1.33","81","1","2025-04-11 14:36:09","bb671e3ae32f654b8954ea4c4635f915","","Mozilla/5.0 (Linux; Android 10; K) AppleWebKit/537.36 (KHTML, like Gecko) Chrome/135.0.0.0 Mobile Safari/537.36","WebKit","Chrome","135.0.0.0","AndroidOS","10","https://hz8g1ckzuq.cognition.run/","en-US,en;q=0.9","eku2ddhg7b8ovwc","41","[""White""]","No","Female","1956398.2999999523","12213","","","{""product_choice"":""A""}","choice","bww","catch","null","washing machines","50","60","35","20","20","5","2","null","null","null","null","null","null","Average lifespan","Energy savings","",""
"","","","","","choice_trial_setup","html-keyboard-response","152","1851867","0.0-5.0-0.34","81","1","2025-04-11 14:36:09","bb671e3ae32f654b8954ea4c4635f915","","Mozilla/5.0 (Linux; Android 10; K) AppleWebKit/537.36 (KHTML, like Gecko) Chrome/135.0.0.0 Mobile Safari/537.36","WebKit","Chrome","135.0.0.0","AndroidOS","10","https://hz8g1ckzuq.cognition.run/","en-US,en;q=0.9","eku2ddhg7b8ovwc","41","[""White""]","No","Female","1956398.2999999523","null","","<p></p>","null","choice","tcd","attraction_1","1","laptops","null","null","null","null","null","null","1","","","","","","","","","",""
"","","","","","choice_trial","survey-html-form","153","1859507","0.0-5.0-1.34","81","1","2025-04-11 14:36:09","bb671e3ae32f654b8954ea4c4635f915","","Mozilla/5.0 (Linux; Android 10; K) AppleWebKit/537.36 (KHTML, like Gecko) Chrome/135.0.0.0 Mobile Safari/537.36","WebKit","Chrome","135.0.0.0","AndroidOS","10","https://hz8g1ckzuq.cognition.run/","en-US,en;q=0.9","eku2ddhg7b8ovwc","41","[""White""]","No","Female","1956398.2999999523","7624","","","{""product_choice"":""B""}","choice","tcd","attraction_1","1","laptops","null","null","null","null","null","null","1","60","50","60","50","60","45","Processing speed","Memory (RAM)","",""
"","","","","","choice_trial_setup","html-keyboard-response","154","1859814","0.0-5.0-0.35","81","1","2025-04-11 14:36:09","bb671e3ae32f654b8954ea4c4635f915","","Mozilla/5.0 (Linux; Android 10; K) AppleWebKit/537.36 (KHTML, like Gecko) Chrome/135.0.0.0 Mobile Safari/537.36","WebKit","Chrome","135.0.0.0","AndroidOS","10","https://hz8g1ckzuq.cognition.run/","en-US,en;q=0.9","eku2ddhg7b8ovwc","41","[""White""]","No","Female","1956398.2999999523","null","","<p></p>","null","choice","tcd","repulsion_2","1","televisions","null","null","null","null","null","null","1","","","","","","","","","",""
"","","","","","choice_trial","survey-html-form","155","1866558","0.0-5.0-1.35","81","1","2025-04-11 14:36:09","bb671e3ae32f654b8954ea4c4635f915","","Mozilla/5.0 (Linux; Android 10; K) AppleWebKit/537.36 (KHTML, like Gecko) Chrome/135.0.0.0 Mobile Safari/537.36","WebKit","Chrome","135.0.0.0","AndroidOS","10","https://hz8g1ckzuq.cognition.run/","en-US,en;q=0.9","eku2ddhg7b8ovwc","41","[""White""]","No","Female","1956398.2999999523","6713","","","{""product_choice"":""B""}","choice","tcd","repulsion_2","1","televisions","null","null","null","null","null","null","1","100","90","100","30","40","20","Screen size","Average lifespan","",""
"","","","","","choice_trial_setup","html-keyboard-response","156","1866866","0.0-5.0-0.36","81","1","2025-04-11 14:36:09","bb671e3ae32f654b8954ea4c4635f915","","Mozilla/5.0 (Linux; Android 10; K) AppleWebKit/537.36 (KHTML, like Gecko) Chrome/135.0.0.0 Mobile Safari/537.36","WebKit","Chrome","135.0.0.0","AndroidOS","10","https://hz8g1ckzuq.cognition.run/","en-US,en;q=0.9","eku2ddhg7b8ovwc","41","[""White""]","No","Female","1956398.2999999523","null","","<p></p>","null","choice","dtc","attraction_2","2","microwave ovens","null","null","null","null","null","null","2","","","","","","","","","",""
"","","","","","choice_trial","survey-html-form","157","1878802","0.0-5.0-1.36","81","1","2025-04-11 14:36:09","bb671e3ae32f654b8954ea4c4635f915","","Mozilla/5.0 (Linux; Android 10; K) AppleWebKit/537.36 (KHTML, like Gecko) Chrome/135.0.0.0 Mobile Safari/537.36","WebKit","Chrome","135.0.0.0","AndroidOS","10","https://hz8g1ckzuq.cognition.run/","en-US,en;q=0.9","eku2ddhg7b8ovwc","41","[""White""]","No","Female","1956398.2999999523","11911","","","{""product_choice"":""B""}","choice","dtc","attraction_2","2","microwave ovens","null","null","null","null","null","null","2","50","60","40","60","50","60","Warranty","Cooking power","",""
