"success","timeout","failed_images","failed_audio","failed_video","screen_id","trial_type","trial_index","time_elapsed","internal_node_id","run_id","condition","recorded_at","source_code_version","ip","user_agent","device","browser","browser_version","platform","platform_version","referer","accept_language","ppt_id","age","race","ethnicity","gender","exp_duration","rt","view_history","stimulus","response","phase","order","effect","t_high","category","d1_best","d2_best","d1_worst1","d2_worst1","d1_worst2","d2_worst2","first_dim","d1_t","d1_c","d1_d","d2_t","d2_c","d2_d","d1_name","d2_name","strategy_response","question_order"
"true","false","[]","[]","[]","img preload","preload","0","219","0.0-0.0","82","1","2025-04-11 14:36:19","bb671e3ae32f654b8954ea4c4635f915","","Mozilla/5.0 (Macintosh; Intel Mac OS X 10_15_7) AppleWebKit/537.36 (KHTML, like Gecko) Chrome/116.0.0.0 Safari/537.36","Macintosh","Chrome","116.0.0.0","OS X","10_15_7","https://hz8g1ckzuq.cognition.run/","en-US,en;q=0.9","jwdhaj97wvrfnmb","24","[""Asian""]","No","Female","962011.0000000002","","","","","","","","","","","","","","","","","","","","","","","","","",""
"true","","","","","","fullscreen","1","6225","0.0-1.0","82","1","2025-04-11 14:36:19","bb671e3ae32f654b8954ea4c4635f915","","Mozilla/5.0 (Macintosh; Intel Mac OS X 10_15_7) AppleWebKit/537.36 (KHTML, like Gecko) Chrome/116.0.0.0 Safari/537.36","Macintosh","Chrome","116.0.0.0","OS X","10_15_7","https://hz8g1ckzuq.cognition.run/","en-US,en;q=0.9","jwdhaj97wvrfnmb","24","[""Asian""]","No","Female","962011.0000000002","4995","","","","","","","","","","","","","","","","","","","","","","","","",""
"","","","","","","instructions","2","55819","0.0-2.0","82","1","2025-04-11 14:36:19","bb671e3ae32f654b8954ea4c4635f915","","Mozilla/5.0 (Macintosh; Intel Mac OS X 10_15_7) AppleWebKit/537.36 (KHTML, like Gecko) Chrome/116.0.0.0 Safari/537.36","Macintosh","Chrome","116.0.0.0","OS X","10_15_7","https://hz8g1ckzuq.cognition.run/","en-US,en;q=0.9","jwdhaj97wvrfnmb","24","[""Asian""]","No","Female","962011.0000000002","49591","[{""page_index"":0,""viewing_time"":1402},{""page_index"":1,""viewing_time"":2882},{""page_index"":2,""viewing_time"":4127},{""page_index"":3,""viewing_time"":4517},{""page_index"":4,""viewing_time"":5437},{""page_index"":5,""viewing_time"":3747},{""page_index"":6,""viewing_time"":5785},{""page_index"":7,""viewing_time"":14643},{""page_index"":8,""viewing_time"":3480},{""page_index"":9,""viewing_time"":3570}]","","","","","","","","","","","","","","","","","","","","","","","",""
"","","","","","rating_trial_setup","html-keyboard-response","3","56132","0.0-3.0-0.0","82","1","2025-04-11 14:36:19","bb671e3ae32f654b8954ea4c4635f915","","Mozilla/5.0 (Macintosh; Intel Mac OS X 10_15_7) AppleWebKit/537.36 (KHTML, like Gecko) Chrome/116.0.0.0 Safari/537.36","Macintosh","Chrome","116.0.0.0","OS X","10_15_7","https://hz8g1ckzuq.cognition.run/","en-US,en;q=0.9","jwdhaj97wvrfnmb","24","[""Asian""]","No","Female","962011.0000000002","null","","<p></p>","null","rating","dtc","attraction_2","1","televisions","null","null","null","null","null","null","2","","","","","","","","","",""
"","","","","","rating_trial","survey-html-form","4","77779","0.0-3.0-1.0","82","1","2025-04-11 14:36:19","bb671e3ae32f654b8954ea4c4635f915","","Mozilla/5.0 (Macintosh; Intel Mac OS X 10_15_7) AppleWebKit/537.36 (KHTML, like Gecko) Chrome/116.0.0.0 Safari/537.36","Macintosh","Chrome","116.0.0.0","OS X","10_15_7","https://hz8g1ckzuq.cognition.run/","en-US,en;q=0.9","jwdhaj97wvrfnmb","24","[""Asian""]","No","Female","962011.0000000002","21643","","","{""price_1"":""260"",""price_2"":""275"",""price_3"":""300""}","rating","dtc","attraction_2","1","televisions","null","null","null","null","null","null","2","60","50","60","50","60","40","Screen size","Average lifespan","",""
"","","","","","rating_trial_setup","html-keyboard-response","5","78083","0.0-3.0-0.1","82","1","2025-04-11 14:36:19","bb671e3ae32f654b8954ea4c4635f915","","Mozilla/5.0 (Macintosh; Intel Mac OS X 10_15_7) AppleWebKit/537.36 (KHTML, like Gecko) Chrome/116.0.0.0 Safari/537.36","Macintosh","Chrome","116.0.0.0","OS X","10_15_7","https://hz8g1ckzuq.cognition.run/","en-US,en;q=0.9","jwdhaj97wvrfnmb","24","[""Asian""]","No","Female","962011.0000000002","null","","<p></p>","null","rating","bww","catch","null","televisions","70","80","40","30","30","35","1","","","","","","","","","",""
"","","","","","rating_trial","survey-html-form","6","98273","0.0-3.0-1.1","82","1","2025-04-11 14:36:19","bb671e3ae32f654b8954ea4c4635f915","","Mozilla/5.0 (Macintosh; Intel Mac OS X 10_15_7) AppleWebKit/537.36 (KHTML, like Gecko) Chrome/116.0.0.0 Safari/537.36","Macintosh","Chrome","116.0.0.0","OS X","10_15_7","https://hz8g1ckzuq.cognition.run/","en-US,en;q=0.9","jwdhaj97wvrfnmb","24","[""Asian""]","No","Female","962011.0000000002","20185","","","{""price_1"":""500"",""price_2"":""200"",""price_3"":""190""}","rating","bww","catch","null","televisions","70","80","40","30","30","35","1","null","null","null","null","null","null","Screen size","Average lifespan","",""
"","","","","","rating_trial_setup","html-keyboard-response","7","98577","0.0-3.0-0.2","82","1","2025-04-11 14:36:19","bb671e3ae32f654b8954ea4c4635f915","","Mozilla/5.0 (Macintosh; Intel Mac OS X 10_15_7) AppleWebKit/537.36 (KHTML, like Gecko) Chrome/116.0.0.0 Safari/537.36","Macintosh","Chrome","116.0.0.0","OS X","10_15_7","https://hz8g1ckzuq.cognition.run/","en-US,en;q=0.9","jwdhaj97wvrfnmb","24","[""Asian""]","No","Female","962011.0000000002","null","","<p></p>","null","rating","cdt","attraction_2","2","televisions","null","null","null","null","null","null","2","","","","","","","","","",""
"","","","","","rating_trial","survey-html-form","8","117705","0.0-3.0-1.2","82","1","2025-04-11 14:36:19","bb671e3ae32f654b8954ea4c4635f915","","Mozilla/5.0 (Macintosh; Intel Mac OS X 10_15_7) AppleWebKit/537.36 (KHTML, like Gecko) Chrome/116.0.0.0 Safari/537.36","Macintosh","Chrome","116.0.0.0","OS X","10_15_7","https://hz8g1ckzuq.cognition.run/","en-US,en;q=0.9","jwdhaj97wvrfnmb","24","[""Asian""]","No","Female","962011.0000000002","19126","","","{""price_1"":""275"",""price_2"":""250"",""price_3"":""275""}","rating","cdt","attraction_2","2","televisions","null","null","null","null","null","null","2","50","60","40","60","50","60","Screen size","Average lifespan","",""
"","","","","","rating_trial_setup","html-keyboard-response","9","118015","0.0-3.0-0.3","82","1","2025-04-11 14:36:19","bb671e3ae32f654b8954ea4c4635f915","","Mozilla/5.0 (Macintosh; Intel Mac OS X 10_15_7) AppleWebKit/537.36 (KHTML, like Gecko) Chrome/116.0.0.0 Safari/537.36","Macintosh","Chrome","116.0.0.0","OS X","10_15_7","https://hz8g1ckzuq.cognition.run/","en-US,en;q=0.9","jwdhaj97wvrfnmb","24","[""Asian""]","No","Female","962011.0000000002","null","","<p></p>","null","rating","dct","repulsion_1","2","laptops","null","null","null","null","null","null","2","","","","","","","","","",""
"","","","","","rating_trial","survey-html-form","10","144439","0.0-3.0-1.3","82","1","2025-04-11 14:36:19","bb671e3ae32f654b8954ea4c4635f915","","Mozilla/5.0 (Macintosh; Intel Mac OS X 10_15_7) AppleWebKit/537.36 (KHTML, like Gecko) Chrome/116.0.0.0 Safari/537.36","Macintosh","Chrome","116.0.0.0","OS X","10_15_7","https://hz8g1ckzuq.cognition.run/","en-US,en;q=0.9","jwdhaj97wvrfnmb","24","[""Asian""]","No","Female","962011.0000000002","26421","","","{""price_1"":""325"",""price_2"":""500"",""price_3"":""350""}","rating","dct","repulsion_1","2","laptops","null","null","null","null","null","null","2","30","40","25","100","90","100","Processing speed","Memory (RAM)","",""
"","","","","","rating_trial_setup","html-keyboard-response","11","144754","0.0-3.0-0.4","82","1","2025-04-11 14:36:19","bb671e3ae32f654b8954ea4c4635f915","","Mozilla/5.0 (Macintosh; Intel Mac OS X 10_15_7) AppleWebKit/537.36 (KHTML, like Gecko) Chrome/116.0.0.0 Safari/537.36","Macintosh","Chrome","116.0.0.0","OS X","10_15_7","https://hz8g1ckzuq.cognition.run/","en-US,en;q=0.9","jwdhaj97wvrfnmb","24","[""Asian""]","No","Female","962011.0000000002","null","","<p></p>","null","rating","cdt","attraction_1","2","laptops","null","null","null","null","null","null","1","","","","","","","","","",""
"","","","","","rating_trial","survey-html-form","12","155654","0.0-3.0-1.4","82","1","2025-04-11 14:36:19","bb671e3ae32f654b8954ea4c4635f915","","Mozilla/5.0 (Macintosh; Intel Mac OS X 10_15_7) AppleWebKit/537.36 (KHTML, like Gecko) Chrome/116.0.0.0 Safari/537.36","Macintosh","Chrome","116.0.0.0","OS X","10_15_7","https://hz8g1ckzuq.cognition.run/","en-US,en;q=0.9","jwdhaj97wvrfnmb","24","[""Asian""]","No","Female","962011.0000000002","10898","","","{""price_1"":""475"",""price_2"":""450"",""price_3"":""475""}","rating","cdt","attraction_1","2","laptops","null","null","null","null","null","null","1","50","60","45","60","50","60","Processing speed","Memory (RAM)","",""
"","","","","","rating_trial_setup","html-keyboard-response","13","155969","0.0-3.0-0.5","82","1","2025-04-11 14:36:19","bb671e3ae32f654b8954ea4c4635f915","","Mozilla/5.0 (Macintosh; Intel Mac OS X 10_15_7) AppleWebKit/537.36 (KHTML, like Gecko) Chrome/116.0.0.0 Safari/537.36","Macintosh","Chrome","116.0.0.0","OS X","10_15_7","https://hz8g1ckzuq.cognition.run/","en-US,en;q=0.9","jwdhaj97wvrfnmb","24","[""Asian""]","No","Female","962011.0000000002","null","","<p></p>","null","rating","dtc","attraction_2","2","laptops","null","null","null","null","null","null","1","","","","","","","","","",""
"","","","","","rating_trial","survey-html-form","14","166949","0.0-3.0-1.5","82","1","2025-04-11 14:36:19","bb671e3ae32f654b8954ea4c4635f915","","Mozilla/5.0 (Macintosh; Intel Mac OS X 10_15_7) AppleWebKit/537.36 (KHTML, like Gecko) Chrome/116.0.0.0 Safari/537.36","Macintosh","Chrome","116.0.0.0","OS X","10_15_7","https://hz8g1ckzuq.cognition.run/","en-US,en;q=0.9","jwdhaj97wvrfnmb","24","[""Asian""]","No","Female","962011.0000000002","10977","","","{""price_1"":""450"",""price_2"":""475"",""price_3"":""475""}","rating","dtc","attraction_2","2","laptops","null","null","null","null","null","null","1","50","60","40","60","50","60","Processing speed","Memory (RAM)","",""
"","","","","","rating_trial_setup","html-keyboard-response","15","167257","0.0-3.0-0.6","82","1","2025-04-11 14:36:19","bb671e3ae32f654b8954ea4c4635f915","","Mozilla/5.0 (Macintosh; Intel Mac OS X 10_15_7) AppleWebKit/537.36 (KHTML, like Gecko) Chrome/116.0.0.0 Safari/537.36","Macintosh","Chrome","116.0.0.0","OS X","10_15_7","https://hz8g1ckzuq.cognition.run/","en-US,en;q=0.9","jwdhaj97wvrfnmb","24","[""Asian""]","No","Female","962011.0000000002","null","","<p></p>","null","rating","cdt","repulsion_2","1","laptops","null","null","null","null","null","null","1","","","","","","","","","",""
"","","","","","rating_trial","survey-html-form","16","184887","0.0-3.0-1.6","82","1","2025-04-11 14:36:19","bb671e3ae32f654b8954ea4c4635f915","","Mozilla/5.0 (Macintosh; Intel Mac OS X 10_15_7) AppleWebKit/537.36 (KHTML, like Gecko) Chrome/116.0.0.0 Safari/537.36","Macintosh","Chrome","116.0.0.0","OS X","10_15_7","https://hz8g1ckzuq.cognition.run/","en-US,en;q=0.9","jwdhaj97wvrfnmb","24","[""Asian""]","No","Female","962011.0000000002","17626","","","{""price_1"":""500"",""price_2"":""450"",""price_3"":""460""}","rating","cdt","repulsion_2","1","laptops","null","null","null","null","null","null","1","100","90","100","30","40","20","Processing speed","Memory (RAM)","",""
"","","","","","rating_trial_setup","html-keyboard-response","17","185204","0.0-3.0-0.7","82","1","2025-04-11 14:36:19","bb671e3ae32f654b8954ea4c4635f915","","Mozilla/5.0 (Macintosh; Intel Mac OS X 10_15_7) AppleWebKit/537.36 (KHTML, like Gecko) Chrome/116.0.0.0 Safari/537.36","Macintosh","Chrome","116.0.0.0","OS X","10_15_7","https://hz8g1ckzuq.cognition.run/","en-US,en;q=0.9","jwdhaj97wvrfnmb","24","[""Asian""]","No","Female","962011.0000000002","null","","<p></p>","null","rating","bww","catch","null","microwave ovens","60","95","40","20","50","5","2","","","","","","","","","",""
"","","","","","rating_trial","survey-html-form","18","206694","0.0-3.0-1.7","82","1","2025-04-11 14:36:19","bb671e3ae32f654b8954ea4c4635f915","","Mozilla/5.0 (Macintosh; Intel Mac OS X 10_15_7) AppleWebKit/537.36 (KHTML, like Gecko) Chrome/116.0.0.0 Safari/537.36","Macintosh","Chrome","116.0.0.0","OS X","10_15_7","https://hz8g1ckzuq.cognition.run/","en-US,en;q=0.9","jwdhaj97wvrfnmb","24","[""Asian""]","No","Female","962011.0000000002","21486","","","{""price_1"":""100"",""price_2"":""75"",""price_3"":""25""}","rating","bww","catch","null","microwave ovens","60","95","40","20","50","5","2","null","null","null","null","null","null","Warranty","Cooking power","",""
"","","","","","rating_trial_setup","html-keyboard-response","19","206999","0.0-3.0-0.8","82","1","2025-04-11 14:36:19","bb671e3ae32f654b8954ea4c4635f915","","Mozilla/5.0 (Macintosh; Intel Mac OS X 10_15_7) AppleWebKit/537.36 (KHTML, like Gecko) Chrome/116.0.0.0 Safari/537.36","Macintosh","Chrome","116.0.0.0","OS X","10_15_7","https://hz8g1ckzuq.cognition.run/","en-US,en;q=0.9","jwdhaj97wvrfnmb","24","[""Asian""]","No","Female","962011.0000000002","null","","<p></p>","null","rating","dct","attraction_1","1","microwave ovens","null","null","null","null","null","null","1","","","","","","","","","",""
"","","","","","rating_trial","survey-html-form","20","220157","0.0-3.0-1.8","82","1","2025-04-11 14:36:19","bb671e3ae32f654b8954ea4c4635f915","","Mozilla/5.0 (Macintosh; Intel Mac OS X 10_15_7) AppleWebKit/537.36 (KHTML, like Gecko) Chrome/116.0.0.0 Safari/537.36","Macintosh","Chrome","116.0.0.0","OS X","10_15_7","https://hz8g1ckzuq.cognition.run/","en-US,en;q=0.9","jwdhaj97wvrfnmb","24","[""Asian""]","No","Female","962011.0000000002","13154","","","{""price_1"":""75"",""price_2"":""80"",""price_3"":""80""}","rating","dct","attraction_1","1","microwave ovens","null","null","null","null","null","null","1","60","50","60","50","60","45","Warranty","Cooking power","",""
"","","","","","rating_trial_setup","html-keyboard-response","21","220466","0.0-3.0-0.9","82","1","2025-04-11 14:36:19","bb671e3ae32f654b8954ea4c4635f915","","Mozilla/5.0 (Macintosh; Intel Mac OS X 10_15_7) AppleWebKit/537.36 (KHTML, like Gecko) Chrome/116.0.0.0 Safari/537.36","Macintosh","Chrome","116.0.0.0","OS X","10_15_7","https://hz8g1ckzuq.cognition.run/","en-US,en;q=0.9","jwdhaj97wvrfnmb","24","[""Asian""]","No","Female","962011.0000000002","null","","<p></p>","null","rating","dtc","attraction_1","2","televisions","null","null","null","null","null","null","2","","","","","","","","","",""
"","","","","","rating_trial","survey-html-form","22","233062","0.0-3.0-1.9","82","1","2025-04-11 14:36:19","bb671e3ae32f654b8954ea4c4635f915","","Mozilla/5.0 (Macintosh; Intel Mac OS X 10_15_7) AppleWebKit/537.36 (KHTML, like Gecko) Chrome/116.0.0.0 Safari/537.36","Macintosh","Chrome","116.0.0.0","OS X","10_15_7","https://hz8g1ckzuq.cognition.run/","en-US,en;q=0.9","jwdhaj97wvrfnmb","24","[""Asian""]","No","Female","962011.0000000002","12592","","","{""price_1"":""450"",""price_2"":""475"",""price_3"":""475""}","rating","dtc","attraction_1","2","televisions","null","null","null","null","null","null","2","50","60","45","60","50","60","Screen size","Average lifespan","",""
"","","","","","rating_trial_setup","html-keyboard-response","23","233369","0.0-3.0-0.10","82","1","2025-04-11 14:36:19","bb671e3ae32f654b8954ea4c4635f915","","Mozilla/5.0 (Macintosh; Intel Mac OS X 10_15_7) AppleWebKit/537.36 (KHTML, like Gecko) Chrome/116.0.0.0 Safari/537.36","Macintosh","Chrome","116.0.0.0","OS X","10_15_7","https://hz8g1ckzuq.cognition.run/","en-US,en;q=0.9","jwdhaj97wvrfnmb","24","[""Asian""]","No","Female","962011.0000000002","null","","<p></p>","null","rating","tcd","attraction_2","1","laptops","null","null","null","null","null","null","2","","","","","","","","","",""
"","","","","","rating_trial","survey-html-form","24","246030","0.0-3.0-1.10","82","1","2025-04-11 14:36:19","bb671e3ae32f654b8954ea4c4635f915","","Mozilla/5.0 (Macintosh; Intel Mac OS X 10_15_7) AppleWebKit/537.36 (KHTML, like Gecko) Chrome/116.0.0.0 Safari/537.36","Macintosh","Chrome","116.0.0.0","OS X","10_15_7","https://hz8g1ckzuq.cognition.run/","en-US,en;q=0.9","jwdhaj97wvrfnmb","24","[""Asian""]","No","Female","962011.0000000002","12657","","","{""price_1"":""500"",""price_2"":""500"",""price_3"":""475""}","rating","tcd","attraction_2","1","laptops","null","null","null","null","null","null","2","60","50","60","50","60","40","Processing speed","Memory (RAM)","",""
"","","","","","rating_trial_setup","html-keyboard-response","25","246338","0.0-3.0-0.11","82","1","2025-04-11 14:36:19","bb671e3ae32f654b8954ea4c4635f915","","Mozilla/5.0 (Macintosh; Intel Mac OS X 10_15_7) AppleWebKit/537.36 (KHTML, like Gecko) Chrome/116.0.0.0 Safari/537.36","Macintosh","Chrome","116.0.0.0","OS X","10_15_7","https://hz8g1ckzuq.cognition.run/","en-US,en;q=0.9","jwdhaj97wvrfnmb","24","[""Asian""]","No","Female","962011.0000000002","null","","<p></p>","null","rating","tcd","repulsion_1","2","televisions","null","null","null","null","null","null","1","","","","","","","","","",""
"","","","","","rating_trial","survey-html-form","26","268280","0.0-3.0-1.11","82","1","2025-04-11 14:36:19","bb671e3ae32f654b8954ea4c4635f915","","Mozilla/5.0 (Macintosh; Intel Mac OS X 10_15_7) AppleWebKit/537.36 (KHTML, like Gecko) Chrome/116.0.0.0 Safari/537.36","Macintosh","Chrome","116.0.0.0","OS X","10_15_7","https://hz8g1ckzuq.cognition.run/","en-US,en;q=0.9","jwdhaj97wvrfnmb","24","[""Asian""]","No","Female","962011.0000000002","21937","","","{""price_1"":""300"",""price_2"":""350"",""price_3"":""275""}","rating","tcd","repulsion_1","2","televisions","null","null","null","null","null","null","1","30","40","25","100","90","100","Screen size","Average lifespan","",""
"","","","","","rating_trial_setup","html-keyboard-response","27","268586","0.0-3.0-0.12","82","1","2025-04-11 14:36:19","bb671e3ae32f654b8954ea4c4635f915","","Mozilla/5.0 (Macintosh; Intel Mac OS X 10_15_7) AppleWebKit/537.36 (KHTML, like Gecko) Chrome/116.0.0.0 Safari/537.36","Macintosh","Chrome","116.0.0.0","OS X","10_15_7","https://hz8g1ckzuq.cognition.run/","en-US,en;q=0.9","jwdhaj97wvrfnmb","24","[""Asian""]","No","Female","962011.0000000002","null","","<p></p>","null","rating","tdc","attraction_1","2","microwave ovens","null","null","null","null","null","null","1","","","","","","","","","",""
"","","","","","rating_trial","survey-html-form","28","281962","0.0-3.0-1.12","82","1","2025-04-11 14:36:19","bb671e3ae32f654b8954ea4c4635f915","","Mozilla/5.0 (Macintosh; Intel Mac OS X 10_15_7) AppleWebKit/537.36 (KHTML, like Gecko) Chrome/116.0.0.0 Safari/537.36","Macintosh","Chrome","116.0.0.0","OS X","10_15_7","https://hz8g1ckzuq.cognition.run/","en-US,en;q=0.9","jwdhaj97wvrfnmb","24","[""Asian""]","No","Female","962011.0000000002","13372","","","{""price_1"":""80"",""price_2"":""75"",""price_3"":""80""}","rating","tdc","attraction_1","2","microwave ovens","null","null","null","null","null","null","1","50","60","45","60","50","60","Warranty","Cooking power","",""
"","","","","","rating_trial_setup","html-keyboard-response","29","282274","0.0-3.0-0.13","82","1","2025-04-11 14:36:19","bb671e3ae32f654b8954ea4c4635f915","","Mozilla/5.0 (Macintosh; Intel Mac OS X 10_15_7) AppleWebKit/537.36 (KHTML, like Gecko) Chrome/116.0.0.0 Safari/537.36","Macintosh","Chrome","116.0.0.0","OS X","10_15_7","https://hz8g1ckzuq.cognition.run/","en-US,en;q=0.9","jwdhaj97wvrfnmb","24","[""Asian""]","No","Female","962011.0000000002","null","","<p></p>","null","rating","bww","catch","null","washing machines","65","90","25","35","50","45","2","","","","","","","","","",""
"","","","","","rating_trial","survey-html-form","30","308800","0.0-3.0-1.13","82","1","2025-04-11 14:36:19","bb671e3ae32f654b8954ea4c4635f915","","Mozilla/5.0 (Macintosh; Intel Mac OS X 10_15_7) AppleWebKit/537.36 (KHTML, like Gecko) Chrome/116.0.0.0 Safari/537.36","Macintosh","Chrome","116.0.0.0","OS X","10_15_7","https://hz8g1ckzuq.cognition.run/","en-US,en;q=0.9","jwdhaj97wvrfnmb","24","[""Asian""]","No","Female","962011.0000000002","26521","","","{""price_1"":""500"",""price_2"":""250"",""price_3"":""475""}","rating","bww","catch","null","washing machines","65","90","25","35","50","45","2","null","null","null","null","null","null","Average lifespan","Energy savings","",""
"","","","","","rating_trial_setup","html-keyboard-response","31","309109","0.0-3.0-0.14","82","1","2025-04-11 14:36:19","bb671e3ae32f654b8954ea4c4635f915","","Mozilla/5.0 (Macintosh; Intel Mac OS X 10_15_7) AppleWebKit/537.36 (KHTML, like Gecko) Chrome/116.0.0.0 Safari/537.36","Macintosh","Chrome","116.0.0.0","OS X","10_15_7","https://hz8g1ckzuq.cognition.run/","en-US,en;q=0.9","jwdhaj97wvrfnmb","24","[""Asian""]","No","Female","962011.0000000002","null","","<p></p>","null","rating","dtc","attraction_1","2","washing machines","null","null","null","null","null","null","1","","","","","","","","","",""
"","","","","","rating_trial","survey-html-form","32","321886","0.0-3.0-1.14","82","1","2025-04-11 14:36:19","bb671e3ae32f654b8954ea4c4635f915","","Mozilla/5.0 (Macintosh; Intel Mac OS X 10_15_7) AppleWebKit/537.36 (KHTML, like Gecko) Chrome/116.0.0.0 Safari/537.36","Macintosh","Chrome","116.0.0.0","OS X","10_15_7","https://hz8g1ckzuq.cognition.run/","en-US,en;q=0.9","jwdhaj97wvrfnmb","24","[""Asian""]","No","Female","962011.0000000002","12772","","","{""price_1"":""475"",""price_2"":""500"",""price_3"":""500""}","rating","dtc","attraction_1","2","washing machines","null","null","null","null","null","null","1","50","60","45","60","50","60","Average lifespan","Energy savings","",""
"","","","","","rating_trial_setup","html-keyboard-response","33","322196","0.0-3.0-0.15","82","1","2025-04-11 14:36:19","bb671e3ae32f654b8954ea4c4635f915","","Mozilla/5.0 (Macintosh; Intel Mac OS X 10_15_7) AppleWebKit/537.36 (KHTML, like Gecko) Chrome/116.0.0.0 Safari/537.36","Macintosh","Chrome","116.0.0.0","OS X","10_15_7","https://hz8g1ckzuq.cognition.run/","en-US,en;q=0.9","jwdhaj97wvrfnmb","24","[""Asian""]","No","Female","962011.0000000002","null","","<p></p>","null","rating","tdc","attraction_2","1","microwave ovens","null","null","null","null","null","null","1","","","","","","","","","",""
"","","","","","rating_trial","survey-html-form","34","331575","0.0-3.0-1.15","82","1","2025-04-11 14:36:19","bb671e3ae32f654b8954ea4c4635f915","","Mozilla/5.0 (Macintosh; Intel Mac OS X 10_15_7) AppleWebKit/537.36 (KHTML, like Gecko) Chrome/116.0.0.0 Safari/537.36","Macintosh","Chrome","116.0.0.0","OS X","10_15_7","https://hz8g1ckzuq.cognition.run/","en-US,en;q=0.9","jwdhaj97wvrfnmb","24","[""Asian""]","No","Female","962011.0000000002","9373","","","{""price_1"":""100"",""price_2"":""75"",""price_3"":""100""}","rating","tdc","attraction_2","1","microwave ovens","null","null","null","null","null","null","1","60","50","60","50","60","40","Warranty","Cooking power","",""
"","","","","","rating_trial_setup","html-keyboard-response","35","331883","0.0-3.0-0.16","82","1","2025-04-11 14:36:19","bb671e3ae32f654b8954ea4c4635f915","","Mozilla/5.0 (Macintosh; Intel Mac OS X 10_15_7) AppleWebKit/537.36 (KHTML, like Gecko) Chrome/116.0.0.0 Safari/537.36","Macintosh","Chrome","116.0.0.0","OS X","10_15_7","https://hz8g1ckzuq.cognition.run/","en-US,en;q=0.9","jwdhaj97wvrfnmb","24","[""Asian""]","No","Female","962011.0000000002","null","","<p></p>","null","rating","dtc","repulsion_1","1","washing machines","null","null","null","null","null","null","1","","","","","","","","","",""
"","","","","","rating_trial","survey-html-form","36","347223","0.0-3.0-1.16","82","1","2025-04-11 14:36:19","bb671e3ae32f654b8954ea4c4635f915","","Mozilla/5.0 (Macintosh; Intel Mac OS X 10_15_7) AppleWebKit/537.36 (KHTML, like Gecko) Chrome/116.0.0.0 Safari/537.36","Macintosh","Chrome","116.0.0.0","OS X","10_15_7","https://hz8g1ckzuq.cognition.run/","en-US,en;q=0.9","jwdhaj97wvrfnmb","24","[""Asian""]","No","Female","962011.0000000002","15334","","","{""price_1"":""300"",""price_2"":""300"",""price_3"":""400""}","rating","dtc","repulsion_1","1","washing machines","null","null","null","null","null","null","1","100","90","100","30","40","25","Average lifespan","Energy savings","",""
"","","","","","rating_trial_setup","html-keyboard-response","37","347534","0.0-3.0-0.17","82","1","2025-04-11 14:36:19","bb671e3ae32f654b8954ea4c4635f915","","Mozilla/5.0 (Macintosh; Intel Mac OS X 10_15_7) AppleWebKit/537.36 (KHTML, like Gecko) Chrome/116.0.0.0 Safari/537.36","Macintosh","Chrome","116.0.0.0","OS X","10_15_7","https://hz8g1ckzuq.cognition.run/","en-US,en;q=0.9","jwdhaj97wvrfnmb","24","[""Asian""]","No","Female","962011.0000000002","null","","<p></p>","null","rating","dct","repulsion_2","1","washing machines","null","null","null","null","null","null","2","","","","","","","","","",""
"","","","","","rating_trial","survey-html-form","38","358175","0.0-3.0-1.17","82","1","2025-04-11 14:36:19","bb671e3ae32f654b8954ea4c4635f915","","Mozilla/5.0 (Macintosh; Intel Mac OS X 10_15_7) AppleWebKit/537.36 (KHTML, like Gecko) Chrome/116.0.0.0 Safari/537.36","Macintosh","Chrome","116.0.0.0","OS X","10_15_7","https://hz8g1ckzuq.cognition.run/","en-US,en;q=0.9","jwdhaj97wvrfnmb","24","[""Asian""]","No","Female","962011.0000000002","10636","","","{""price_1"":""300"",""price_2"":""400"",""price_3"":""325""}","rating","dct","repulsion_2","1","washing machines","null","null","null","null","null","null","2","100","90","100","30","40","20","Average lifespan","Energy savings","",""
"","","","","","rating_trial_setup","html-keyboard-response","39","358488","0.0-3.0-0.18","82","1","2025-04-11 14:36:19","bb671e3ae32f654b8954ea4c4635f915","","Mozilla/5.0 (Macintosh; Intel Mac OS X 10_15_7) AppleWebKit/537.36 (KHTML, like Gecko) Chrome/116.0.0.0 Safari/537.36","Macintosh","Chrome","116.0.0.0","OS X","10_15_7","https://hz8g1ckzuq.cognition.run/","en-US,en;q=0.9","jwdhaj97wvrfnmb","24","[""Asian""]","No","Female","962011.0000000002","null","","<p></p>","null","rating","tdc","repulsion_1","2","washing machines","null","null","null","null","null","null","2","","","","","","","","","",""
"","","","","","rating_trial","survey-html-form","40","370607","0.0-3.0-1.18","82","1","2025-04-11 14:36:19","bb671e3ae32f654b8954ea4c4635f915","","Mozilla/5.0 (Macintosh; Intel Mac OS X 10_15_7) AppleWebKit/537.36 (KHTML, like Gecko) Chrome/116.0.0.0 Safari/537.36","Macintosh","Chrome","116.0.0.0","OS X","10_15_7","https://hz8g1ckzuq.cognition.run/","en-US,en;q=0.9","jwdhaj97wvrfnmb","24","[""Asian""]","No","Female","962011.0000000002","12113","","","{""price_1"":""300"",""price_2"":""275"",""price_3"":""400""}","rating","tdc","repulsion_1","2","washing machines","null","null","null","null","null","null","2","30","40","25","100","90","100","Average lifespan","Energy savings","",""
"","","","","","rating_trial_setup","html-keyboard-response","41","370911","0.0-3.0-0.19","82","1","2025-04-11 14:36:19","bb671e3ae32f654b8954ea4c4635f915","","Mozilla/5.0 (Macintosh; Intel Mac OS X 10_15_7) AppleWebKit/537.36 (KHTML, like Gecko) Chrome/116.0.0.0 Safari/537.36","Macintosh","Chrome","116.0.0.0","OS X","10_15_7","https://hz8g1ckzuq.cognition.run/","en-US,en;q=0.9","jwdhaj97wvrfnmb","24","[""Asian""]","No","Female","962011.0000000002","null","","<p></p>","null","rating","wwb","catch","null","washing machines","65","65","25","40","10","25","2","","","","","","","","","",""
"","","","","","rating_trial","survey-html-form","42","388805","0.0-3.0-1.19","82","1","2025-04-11 14:36:19","bb671e3ae32f654b8954ea4c4635f915","","Mozilla/5.0 (Macintosh; Intel Mac OS X 10_15_7) AppleWebKit/537.36 (KHTML, like Gecko) Chrome/116.0.0.0 Safari/537.36","Macintosh","Chrome","116.0.0.0","OS X","10_15_7","https://hz8g1ckzuq.cognition.run/","en-US,en;q=0.9","jwdhaj97wvrfnmb","24","[""Asian""]","No","Female","962011.0000000002","17886","","","{""price_1"":""275"",""price_2"":""200"",""price_3"":""500""}","rating","wwb","catch","null","washing machines","65","65","25","40","10","25","2","null","null","null","null","null","null","Average lifespan","Energy savings","",""
"","","","","","rating_trial_setup","html-keyboard-response","43","389116","0.0-3.0-0.20","82","1","2025-04-11 14:36:19","bb671e3ae32f654b8954ea4c4635f915","","Mozilla/5.0 (Macintosh; Intel Mac OS X 10_15_7) AppleWebKit/537.36 (KHTML, like Gecko) Chrome/116.0.0.0 Safari/537.36","Macintosh","Chrome","116.0.0.0","OS X","10_15_7","https://hz8g1ckzuq.cognition.run/","en-US,en;q=0.9","jwdhaj97wvrfnmb","24","[""Asian""]","No","Female","962011.0000000002","null","","<p></p>","null","rating","dtc","repulsion_2","1","microwave ovens","null","null","null","null","null","null","2","","","","","","","","","",""
"","","","","","rating_trial","survey-html-form","44","398364","0.0-3.0-1.20","82","1","2025-04-11 14:36:19","bb671e3ae32f654b8954ea4c4635f915","","Mozilla/5.0 (Macintosh; Intel Mac OS X 10_15_7) AppleWebKit/537.36 (KHTML, like Gecko) Chrome/116.0.0.0 Safari/537.36","Macintosh","Chrome","116.0.0.0","OS X","10_15_7","https://hz8g1ckzuq.cognition.run/","en-US,en;q=0.9","jwdhaj97wvrfnmb","24","[""Asian""]","No","Female","962011.0000000002","9243","","","{""price_1"":""70"",""price_2"":""75"",""price_3"":""100""}","rating","dtc","repulsion_2","1","microwave ovens","null","null","null","null","null","null","2","100","90","100","30","40","20","Warranty","Cooking power","",""
"","","","","","rating_trial_setup","html-keyboard-response","45","398677","0.0-3.0-0.21","82","1","2025-04-11 14:36:19","bb671e3ae32f654b8954ea4c4635f915","","Mozilla/5.0 (Macintosh; Intel Mac OS X 10_15_7) AppleWebKit/537.36 (KHTML, like Gecko) Chrome/116.0.0.0 Safari/537.36","Macintosh","Chrome","116.0.0.0","OS X","10_15_7","https://hz8g1ckzuq.cognition.run/","en-US,en;q=0.9","jwdhaj97wvrfnmb","24","[""Asian""]","No","Female","962011.0000000002","null","","<p></p>","null","rating","dtc","attraction_2","2","microwave ovens","null","null","null","null","null","null","1","","","","","","","","","",""
"","","","","","rating_trial","survey-html-form","46","409170","0.0-3.0-1.21","82","1","2025-04-11 14:36:19","bb671e3ae32f654b8954ea4c4635f915","","Mozilla/5.0 (Macintosh; Intel Mac OS X 10_15_7) AppleWebKit/537.36 (KHTML, like Gecko) Chrome/116.0.0.0 Safari/537.36","Macintosh","Chrome","116.0.0.0","OS X","10_15_7","https://hz8g1ckzuq.cognition.run/","en-US,en;q=0.9","jwdhaj97wvrfnmb","24","[""Asian""]","No","Female","962011.0000000002","10484","","","{""price_1"":""50"",""price_2"":""75"",""price_3"":""75""}","rating","dtc","attraction_2","2","microwave ovens","null","null","null","null","null","null","1","50","60","40","60","50","60","Warranty","Cooking power","",""
"","","","","","rating_trial_setup","html-keyboard-response","47","409481","0.0-3.0-0.22","82","1","2025-04-11 14:36:19","bb671e3ae32f654b8954ea4c4635f915","","Mozilla/5.0 (Macintosh; Intel Mac OS X 10_15_7) AppleWebKit/537.36 (KHTML, like Gecko) Chrome/116.0.0.0 Safari/537.36","Macintosh","Chrome","116.0.0.0","OS X","10_15_7","https://hz8g1ckzuq.cognition.run/","en-US,en;q=0.9","jwdhaj97wvrfnmb","24","[""Asian""]","No","Female","962011.0000000002","null","","<p></p>","null","rating","ctd","repulsion_2","2","washing machines","null","null","null","null","null","null","2","","","","","","","","","",""
"","","","","","rating_trial","survey-html-form","48","425216","0.0-3.0-1.22","82","1","2025-04-11 14:36:19","bb671e3ae32f654b8954ea4c4635f915","","Mozilla/5.0 (Macintosh; Intel Mac OS X 10_15_7) AppleWebKit/537.36 (KHTML, like Gecko) Chrome/116.0.0.0 Safari/537.36","Macintosh","Chrome","116.0.0.0","OS X","10_15_7","https://hz8g1ckzuq.cognition.run/","en-US,en;q=0.9","jwdhaj97wvrfnmb","24","[""Asian""]","No","Female","962011.0000000002","15729","","","{""price_1"":""475"",""price_2"":""350"",""price_3"":""325""}","rating","ctd","repulsion_2","2","washing machines","null","null","null","null","null","null","2","30","40","20","100","90","100","Average lifespan","Energy savings","",""
"","","","","","rating_trial_setup","html-keyboard-response","49","425526","0.0-3.0-0.23","82","1","2025-04-11 14:36:19","bb671e3ae32f654b8954ea4c4635f915","","Mozilla/5.0 (Macintosh; Intel Mac OS X 10_15_7) AppleWebKit/537.36 (KHTML, like Gecko) Chrome/116.0.0.0 Safari/537.36","Macintosh","Chrome","116.0.0.0","OS X","10_15_7","https://hz8g1ckzuq.cognition.run/","en-US,en;q=0.9","jwdhaj97wvrfnmb","24","[""Asian""]","No","Female","962011.0000000002","null","","<p></p>","null","rating","ctd","repulsion_2","2","microwave ovens","null","null","null","null","null","null","2","","","","","","","","","",""
"","","","","","rating_trial","survey-html-form","50","437090","0.0-3.0-1.23","82","1","2025-04-11 14:36:19","bb671e3ae32f654b8954ea4c4635f915","","Mozilla/5.0 (Macintosh; Intel Mac OS X 10_15_7) AppleWebKit/537.36 (KHTML, like Gecko) Chrome/116.0.0.0 Safari/537.36","Macintosh","Chrome","116.0.0.0","OS X","10_15_7","https://hz8g1ckzuq.cognition.run/","en-US,en;q=0.9","jwdhaj97wvrfnmb","24","[""Asian""]","No","Female","962011.0000000002","11557","","","{""price_1"":""75"",""price_2"":""50"",""price_3"":""45""}","rating","ctd","repulsion_2","2","microwave ovens","null","null","null","null","null","null","2","30","40","20","100","90","100","Warranty","Cooking power","",""
"","","","","","rating_trial_setup","html-keyboard-response","51","437398","0.0-3.0-0.24","82","1","2025-04-11 14:36:19","bb671e3ae32f654b8954ea4c4635f915","","Mozilla/5.0 (Macintosh; Intel Mac OS X 10_15_7) AppleWebKit/537.36 (KHTML, like Gecko) Chrome/116.0.0.0 Safari/537.36","Macintosh","Chrome","116.0.0.0","OS X","10_15_7","https://hz8g1ckzuq.cognition.run/","en-US,en;q=0.9","jwdhaj97wvrfnmb","24","[""Asian""]","No","Female","962011.0000000002","null","","<p></p>","null","rating","dtc","repulsion_2","2","laptops","null","null","null","null","null","null","1","","","","","","","","","",""
"","","","","","rating_trial","survey-html-form","52","456843","0.0-3.0-1.24","82","1","2025-04-11 14:36:19","bb671e3ae32f654b8954ea4c4635f915","","Mozilla/5.0 (Macintosh; Intel Mac OS X 10_15_7) AppleWebKit/537.36 (KHTML, like Gecko) Chrome/116.0.0.0 Safari/537.36","Macintosh","Chrome","116.0.0.0","OS X","10_15_7","https://hz8g1ckzuq.cognition.run/","en-US,en;q=0.9","jwdhaj97wvrfnmb","24","[""Asian""]","No","Female","962011.0000000002","19439","","","{""price_1"":""300"",""price_2"":""275"",""price_3"":""350""}","rating","dtc","repulsion_2","2","laptops","null","null","null","null","null","null","1","30","40","20","100","90","100","Processing speed","Memory (RAM)","",""
"","","","","","rating_trial_setup","html-keyboard-response","53","457152","0.0-3.0-0.25","82","1","2025-04-11 14:36:19","bb671e3ae32f654b8954ea4c4635f915","","Mozilla/5.0 (Macintosh; Intel Mac OS X 10_15_7) AppleWebKit/537.36 (KHTML, like Gecko) Chrome/116.0.0.0 Safari/537.36","Macintosh","Chrome","116.0.0.0","OS X","10_15_7","https://hz8g1ckzuq.cognition.run/","en-US,en;q=0.9","jwdhaj97wvrfnmb","24","[""Asian""]","No","Female","962011.0000000002","null","","<p></p>","null","rating","dct","attraction_1","1","washing machines","null","null","null","null","null","null","1","","","","","","","","","",""
"","","","","","rating_trial","survey-html-form","54","465381","0.0-3.0-1.25","82","1","2025-04-11 14:36:19","bb671e3ae32f654b8954ea4c4635f915","","Mozilla/5.0 (Macintosh; Intel Mac OS X 10_15_7) AppleWebKit/537.36 (KHTML, like Gecko) Chrome/116.0.0.0 Safari/537.36","Macintosh","Chrome","116.0.0.0","OS X","10_15_7","https://hz8g1ckzuq.cognition.run/","en-US,en;q=0.9","jwdhaj97wvrfnmb","24","[""Asian""]","No","Female","962011.0000000002","8222","","","{""price_1"":""425"",""price_2"":""450"",""price_3"":""450""}","rating","dct","attraction_1","1","washing machines","null","null","null","null","null","null","1","60","50","60","50","60","45","Average lifespan","Energy savings","",""
"","","","","","rating_trial_setup","html-keyboard-response","55","465690","0.0-3.0-0.26","82","1","2025-04-11 14:36:19","bb671e3ae32f654b8954ea4c4635f915","","Mozilla/5.0 (Macintosh; Intel Mac OS X 10_15_7) AppleWebKit/537.36 (KHTML, like Gecko) Chrome/116.0.0.0 Safari/537.36","Macintosh","Chrome","116.0.0.0","OS X","10_15_7","https://hz8g1ckzuq.cognition.run/","en-US,en;q=0.9","jwdhaj97wvrfnmb","24","[""Asian""]","No","Female","962011.0000000002","null","","<p></p>","null","rating","tcd","repulsion_2","1","televisions","null","null","null","null","null","null","2","","","","","","","","","",""
"","","","","","rating_trial","survey-html-form","56","491369","0.0-3.0-1.26","82","1","2025-04-11 14:36:19","bb671e3ae32f654b8954ea4c4635f915","","Mozilla/5.0 (Macintosh; Intel Mac OS X 10_15_7) AppleWebKit/537.36 (KHTML, like Gecko) Chrome/116.0.0.0 Safari/537.36","Macintosh","Chrome","116.0.0.0","OS X","10_15_7","https://hz8g1ckzuq.cognition.run/","en-US,en;q=0.9","jwdhaj97wvrfnmb","24","[""Asian""]","No","Female","962011.0000000002","25671","","","{""price_1"":""350"",""price_2"":""325"",""price_3"":""325""}","rating","tcd","repulsion_2","1","televisions","null","null","null","null","null","null","2","100","90","100","30","40","20","Screen size","Average lifespan","",""
"","","","","","rating_trial_setup","html-keyboard-response","57","491682","0.0-3.0-0.27","82","1","2025-04-11 14:36:19","bb671e3ae32f654b8954ea4c4635f915","","Mozilla/5.0 (Macintosh; Intel Mac OS X 10_15_7) AppleWebKit/537.36 (KHTML, like Gecko) Chrome/116.0.0.0 Safari/537.36","Macintosh","Chrome","116.0.0.0","OS X","10_15_7","https://hz8g1ckzuq.cognition.run/","en-US,en;q=0.9","jwdhaj97wvrfnmb","24","[""Asian""]","No","Female","962011.0000000002","null","","<p></p>","null","rating","dtc","repulsion_1","1","televisions","null","null","null","null","null","null","2","","","","","","","","","",""
"","","","","","rating_trial","survey-html-form","58","511164","0.0-3.0-1.27","82","1","2025-04-11 14:36:19","bb671e3ae32f654b8954ea4c4635f915","","Mozilla/5.0 (Macintosh; Intel Mac OS X 10_15_7) AppleWebKit/537.36 (KHTML, like Gecko) Chrome/116.0.0.0 Safari/537.36","Macintosh","Chrome","116.0.0.0","OS X","10_15_7","https://hz8g1ckzuq.cognition.run/","en-US,en;q=0.9","jwdhaj97wvrfnmb","24","[""Asian""]","No","Female","962011.0000000002","19475","","","{""price_1"":""325"",""price_2"":""320"",""price_3"":""350""}","rating","dtc","repulsion_1","1","televisions","null","null","null","null","null","null","2","100","90","100","30","40","25","Screen size","Average lifespan","",""
"","","","","","rating_trial_setup","html-keyboard-response","59","511475","0.0-3.0-0.28","82","1","2025-04-11 14:36:19","bb671e3ae32f654b8954ea4c4635f915","","Mozilla/5.0 (Macintosh; Intel Mac OS X 10_15_7) AppleWebKit/537.36 (KHTML, like Gecko) Chrome/116.0.0.0 Safari/537.36","Macintosh","Chrome","116.0.0.0","OS X","10_15_7","https://hz8g1ckzuq.cognition.run/","en-US,en;q=0.9","jwdhaj97wvrfnmb","24","[""Asian""]","No","Female","962011.0000000002","null","","<p></p>","null","rating","tcd","repulsion_1","1","laptops","null","null","null","null","null","null","2","","","","","","","","","",""
"","","","","","rating_trial","survey-html-form","60","523488","0.0-3.0-1.28","82","1","2025-04-11 14:36:19","bb671e3ae32f654b8954ea4c4635f915","","Mozilla/5.0 (Macintosh; Intel Mac OS X 10_15_7) AppleWebKit/537.36 (KHTML, like Gecko) Chrome/116.0.0.0 Safari/537.36","Macintosh","Chrome","116.0.0.0","OS X","10_15_7","https://hz8g1ckzuq.cognition.run/","en-US,en;q=0.9","jwdhaj97wvrfnmb","24","[""Asian""]","No","Female","962011.0000000002","12006","","","{""price_1"":""300"",""price_2"":""250"",""price_3"":""275""}","rating","tcd","repulsion_1","1","laptops","null","null","null","null","null","null","2","100","90","100","30","40","25","Processing speed","Memory (RAM)","",""
"","","","","","rating_trial_setup","html-keyboard-response","61","523802","0.0-3.0-0.29","82","1","2025-04-11 14:36:19","bb671e3ae32f654b8954ea4c4635f915","","Mozilla/5.0 (Macintosh; Intel Mac OS X 10_15_7) AppleWebKit/537.36 (KHTML, like Gecko) Chrome/116.0.0.0 Safari/537.36","Macintosh","Chrome","116.0.0.0","OS X","10_15_7","https://hz8g1ckzuq.cognition.run/","en-US,en;q=0.9","jwdhaj97wvrfnmb","24","[""Asian""]","No","Female","962011.0000000002","null","","<p></p>","null","rating","ctd","attraction_2","1","washing machines","null","null","null","null","null","null","2","","","","","","","","","",""
"","","","","","rating_trial","survey-html-form","62","531940","0.0-3.0-1.29","82","1","2025-04-11 14:36:19","bb671e3ae32f654b8954ea4c4635f915","","Mozilla/5.0 (Macintosh; Intel Mac OS X 10_15_7) AppleWebKit/537.36 (KHTML, like Gecko) Chrome/116.0.0.0 Safari/537.36","Macintosh","Chrome","116.0.0.0","OS X","10_15_7","https://hz8g1ckzuq.cognition.run/","en-US,en;q=0.9","jwdhaj97wvrfnmb","24","[""Asian""]","No","Female","962011.0000000002","8131","","","{""price_1"":""400"",""price_2"":""400"",""price_3"":""375""}","rating","ctd","attraction_2","1","washing machines","null","null","null","null","null","null","2","60","50","60","50","60","40","Average lifespan","Energy savings","",""
"","","","","","rating_trial_setup","html-keyboard-response","63","532248","0.0-3.0-0.30","82","1","2025-04-11 14:36:19","bb671e3ae32f654b8954ea4c4635f915","","Mozilla/5.0 (Macintosh; Intel Mac OS X 10_15_7) AppleWebKit/537.36 (KHTML, like Gecko) Chrome/116.0.0.0 Safari/537.36","Macintosh","Chrome","116.0.0.0","OS X","10_15_7","https://hz8g1ckzuq.cognition.run/","en-US,en;q=0.9","jwdhaj97wvrfnmb","24","[""Asian""]","No","Female","962011.0000000002","null","","<p></p>","null","rating","cdt","repulsion_1","1","microwave ovens","null","null","null","null","null","null","1","","","","","","","","","",""
"","","","","","rating_trial","survey-html-form","64","547237","0.0-3.0-1.30","82","1","2025-04-11 14:36:19","bb671e3ae32f654b8954ea4c4635f915","","Mozilla/5.0 (Macintosh; Intel Mac OS X 10_15_7) AppleWebKit/537.36 (KHTML, like Gecko) Chrome/116.0.0.0 Safari/537.36","Macintosh","Chrome","116.0.0.0","OS X","10_15_7","https://hz8g1ckzuq.cognition.run/","en-US,en;q=0.9","jwdhaj97wvrfnmb","24","[""Asian""]","No","Female","962011.0000000002","14981","","","{""price_1"":""75"",""price_2"":""50"",""price_3"":""55""}","rating","cdt","repulsion_1","1","microwave ovens","null","null","null","null","null","null","1","100","90","100","30","40","25","Warranty","Cooking power","",""
"","","","","","rating_trial_setup","html-keyboard-response","65","547547","0.0-3.0-0.31","82","1","2025-04-11 14:36:19","bb671e3ae32f654b8954ea4c4635f915","","Mozilla/5.0 (Macintosh; Intel Mac OS X 10_15_7) AppleWebKit/537.36 (KHTML, like Gecko) Chrome/116.0.0.0 Safari/537.36","Macintosh","Chrome","116.0.0.0","OS X","10_15_7","https://hz8g1ckzuq.cognition.run/","en-US,en;q=0.9","jwdhaj97wvrfnmb","24","[""Asian""]","No","Female","962011.0000000002","null","","<p></p>","null","rating","tcd","repulsion_1","2","microwave ovens","null","null","null","null","null","null","1","","","","","","","","","",""
"","","","","","rating_trial","survey-html-form","66","561817","0.0-3.0-1.31","82","1","2025-04-11 14:36:19","bb671e3ae32f654b8954ea4c4635f915","","Mozilla/5.0 (Macintosh; Intel Mac OS X 10_15_7) AppleWebKit/537.36 (KHTML, like Gecko) Chrome/116.0.0.0 Safari/537.36","Macintosh","Chrome","116.0.0.0","OS X","10_15_7","https://hz8g1ckzuq.cognition.run/","en-US,en;q=0.9","jwdhaj97wvrfnmb","24","[""Asian""]","No","Female","962011.0000000002","14263","","","{""price_1"":""55"",""price_2"":""75"",""price_3"":""50""}","rating","tcd","repulsion_1","2","microwave ovens","null","null","null","null","null","null","1","30","40","25","100","90","100","Warranty","Cooking power","",""
"","","","","","rating_trial_setup","html-keyboard-response","67","562133","0.0-3.0-0.32","82","1","2025-04-11 14:36:19","bb671e3ae32f654b8954ea4c4635f915","","Mozilla/5.0 (Macintosh; Intel Mac OS X 10_15_7) AppleWebKit/537.36 (KHTML, like Gecko) Chrome/116.0.0.0 Safari/537.36","Macintosh","Chrome","116.0.0.0","OS X","10_15_7","https://hz8g1ckzuq.cognition.run/","en-US,en;q=0.9","jwdhaj97wvrfnmb","24","[""Asian""]","No","Female","962011.0000000002","null","","<p></p>","null","rating","ctd","attraction_1","1","laptops","null","null","null","null","null","null","2","","","","","","","","","",""
"","","","","","rating_trial","survey-html-form","68","570784","0.0-3.0-1.32","82","1","2025-04-11 14:36:19","bb671e3ae32f654b8954ea4c4635f915","","Mozilla/5.0 (Macintosh; Intel Mac OS X 10_15_7) AppleWebKit/537.36 (KHTML, like Gecko) Chrome/116.0.0.0 Safari/537.36","Macintosh","Chrome","116.0.0.0","OS X","10_15_7","https://hz8g1ckzuq.cognition.run/","en-US,en;q=0.9","jwdhaj97wvrfnmb","24","[""Asian""]","No","Female","962011.0000000002","8642","","","{""price_1"":""400"",""price_2"":""400"",""price_3"":""375""}","rating","ctd","attraction_1","1","laptops","null","null","null","null","null","null","2","60","50","60","50","60","45","Processing speed","Memory (RAM)","",""
"","","","","","rating_trial_setup","html-keyboard-response","69","571102","0.0-3.0-0.33","82","1","2025-04-11 14:36:19","bb671e3ae32f654b8954ea4c4635f915","","Mozilla/5.0 (Macintosh; Intel Mac OS X 10_15_7) AppleWebKit/537.36 (KHTML, like Gecko) Chrome/116.0.0.0 Safari/537.36","Macintosh","Chrome","116.0.0.0","OS X","10_15_7","https://hz8g1ckzuq.cognition.run/","en-US,en;q=0.9","jwdhaj97wvrfnmb","24","[""Asian""]","No","Female","962011.0000000002","null","","<p></p>","null","rating","wbw","catch","null","laptops","55","65","15","20","20","35","2","","","","","","","","","",""
"","","","","","rating_trial","survey-html-form","70","583888","0.0-3.0-1.33","82","1","2025-04-11 14:36:19","bb671e3ae32f654b8954ea4c4635f915","","Mozilla/5.0 (Macintosh; Intel Mac OS X 10_15_7) AppleWebKit/537.36 (KHTML, like Gecko) Chrome/116.0.0.0 Safari/537.36","Macintosh","Chrome","116.0.0.0","OS X","10_15_7","https://hz8g1ckzuq.cognition.run/","en-US,en;q=0.9","jwdhaj97wvrfnmb","24","[""Asian""]","No","Female","962011.0000000002","12778","","","{""price_1"":""250"",""price_2"":""400"",""price_3"":""350""}","rating","wbw","catch","null","laptops","55","65","15","20","20","35","2","null","null","null","null","null","null","Processing speed","Memory (RAM)","",""
"","","","","","rating_trial_setup","html-keyboard-response","71","584206","0.0-3.0-0.34","82","1","2025-04-11 14:36:19","bb671e3ae32f654b8954ea4c4635f915","","Mozilla/5.0 (Macintosh; Intel Mac OS X 10_15_7) AppleWebKit/537.36 (KHTML, like Gecko) Chrome/116.0.0.0 Safari/537.36","Macintosh","Chrome","116.0.0.0","OS X","10_15_7","https://hz8g1ckzuq.cognition.run/","en-US,en;q=0.9","jwdhaj97wvrfnmb","24","[""Asian""]","No","Female","962011.0000000002","null","","<p></p>","null","rating","ctd","repulsion_2","2","televisions","null","null","null","null","null","null","1","","","","","","","","","",""
"","","","","","rating_trial","survey-html-form","72","603120","0.0-3.0-1.34","82","1","2025-04-11 14:36:19","bb671e3ae32f654b8954ea4c4635f915","","Mozilla/5.0 (Macintosh; Intel Mac OS X 10_15_7) AppleWebKit/537.36 (KHTML, like Gecko) Chrome/116.0.0.0 Safari/537.36","Macintosh","Chrome","116.0.0.0","OS X","10_15_7","https://hz8g1ckzuq.cognition.run/","en-US,en;q=0.9","jwdhaj97wvrfnmb","24","[""Asian""]","No","Female","962011.0000000002","18905","","","{""price_1"":""200"",""price_2"":""150"",""price_3"":""125""}","rating","ctd","repulsion_2","2","televisions","null","null","null","null","null","null","1","30","40","20","100","90","100","Screen size","Average lifespan","",""
"","","","","","rating_trial_setup","html-keyboard-response","73","603437","0.0-3.0-0.35","82","1","2025-04-11 14:36:19","bb671e3ae32f654b8954ea4c4635f915","","Mozilla/5.0 (Macintosh; Intel Mac OS X 10_15_7) AppleWebKit/537.36 (KHTML, like Gecko) Chrome/116.0.0.0 Safari/537.36","Macintosh","Chrome","116.0.0.0","OS X","10_15_7","https://hz8g1ckzuq.cognition.run/","en-US,en;q=0.9","jwdhaj97wvrfnmb","24","[""Asian""]","No","Female","962011.0000000002","null","","<p></p>","null","rating","tcd","attraction_1","1","televisions","null","null","null","null","null","null","1","","","","","","","","","",""
"","","","","","rating_trial","survey-html-form","74","617975","0.0-3.0-1.35","82","1","2025-04-11 14:36:19","bb671e3ae32f654b8954ea4c4635f915","","Mozilla/5.0 (Macintosh; Intel Mac OS X 10_15_7) AppleWebKit/537.36 (KHTML, like Gecko) Chrome/116.0.0.0 Safari/537.36","Macintosh","Chrome","116.0.0.0","OS X","10_15_7","https://hz8g1ckzuq.cognition.run/","en-US,en;q=0.9","jwdhaj97wvrfnmb","24","[""Asian""]","No","Female","962011.0000000002","14530","","","{""price_1"":""400"",""price_2"":""400"",""price_3"":""350""}","rating","tcd","attraction_1","1","televisions","null","null","null","null","null","null","1","60","50","60","50","60","45","Screen size","Average lifespan","",""
"","","","","","rating_trial_setup","html-keyboard-response","75","618291","0.0-3.0-0.36","82","1","2025-04-11 14:36:19","bb671e3ae32f654b8954ea4c4635f915","","Mozilla/5.0 (Macintosh; Intel Mac OS X 10_15_7) AppleWebKit/537.36 (KHTML, like Gecko) Chrome/116.0.0.0 Safari/537.36","Macintosh","Chrome","116.0.0.0","OS X","10_15_7","https://hz8g1ckzuq.cognition.run/","en-US,en;q=0.9","jwdhaj97wvrfnmb","24","[""Asian""]","No","Female","962011.0000000002","null","","<p></p>","null","rating","bww","catch","null","microwave ovens","85","50","40","20","15","15","2","","","","","","","","","",""
"","","","","","rating_trial","survey-html-form","76","629898","0.0-3.0-1.36","82","1","2025-04-11 14:36:19","bb671e3ae32f654b8954ea4c4635f915","","Mozilla/5.0 (Macintosh; Intel Mac OS X 10_15_7) AppleWebKit/537.36 (KHTML, like Gecko) Chrome/116.0.0.0 Safari/537.36","Macintosh","Chrome","116.0.0.0","OS X","10_15_7","https://hz8g1ckzuq.cognition.run/","en-US,en;q=0.9","jwdhaj97wvrfnmb","24","[""Asian""]","No","Female","962011.0000000002","11598","","","{""price_1"":""100"",""price_2"":""35"",""price_3"":""20""}","rating","bww","catch","null","microwave ovens","85","50","40","20","15","15","2","null","null","null","null","null","null","Warranty","Cooking power","",""
"","","","","","rating_trial_setup","html-keyboard-response","77","630216","0.0-3.0-0.37","82","1","2025-04-11 14:36:19","bb671e3ae32f654b8954ea4c4635f915","","Mozilla/5.0 (Macintosh; Intel Mac OS X 10_15_7) AppleWebKit/537.36 (KHTML, like Gecko) Chrome/116.0.0.0 Safari/537.36","Macintosh","Chrome","116.0.0.0","OS X","10_15_7","https://hz8g1ckzuq.cognition.run/","en-US,en;q=0.9","jwdhaj97wvrfnmb","24","[""Asian""]","No","Female","962011.0000000002","null","","<p></p>","null","rating","ctd","attraction_2","2","washing machines","null","null","null","null","null","null","2","","","","","","","","","",""
"","","","","","rating_trial","survey-html-form","78","642299","0.0-3.0-1.37","82","1","2025-04-11 14:36:19","bb671e3ae32f654b8954ea4c4635f915","","Mozilla/5.0 (Macintosh; Intel Mac OS X 10_15_7) AppleWebKit/537.36 (KHTML, like Gecko) Chrome/116.0.0.0 Safari/537.36","Macintosh","Chrome","116.0.0.0","OS X","10_15_7","https://hz8g1ckzuq.cognition.run/","en-US,en;q=0.9","jwdhaj97wvrfnmb","24","[""Asian""]","No","Female","962011.0000000002","12074","","","{""price_1"":""500"",""price_2"":""500"",""price_3"":""475""}","rating","ctd","attraction_2","2","washing machines","null","null","null","null","null","null","2","50","60","40","60","50","60","Average lifespan","Energy savings","",""
"","","","","","rating_trial_setup","html-keyboard-response","79","642616","0.0-3.0-0.38","82","1","2025-04-11 14:36:19","bb671e3ae32f654b8954ea4c4635f915","","Mozilla/5.0 (Macintosh; Intel Mac OS X 10_15_7) AppleWebKit/537.36 (KHTML, like Gecko) Chrome/116.0.0.0 Safari/537.36","Macintosh","Chrome","116.0.0.0","OS X","10_15_7","https://hz8g1ckzuq.cognition.run/","en-US,en;q=0.9","jwdhaj97wvrfnmb","24","[""Asian""]","No","Female","962011.0000000002","null","","<p></p>","null","rating","wbw","catch","null","televisions","50","70","25","30","45","50","1","","","","","","","","","",""
"","","","","","rating_trial","survey-html-form","80","656990","0.0-3.0-1.38","82","1","2025-04-11 14:36:19","bb671e3ae32f654b8954ea4c4635f915","","Mozilla/5.0 (Macintosh; Intel Mac OS X 10_15_7) AppleWebKit/537.36 (KHTML, like Gecko) Chrome/116.0.0.0 Safari/537.36","Macintosh","Chrome","116.0.0.0","OS X","10_15_7","https://hz8g1ckzuq.cognition.run/","en-US,en;q=0.9","jwdhaj97wvrfnmb","24","[""Asian""]","No","Female","962011.0000000002","14366","","","{""price_1"":""100"",""price_2"":""300"",""price_3"":""275""}","rating","wbw","catch","null","televisions","50","70","25","30","45","50","1","null","null","null","null","null","null","Screen size","Average lifespan","",""
"","","","","","rating_trial_setup","html-keyboard-response","81","657301","0.0-3.0-0.39","82","1","2025-04-11 14:36:19","bb671e3ae32f654b8954ea4c4635f915","","Mozilla/5.0 (Macintosh; Intel Mac OS X 10_15_7) AppleWebKit/537.36 (KHTML, like Gecko) Chrome/116.0.0.0 Safari/537.36","Macintosh","Chrome","116.0.0.0","OS X","10_15_7","https://hz8g1ckzuq.cognition.run/","en-US,en;q=0.9","jwdhaj97wvrfnmb","24","[""Asian""]","No","Female","962011.0000000002","null","","<p></p>","null","rating","bww","catch","null","laptops","65","50","5","35","25","20","2","","","","","","","","","",""
"","","","","","rating_trial","survey-html-form","82","671454","0.0-3.0-1.39","82","1","2025-04-11 14:36:19","bb671e3ae32f654b8954ea4c4635f915","","Mozilla/5.0 (Macintosh; Intel Mac OS X 10_15_7) AppleWebKit/537.36 (KHTML, like Gecko) Chrome/116.0.0.0 Safari/537.36","Macintosh","Chrome","116.0.0.0","OS X","10_15_7","https://hz8g1ckzuq.cognition.run/","en-US,en;q=0.9","jwdhaj97wvrfnmb","24","[""Asian""]","No","Female","962011.0000000002","14143","","","{""price_1"":""300"",""price_2"":""150"",""price_3"":""125""}","rating","bww","catch","null","laptops","65","50","5","35","25","20","2","null","null","null","null","null","null","Processing speed","Memory (RAM)","",""
"","","","","","","instructions","83","699333","0.0-4.0","82","1","2025-04-11 14:36:19","bb671e3ae32f654b8954ea4c4635f915","","Mozilla/5.0 (Macintosh; Intel Mac OS X 10_15_7) AppleWebKit/537.36 (KHTML, like Gecko) Chrome/116.0.0.0 Safari/537.36","Macintosh","Chrome","116.0.0.0","OS X","10_15_7","https://hz8g1ckzuq.cognition.run/","en-US,en;q=0.9","jwdhaj97wvrfnmb","24","[""Asian""]","No","Female","962011.0000000002","27868","[{""page_index"":0,""viewing_time"":1413},{""page_index"":1,""viewing_time"":1083},{""page_index"":2,""viewing_time"":4244},{""page_index"":3,""viewing_time"":4882},{""page_index"":4,""viewing_time"":5068},{""page_index"":5,""viewing_time"":3886},{""page_index"":6,""viewing_time"":3416},{""page_index"":7,""viewing_time"":3876}]","","","","","","","","","","","","","","","","","","","","","","","",""
"","","","","","choice_trial_setup","html-keyboard-response","84","699646","0.0-5.0-0.0","82","1","2025-04-11 14:36:19","bb671e3ae32f654b8954ea4c4635f915","","Mozilla/5.0 (Macintosh; Intel Mac OS X 10_15_7) AppleWebKit/537.36 (KHTML, like Gecko) Chrome/116.0.0.0 Safari/537.36","Macintosh","Chrome","116.0.0.0","OS X","10_15_7","https://hz8g1ckzuq.cognition.run/","en-US,en;q=0.9","jwdhaj97wvrfnmb","24","[""Asian""]","No","Female","962011.0000000002","null","","<p></p>","null","choice","tdc","attraction_2","1","televisions","null","null","null","null","null","null","2","","","","","","","","","",""
"","","","","","choice_trial","survey-html-form","85","704541","0.0-5.0-1.0","82","1","2025-04-11 14:36:19","bb671e3ae32f654b8954ea4c4635f915","","Mozilla/5.0 (Macintosh; Intel Mac OS X 10_15_7) AppleWebKit/537.36 (KHTML, like Gecko) Chrome/116.0.0.0 Safari/537.36","Macintosh","Chrome","116.0.0.0","OS X","10_15_7","https://hz8g1ckzuq.cognition.run/","en-US,en;q=0.9","jwdhaj97wvrfnmb","24","[""Asian""]","No","Female","962011.0000000002","4886","","","{""product_choice"":""A""}","choice","tdc","attraction_2","1","televisions","null","null","null","null","null","null","2","60","50","60","50","60","40","Screen size","Average lifespan","",""
"","","","","","choice_trial_setup","html-keyboard-response","86","704859","0.0-5.0-0.1","82","1","2025-04-11 14:36:19","bb671e3ae32f654b8954ea4c4635f915","","Mozilla/5.0 (Macintosh; Intel Mac OS X 10_15_7) AppleWebKit/537.36 (KHTML, like Gecko) Chrome/116.0.0.0 Safari/537.36","Macintosh","Chrome","116.0.0.0","OS X","10_15_7","https://hz8g1ckzuq.cognition.run/","en-US,en;q=0.9","jwdhaj97wvrfnmb","24","[""Asian""]","No","Female","962011.0000000002","null","","<p></p>","null","choice","ctd","attraction_2","2","microwave ovens","null","null","null","null","null","null","1","","","","","","","","","",""
"","","","","","choice_trial","survey-html-form","87","709387","0.0-5.0-1.1","82","1","2025-04-11 14:36:19","bb671e3ae32f654b8954ea4c4635f915","","Mozilla/5.0 (Macintosh; Intel Mac OS X 10_15_7) AppleWebKit/537.36 (KHTML, like Gecko) Chrome/116.0.0.0 Safari/537.36","Macintosh","Chrome","116.0.0.0","OS X","10_15_7","https://hz8g1ckzuq.cognition.run/","en-US,en;q=0.9","jwdhaj97wvrfnmb","24","[""Asian""]","No","Female","962011.0000000002","4520","","","{""product_choice"":""B""}","choice","ctd","attraction_2","2","microwave ovens","null","null","null","null","null","null","1","50","60","40","60","50","60","Warranty","Cooking power","",""
"","","","","","choice_trial_setup","html-keyboard-response","88","709703","0.0-5.0-0.2","82","1","2025-04-11 14:36:19","bb671e3ae32f654b8954ea4c4635f915","","Mozilla/5.0 (Macintosh; Intel Mac OS X 10_15_7) AppleWebKit/537.36 (KHTML, like Gecko) Chrome/116.0.0.0 Safari/537.36","Macintosh","Chrome","116.0.0.0","OS X","10_15_7","https://hz8g1ckzuq.cognition.run/","en-US,en;q=0.9","jwdhaj97wvrfnmb","24","[""Asian""]","No","Female","962011.0000000002","null","","<p></p>","null","choice","dtc","repulsion_2","2","laptops","null","null","null","null","null","null","2","","","","","","","","","",""
"","","","","","choice_trial","survey-html-form","89","718276","0.0-5.0-1.2","82","1","2025-04-11 14:36:19","bb671e3ae32f654b8954ea4c4635f915","","Mozilla/5.0 (Macintosh; Intel Mac OS X 10_15_7) AppleWebKit/537.36 (KHTML, like Gecko) Chrome/116.0.0.0 Safari/537.36","Macintosh","Chrome","116.0.0.0","OS X","10_15_7","https://hz8g1ckzuq.cognition.run/","en-US,en;q=0.9","jwdhaj97wvrfnmb","24","[""Asian""]","No","Female","962011.0000000002","8564","","","{""product_choice"":""C""}","choice","dtc","repulsion_2","2","laptops","null","null","null","null","null","null","2","30","40","20","100","90","100","Processing speed","Memory (RAM)","",""
"","","","","","choice_trial_setup","html-keyboard-response","90","718594","0.0-5.0-0.3","82","1","2025-04-11 14:36:19","bb671e3ae32f654b8954ea4c4635f915","","Mozilla/5.0 (Macintosh; Intel Mac OS X 10_15_7) AppleWebKit/537.36 (KHTML, like Gecko) Chrome/116.0.0.0 Safari/537.36","Macintosh","Chrome","116.0.0.0","OS X","10_15_7","https://hz8g1ckzuq.cognition.run/","en-US,en;q=0.9","jwdhaj97wvrfnmb","24","[""Asian""]","No","Female","962011.0000000002","null","","<p></p>","null","choice","tcd","attraction_1","1","microwave ovens","null","null","null","null","null","null","2","","","","","","","","","",""
"","","","","","choice_trial","survey-html-form","91","722121","0.0-5.0-1.3","82","1","2025-04-11 14:36:19","bb671e3ae32f654b8954ea4c4635f915","","Mozilla/5.0 (Macintosh; Intel Mac OS X 10_15_7) AppleWebKit/537.36 (KHTML, like Gecko) Chrome/116.0.0.0 Safari/537.36","Macintosh","Chrome","116.0.0.0","OS X","10_15_7","https://hz8g1ckzuq.cognition.run/","en-US,en;q=0.9","jwdhaj97wvrfnmb","24","[""Asian""]","No","Female","962011.0000000002","3518","","","{""product_choice"":""B""}","choice","tcd","attraction_1","1","microwave ovens","null","null","null","null","null","null","2","60","50","60","50","60","45","Warranty","Cooking power","",""
"","","","","","choice_trial_setup","html-keyboard-response","92","722443","0.0-5.0-0.4","82","1","2025-04-11 14:36:19","bb671e3ae32f654b8954ea4c4635f915","","Mozilla/5.0 (Macintosh; Intel Mac OS X 10_15_7) AppleWebKit/537.36 (KHTML, like Gecko) Chrome/116.0.0.0 Safari/537.36","Macintosh","Chrome","116.0.0.0","OS X","10_15_7","https://hz8g1ckzuq.cognition.run/","en-US,en;q=0.9","jwdhaj97wvrfnmb","24","[""Asian""]","No","Female","962011.0000000002","null","","<p></p>","null","choice","ctd","repulsion_2","2","washing machines","null","null","null","null","null","null","1","","","","","","","","","",""
"","","","","","choice_trial","survey-html-form","93","726175","0.0-5.0-1.4","82","1","2025-04-11 14:36:19","bb671e3ae32f654b8954ea4c4635f915","","Mozilla/5.0 (Macintosh; Intel Mac OS X 10_15_7) AppleWebKit/537.36 (KHTML, like Gecko) Chrome/116.0.0.0 Safari/537.36","Macintosh","Chrome","116.0.0.0","OS X","10_15_7","https://hz8g1ckzuq.cognition.run/","en-US,en;q=0.9","jwdhaj97wvrfnmb","24","[""Asian""]","No","Female","962011.0000000002","3724","","","{""product_choice"":""A""}","choice","ctd","repulsion_2","2","washing machines","null","null","null","null","null","null","1","30","40","20","100","90","100","Average lifespan","Energy savings","",""
"","","","","","choice_trial_setup","html-keyboard-response","94","726489","0.0-5.0-0.5","82","1","2025-04-11 14:36:19","bb671e3ae32f654b8954ea4c4635f915","","Mozilla/5.0 (Macintosh; Intel Mac OS X 10_15_7) AppleWebKit/537.36 (KHTML, like Gecko) Chrome/116.0.0.0 Safari/537.36","Macintosh","Chrome","116.0.0.0","OS X","10_15_7","https://hz8g1ckzuq.cognition.run/","en-US,en;q=0.9","jwdhaj97wvrfnmb","24","[""Asian""]","No","Female","962011.0000000002","null","","<p></p>","null","choice","dtc","attraction_2","2","laptops","null","null","null","null","null","null","1","","","","","","","","","",""
"","","","","","choice_trial","survey-html-form","95","738854","0.0-5.0-1.5","82","1","2025-04-11 14:36:19","bb671e3ae32f654b8954ea4c4635f915","","Mozilla/5.0 (Macintosh; Intel Mac OS X 10_15_7) AppleWebKit/537.36 (KHTML, like Gecko) Chrome/116.0.0.0 Safari/537.36","Macintosh","Chrome","116.0.0.0","OS X","10_15_7","https://hz8g1ckzuq.cognition.run/","en-US,en;q=0.9","jwdhaj97wvrfnmb","24","[""Asian""]","No","Female","962011.0000000002","12355","","","{""product_choice"":""B""}","choice","dtc","attraction_2","2","laptops","null","null","null","null","null","null","1","50","60","40","60","50","60","Processing speed","Memory (RAM)","",""
"","","","","","choice_trial_setup","html-keyboard-response","96","739167","0.0-5.0-0.6","82","1","2025-04-11 14:36:19","bb671e3ae32f654b8954ea4c4635f915","","Mozilla/5.0 (Macintosh; Intel Mac OS X 10_15_7) AppleWebKit/537.36 (KHTML, like Gecko) Chrome/116.0.0.0 Safari/537.36","Macintosh","Chrome","116.0.0.0","OS X","10_15_7","https://hz8g1ckzuq.cognition.run/","en-US,en;q=0.9","jwdhaj97wvrfnmb","24","[""Asian""]","No","Female","962011.0000000002","null","","<p></p>","null","choice","tcd","attraction_2","2","washing machines","null","null","null","null","null","null","1","","","","","","","","","",""
"","","","","","choice_trial","survey-html-form","97","743768","0.0-5.0-1.6","82","1","2025-04-11 14:36:19","bb671e3ae32f654b8954ea4c4635f915","","Mozilla/5.0 (Macintosh; Intel Mac OS X 10_15_7) AppleWebKit/537.36 (KHTML, like Gecko) Chrome/116.0.0.0 Safari/537.36","Macintosh","Chrome","116.0.0.0","OS X","10_15_7","https://hz8g1ckzuq.cognition.run/","en-US,en;q=0.9","jwdhaj97wvrfnmb","24","[""Asian""]","No","Female","962011.0000000002","4591","","","{""product_choice"":""B""}","choice","tcd","attraction_2","2","washing machines","null","null","null","null","null","null","1","50","60","40","60","50","60","Average lifespan","Energy savings","",""
"","","","","","choice_trial_setup","html-keyboard-response","98","744089","0.0-5.0-0.7","82","1","2025-04-11 14:36:19","bb671e3ae32f654b8954ea4c4635f915","","Mozilla/5.0 (Macintosh; Intel Mac OS X 10_15_7) AppleWebKit/537.36 (KHTML, like Gecko) Chrome/116.0.0.0 Safari/537.36","Macintosh","Chrome","116.0.0.0","OS X","10_15_7","https://hz8g1ckzuq.cognition.run/","en-US,en;q=0.9","jwdhaj97wvrfnmb","24","[""Asian""]","No","Female","962011.0000000002","null","","<p></p>","null","choice","wbw","catch","null","laptops","65","90","10","40","5","5","2","","","","","","","","","",""
"","","","","","choice_trial","survey-html-form","99","746431","0.0-5.0-1.7","82","1","2025-04-11 14:36:19","bb671e3ae32f654b8954ea4c4635f915","","Mozilla/5.0 (Macintosh; Intel Mac OS X 10_15_7) AppleWebKit/537.36 (KHTML, like Gecko) Chrome/116.0.0.0 Safari/537.36","Macintosh","Chrome","116.0.0.0","OS X","10_15_7","https://hz8g1ckzuq.cognition.run/","en-US,en;q=0.9","jwdhaj97wvrfnmb","24","[""Asian""]","No","Female","962011.0000000002","2331","","","{""product_choice"":""B""}","choice","wbw","catch","null","laptops","65","90","10","40","5","5","2","null","null","null","null","null","null","Processing speed","Memory (RAM)","",""
"","","","","","choice_trial_setup","html-keyboard-response","100","746747","0.0-5.0-0.8","82","1","2025-04-11 14:36:19","bb671e3ae32f654b8954ea4c4635f915","","Mozilla/5.0 (Macintosh; Intel Mac OS X 10_15_7) AppleWebKit/537.36 (KHTML, like Gecko) Chrome/116.0.0.0 Safari/537.36","Macintosh","Chrome","116.0.0.0","OS X","10_15_7","https://hz8g1ckzuq.cognition.run/","en-US,en;q=0.9","jwdhaj97wvrfnmb","24","[""Asian""]","No","Female","962011.0000000002","null","","<p></p>","null","choice","bww","catch","null","televisions","90","75","15","30","25","30","2","","","","","","","","","",""
"","","","","","choice_trial","survey-html-form","101","749029","0.0-5.0-1.8","82","1","2025-04-11 14:36:19","bb671e3ae32f654b8954ea4c4635f915","","Mozilla/5.0 (Macintosh; Intel Mac OS X 10_15_7) AppleWebKit/537.36 (KHTML, like Gecko) Chrome/116.0.0.0 Safari/537.36","Macintosh","Chrome","116.0.0.0","OS X","10_15_7","https://hz8g1ckzuq.cognition.run/","en-US,en;q=0.9","jwdhaj97wvrfnmb","24","[""Asian""]","No","Female","962011.0000000002","2272","","","{""product_choice"":""A""}","choice","bww","catch","null","televisions","90","75","15","30","25","30","2","null","null","null","null","null","null","Screen size","Average lifespan","",""
"","","","","","choice_trial_setup","html-keyboard-response","102","749344","0.0-5.0-0.9","82","1","2025-04-11 14:36:19","bb671e3ae32f654b8954ea4c4635f915","","Mozilla/5.0 (Macintosh; Intel Mac OS X 10_15_7) AppleWebKit/537.36 (KHTML, like Gecko) Chrome/116.0.0.0 Safari/537.36","Macintosh","Chrome","116.0.0.0","OS X","10_15_7","https://hz8g1ckzuq.cognition.run/","en-US,en;q=0.9","jwdhaj97wvrfnmb","24","[""Asian""]","No","Female","962011.0000000002","null","","<p></p>","null","choice","dct","attraction_2","2","televisions","null","null","null","null","null","null","1","","","","","","","","","",""
"","","","","","choice_trial","survey-html-form","103","753247","0.0-5.0-1.9","82","1","2025-04-11 14:36:19","bb671e3ae32f654b8954ea4c4635f915","","Mozilla/5.0 (Macintosh; Intel Mac OS X 10_15_7) AppleWebKit/537.36 (KHTML, like Gecko) Chrome/116.0.0.0 Safari/537.36","Macintosh","Chrome","116.0.0.0","OS X","10_15_7","https://hz8g1ckzuq.cognition.run/","en-US,en;q=0.9","jwdhaj97wvrfnmb","24","[""Asian""]","No","Female","962011.0000000002","3894","","","{""product_choice"":""B""}","choice","dct","attraction_2","2","televisions","null","null","null","null","null","null","1","50","60","40","60","50","60","Screen size","Average lifespan","",""
"","","","","","choice_trial_setup","html-keyboard-response","104","753564","0.0-5.0-0.10","82","1","2025-04-11 14:36:19","bb671e3ae32f654b8954ea4c4635f915","","Mozilla/5.0 (Macintosh; Intel Mac OS X 10_15_7) AppleWebKit/537.36 (KHTML, like Gecko) Chrome/116.0.0.0 Safari/537.36","Macintosh","Chrome","116.0.0.0","OS X","10_15_7","https://hz8g1ckzuq.cognition.run/","en-US,en;q=0.9","jwdhaj97wvrfnmb","24","[""Asian""]","No","Female","962011.0000000002","null","","<p></p>","null","choice","tdc","attraction_2","1","laptops","null","null","null","null","null","null","1","","","","","","","","","",""
"","","","","","choice_trial","survey-html-form","105","758590","0.0-5.0-1.10","82","1","2025-04-11 14:36:19","bb671e3ae32f654b8954ea4c4635f915","","Mozilla/5.0 (Macintosh; Intel Mac OS X 10_15_7) AppleWebKit/537.36 (KHTML, like Gecko) Chrome/116.0.0.0 Safari/537.36","Macintosh","Chrome","116.0.0.0","OS X","10_15_7","https://hz8g1ckzuq.cognition.run/","en-US,en;q=0.9","jwdhaj97wvrfnmb","24","[""Asian""]","No","Female","962011.0000000002","5016","","","{""product_choice"":""C""}","choice","tdc","attraction_2","1","laptops","null","null","null","null","null","null","1","60","50","60","50","60","40","Processing speed","Memory (RAM)","",""
"","","","","","choice_trial_setup","html-keyboard-response","106","758905","0.0-5.0-0.11","82","1","2025-04-11 14:36:19","bb671e3ae32f654b8954ea4c4635f915","","Mozilla/5.0 (Macintosh; Intel Mac OS X 10_15_7) AppleWebKit/537.36 (KHTML, like Gecko) Chrome/116.0.0.0 Safari/537.36","Macintosh","Chrome","116.0.0.0","OS X","10_15_7","https://hz8g1ckzuq.cognition.run/","en-US,en;q=0.9","jwdhaj97wvrfnmb","24","[""Asian""]","No","Female","962011.0000000002","null","","<p></p>","null","choice","wwb","catch","null","microwave ovens","70","50","30","5","45","5","2","","","","","","","","","",""
"","","","","","choice_trial","survey-html-form","107","761585","0.0-5.0-1.11","82","1","2025-04-11 14:36:19","bb671e3ae32f654b8954ea4c4635f915","","Mozilla/5.0 (Macintosh; Intel Mac OS X 10_15_7) AppleWebKit/537.36 (KHTML, like Gecko) Chrome/116.0.0.0 Safari/537.36","Macintosh","Chrome","116.0.0.0","OS X","10_15_7","https://hz8g1ckzuq.cognition.run/","en-US,en;q=0.9","jwdhaj97wvrfnmb","24","[""Asian""]","No","Female","962011.0000000002","2670","","","{""product_choice"":""C""}","choice","wwb","catch","null","microwave ovens","70","50","30","5","45","5","2","null","null","null","null","null","null","Warranty","Cooking power","",""
"","","","","","choice_trial_setup","html-keyboard-response","108","761906","0.0-5.0-0.12","82","1","2025-04-11 14:36:19","bb671e3ae32f654b8954ea4c4635f915","","Mozilla/5.0 (Macintosh; Intel Mac OS X 10_15_7) AppleWebKit/537.36 (KHTML, like Gecko) Chrome/116.0.0.0 Safari/537.36","Macintosh","Chrome","116.0.0.0","OS X","10_15_7","https://hz8g1ckzuq.cognition.run/","en-US,en;q=0.9","jwdhaj97wvrfnmb","24","[""Asian""]","No","Female","962011.0000000002","null","","<p></p>","null","choice","tdc","repulsion_1","1","televisions","null","null","null","null","null","null","2","","","","","","","","","",""
"","","","","","choice_trial","survey-html-form","109","765502","0.0-5.0-1.12","82","1","2025-04-11 14:36:19","bb671e3ae32f654b8954ea4c4635f915","","Mozilla/5.0 (Macintosh; Intel Mac OS X 10_15_7) AppleWebKit/537.36 (KHTML, like Gecko) Chrome/116.0.0.0 Safari/537.36","Macintosh","Chrome","116.0.0.0","OS X","10_15_7","https://hz8g1ckzuq.cognition.run/","en-US,en;q=0.9","jwdhaj97wvrfnmb","24","[""Asian""]","No","Female","962011.0000000002","3585","","","{""product_choice"":""C""}","choice","tdc","repulsion_1","1","televisions","null","null","null","null","null","null","2","100","90","100","30","40","25","Screen size","Average lifespan","",""
"","","","","","choice_trial_setup","html-keyboard-response","110","765819","0.0-5.0-0.13","82","1","2025-04-11 14:36:19","bb671e3ae32f654b8954ea4c4635f915","","Mozilla/5.0 (Macintosh; Intel Mac OS X 10_15_7) AppleWebKit/537.36 (KHTML, like Gecko) Chrome/116.0.0.0 Safari/537.36","Macintosh","Chrome","116.0.0.0","OS X","10_15_7","https://hz8g1ckzuq.cognition.run/","en-US,en;q=0.9","jwdhaj97wvrfnmb","24","[""Asian""]","No","Female","962011.0000000002","null","","<p></p>","null","choice","tdc","repulsion_1","2","televisions","null","null","null","null","null","null","2","","","","","","","","","",""
"","","","","","choice_trial","survey-html-form","111","771250","0.0-5.0-1.13","82","1","2025-04-11 14:36:19","bb671e3ae32f654b8954ea4c4635f915","","Mozilla/5.0 (Macintosh; Intel Mac OS X 10_15_7) AppleWebKit/537.36 (KHTML, like Gecko) Chrome/116.0.0.0 Safari/537.36","Macintosh","Chrome","116.0.0.0","OS X","10_15_7","https://hz8g1ckzuq.cognition.run/","en-US,en;q=0.9","jwdhaj97wvrfnmb","24","[""Asian""]","No","Female","962011.0000000002","5420","","","{""product_choice"":""C""}","choice","tdc","repulsion_1","2","televisions","null","null","null","null","null","null","2","30","40","25","100","90","100","Screen size","Average lifespan","",""
"","","","","","choice_trial_setup","html-keyboard-response","112","771572","0.0-5.0-0.14","82","1","2025-04-11 14:36:19","bb671e3ae32f654b8954ea4c4635f915","","Mozilla/5.0 (Macintosh; Intel Mac OS X 10_15_7) AppleWebKit/537.36 (KHTML, like Gecko) Chrome/116.0.0.0 Safari/537.36","Macintosh","Chrome","116.0.0.0","OS X","10_15_7","https://hz8g1ckzuq.cognition.run/","en-US,en;q=0.9","jwdhaj97wvrfnmb","24","[""Asian""]","No","Female","962011.0000000002","null","","<p></p>","null","choice","tcd","attraction_1","2","laptops","null","null","null","null","null","null","2","","","","","","","","","",""
"","","","","","choice_trial","survey-html-form","113","775111","0.0-5.0-1.14","82","1","2025-04-11 14:36:19","bb671e3ae32f654b8954ea4c4635f915","","Mozilla/5.0 (Macintosh; Intel Mac OS X 10_15_7) AppleWebKit/537.36 (KHTML, like Gecko) Chrome/116.0.0.0 Safari/537.36","Macintosh","Chrome","116.0.0.0","OS X","10_15_7","https://hz8g1ckzuq.cognition.run/","en-US,en;q=0.9","jwdhaj97wvrfnmb","24","[""Asian""]","No","Female","962011.0000000002","3529","","","{""product_choice"":""A""}","choice","tcd","attraction_1","2","laptops","null","null","null","null","null","null","2","50","60","45","60","50","60","Processing speed","Memory (RAM)","",""
"","","","","","choice_trial_setup","html-keyboard-response","114","775426","0.0-5.0-0.15","82","1","2025-04-11 14:36:19","bb671e3ae32f654b8954ea4c4635f915","","Mozilla/5.0 (Macintosh; Intel Mac OS X 10_15_7) AppleWebKit/537.36 (KHTML, like Gecko) Chrome/116.0.0.0 Safari/537.36","Macintosh","Chrome","116.0.0.0","OS X","10_15_7","https://hz8g1ckzuq.cognition.run/","en-US,en;q=0.9","jwdhaj97wvrfnmb","24","[""Asian""]","No","Female","962011.0000000002","null","","<p></p>","null","choice","tdc","attraction_1","1","televisions","null","null","null","null","null","null","2","","","","","","","","","",""
"","","","","","choice_trial","survey-html-form","115","779182","0.0-5.0-1.15","82","1","2025-04-11 14:36:19","bb671e3ae32f654b8954ea4c4635f915","","Mozilla/5.0 (Macintosh; Intel Mac OS X 10_15_7) AppleWebKit/537.36 (KHTML, like Gecko) Chrome/116.0.0.0 Safari/537.36","Macintosh","Chrome","116.0.0.0","OS X","10_15_7","https://hz8g1ckzuq.cognition.run/","en-US,en;q=0.9","jwdhaj97wvrfnmb","24","[""Asian""]","No","Female","962011.0000000002","3744","","","{""product_choice"":""A""}","choice","tdc","attraction_1","1","televisions","null","null","null","null","null","null","2","60","50","60","50","60","45","Screen size","Average lifespan","",""
"","","","","","choice_trial_setup","html-keyboard-response","116","779496","0.0-5.0-0.16","82","1","2025-04-11 14:36:19","bb671e3ae32f654b8954ea4c4635f915","","Mozilla/5.0 (Macintosh; Intel Mac OS X 10_15_7) AppleWebKit/537.36 (KHTML, like Gecko) Chrome/116.0.0.0 Safari/537.36","Macintosh","Chrome","116.0.0.0","OS X","10_15_7","https://hz8g1ckzuq.cognition.run/","en-US,en;q=0.9","jwdhaj97wvrfnmb","24","[""Asian""]","No","Female","962011.0000000002","null","","<p></p>","null","choice","cdt","repulsion_1","1","laptops","null","null","null","null","null","null","2","","","","","","","","","",""
"","","","","","choice_trial","survey-html-form","117","783488","0.0-5.0-1.16","82","1","2025-04-11 14:36:19","bb671e3ae32f654b8954ea4c4635f915","","Mozilla/5.0 (Macintosh; Intel Mac OS X 10_15_7) AppleWebKit/537.36 (KHTML, like Gecko) Chrome/116.0.0.0 Safari/537.36","Macintosh","Chrome","116.0.0.0","OS X","10_15_7","https://hz8g1ckzuq.cognition.run/","en-US,en;q=0.9","jwdhaj97wvrfnmb","24","[""Asian""]","No","Female","962011.0000000002","3981","","","{""product_choice"":""A""}","choice","cdt","repulsion_1","1","laptops","null","null","null","null","null","null","2","100","90","100","30","40","25","Processing speed","Memory (RAM)","",""
"","","","","","choice_trial_setup","html-keyboard-response","118","783802","0.0-5.0-0.17","82","1","2025-04-11 14:36:19","bb671e3ae32f654b8954ea4c4635f915","","Mozilla/5.0 (Macintosh; Intel Mac OS X 10_15_7) AppleWebKit/537.36 (KHTML, like Gecko) Chrome/116.0.0.0 Safari/537.36","Macintosh","Chrome","116.0.0.0","OS X","10_15_7","https://hz8g1ckzuq.cognition.run/","en-US,en;q=0.9","jwdhaj97wvrfnmb","24","[""Asian""]","No","Female","962011.0000000002","null","","<p></p>","null","choice","wwb","catch","null","microwave ovens","70","80","20","40","10","10","2","","","","","","","","","",""
"","","","","","choice_trial","survey-html-form","119","785650","0.0-5.0-1.17","82","1","2025-04-11 14:36:19","bb671e3ae32f654b8954ea4c4635f915","","Mozilla/5.0 (Macintosh; Intel Mac OS X 10_15_7) AppleWebKit/537.36 (KHTML, like Gecko) Chrome/116.0.0.0 Safari/537.36","Macintosh","Chrome","116.0.0.0","OS X","10_15_7","https://hz8g1ckzuq.cognition.run/","en-US,en;q=0.9","jwdhaj97wvrfnmb","24","[""Asian""]","No","Female","962011.0000000002","1835","","","{""product_choice"":""C""}","choice","wwb","catch","null","microwave ovens","70","80","20","40","10","10","2","null","null","null","null","null","null","Warranty","Cooking power","",""
"","","","","","choice_trial_setup","html-keyboard-response","120","785969","0.0-5.0-0.18","82","1","2025-04-11 14:36:19","bb671e3ae32f654b8954ea4c4635f915","","Mozilla/5.0 (Macintosh; Intel Mac OS X 10_15_7) AppleWebKit/537.36 (KHTML, like Gecko) Chrome/116.0.0.0 Safari/537.36","Macintosh","Chrome","116.0.0.0","OS X","10_15_7","https://hz8g1ckzuq.cognition.run/","en-US,en;q=0.9","jwdhaj97wvrfnmb","24","[""Asian""]","No","Female","962011.0000000002","null","","<p></p>","null","choice","tdc","repulsion_2","1","microwave ovens","null","null","null","null","null","null","1","","","","","","","","","",""
"","","","","","choice_trial","survey-html-form","121","789407","0.0-5.0-1.18","82","1","2025-04-11 14:36:19","bb671e3ae32f654b8954ea4c4635f915","","Mozilla/5.0 (Macintosh; Intel Mac OS X 10_15_7) AppleWebKit/537.36 (KHTML, like Gecko) Chrome/116.0.0.0 Safari/537.36","Macintosh","Chrome","116.0.0.0","OS X","10_15_7","https://hz8g1ckzuq.cognition.run/","en-US,en;q=0.9","jwdhaj97wvrfnmb","24","[""Asian""]","No","Female","962011.0000000002","3427","","","{""product_choice"":""C""}","choice","tdc","repulsion_2","1","microwave ovens","null","null","null","null","null","null","1","100","90","100","30","40","20","Warranty","Cooking power","",""
"","","","","","choice_trial_setup","html-keyboard-response","122","789724","0.0-5.0-0.19","82","1","2025-04-11 14:36:19","bb671e3ae32f654b8954ea4c4635f915","","Mozilla/5.0 (Macintosh; Intel Mac OS X 10_15_7) AppleWebKit/537.36 (KHTML, like Gecko) Chrome/116.0.0.0 Safari/537.36","Macintosh","Chrome","116.0.0.0","OS X","10_15_7","https://hz8g1ckzuq.cognition.run/","en-US,en;q=0.9","jwdhaj97wvrfnmb","24","[""Asian""]","No","Female","962011.0000000002","null","","<p></p>","null","choice","dct","attraction_1","2","televisions","null","null","null","null","null","null","2","","","","","","","","","",""
"","","","","","choice_trial","survey-html-form","123","793671","0.0-5.0-1.19","82","1","2025-04-11 14:36:19","bb671e3ae32f654b8954ea4c4635f915","","Mozilla/5.0 (Macintosh; Intel Mac OS X 10_15_7) AppleWebKit/537.36 (KHTML, like Gecko) Chrome/116.0.0.0 Safari/537.36","Macintosh","Chrome","116.0.0.0","OS X","10_15_7","https://hz8g1ckzuq.cognition.run/","en-US,en;q=0.9","jwdhaj97wvrfnmb","24","[""Asian""]","No","Female","962011.0000000002","3935","","","{""product_choice"":""B""}","choice","dct","attraction_1","2","televisions","null","null","null","null","null","null","2","50","60","45","60","50","60","Screen size","Average lifespan","",""
"","","","","","choice_trial_setup","html-keyboard-response","124","793985","0.0-5.0-0.20","82","1","2025-04-11 14:36:19","bb671e3ae32f654b8954ea4c4635f915","","Mozilla/5.0 (Macintosh; Intel Mac OS X 10_15_7) AppleWebKit/537.36 (KHTML, like Gecko) Chrome/116.0.0.0 Safari/537.36","Macintosh","Chrome","116.0.0.0","OS X","10_15_7","https://hz8g1ckzuq.cognition.run/","en-US,en;q=0.9","jwdhaj97wvrfnmb","24","[""Asian""]","No","Female","962011.0000000002","null","","<p></p>","null","choice","cdt","repulsion_1","2","washing machines","null","null","null","null","null","null","1","","","","","","","","","",""
"","","","","","choice_trial","survey-html-form","125","796140","0.0-5.0-1.20","82","1","2025-04-11 14:36:19","bb671e3ae32f654b8954ea4c4635f915","","Mozilla/5.0 (Macintosh; Intel Mac OS X 10_15_7) AppleWebKit/537.36 (KHTML, like Gecko) Chrome/116.0.0.0 Safari/537.36","Macintosh","Chrome","116.0.0.0","OS X","10_15_7","https://hz8g1ckzuq.cognition.run/","en-US,en;q=0.9","jwdhaj97wvrfnmb","24","[""Asian""]","No","Female","962011.0000000002","2144","","","{""product_choice"":""A""}","choice","cdt","repulsion_1","2","washing machines","null","null","null","null","null","null","1","30","40","25","100","90","100","Average lifespan","Energy savings","",""
"","","","","","choice_trial_setup","html-keyboard-response","126","796458","0.0-5.0-0.21","82","1","2025-04-11 14:36:19","bb671e3ae32f654b8954ea4c4635f915","","Mozilla/5.0 (Macintosh; Intel Mac OS X 10_15_7) AppleWebKit/537.36 (KHTML, like Gecko) Chrome/116.0.0.0 Safari/537.36","Macintosh","Chrome","116.0.0.0","OS X","10_15_7","https://hz8g1ckzuq.cognition.run/","en-US,en;q=0.9","jwdhaj97wvrfnmb","24","[""Asian""]","No","Female","962011.0000000002","null","","<p></p>","null","choice","ctd","repulsion_1","2","laptops","null","null","null","null","null","null","2","","","","","","","","","",""
"","","","","","choice_trial","survey-html-form","127","799290","0.0-5.0-1.21","82","1","2025-04-11 14:36:19","bb671e3ae32f654b8954ea4c4635f915","","Mozilla/5.0 (Macintosh; Intel Mac OS X 10_15_7) AppleWebKit/537.36 (KHTML, like Gecko) Chrome/116.0.0.0 Safari/537.36","Macintosh","Chrome","116.0.0.0","OS X","10_15_7","https://hz8g1ckzuq.cognition.run/","en-US,en;q=0.9","jwdhaj97wvrfnmb","24","[""Asian""]","No","Female","962011.0000000002","2819","","","{""product_choice"":""A""}","choice","ctd","repulsion_1","2","laptops","null","null","null","null","null","null","2","30","40","25","100","90","100","Processing speed","Memory (RAM)","",""
"","","","","","choice_trial_setup","html-keyboard-response","128","799611","0.0-5.0-0.22","82","1","2025-04-11 14:36:19","bb671e3ae32f654b8954ea4c4635f915","","Mozilla/5.0 (Macintosh; Intel Mac OS X 10_15_7) AppleWebKit/537.36 (KHTML, like Gecko) Chrome/116.0.0.0 Safari/537.36","Macintosh","Chrome","116.0.0.0","OS X","10_15_7","https://hz8g1ckzuq.cognition.run/","en-US,en;q=0.9","jwdhaj97wvrfnmb","24","[""Asian""]","No","Female","962011.0000000002","null","","<p></p>","null","choice","cdt","repulsion_2","2","microwave ovens","null","null","null","null","null","null","1","","","","","","","","","",""
"","","","","","choice_trial","survey-html-form","129","801742","0.0-5.0-1.22","82","1","2025-04-11 14:36:19","bb671e3ae32f654b8954ea4c4635f915","","Mozilla/5.0 (Macintosh; Intel Mac OS X 10_15_7) AppleWebKit/537.36 (KHTML, like Gecko) Chrome/116.0.0.0 Safari/537.36","Macintosh","Chrome","116.0.0.0","OS X","10_15_7","https://hz8g1ckzuq.cognition.run/","en-US,en;q=0.9","jwdhaj97wvrfnmb","24","[""Asian""]","No","Female","962011.0000000002","2119","","","{""product_choice"":""A""}","choice","cdt","repulsion_2","2","microwave ovens","null","null","null","null","null","null","1","30","40","20","100","90","100","Warranty","Cooking power","",""
"","","","","","choice_trial_setup","html-keyboard-response","130","802060","0.0-5.0-0.23","82","1","2025-04-11 14:36:19","bb671e3ae32f654b8954ea4c4635f915","","Mozilla/5.0 (Macintosh; Intel Mac OS X 10_15_7) AppleWebKit/537.36 (KHTML, like Gecko) Chrome/116.0.0.0 Safari/537.36","Macintosh","Chrome","116.0.0.0","OS X","10_15_7","https://hz8g1ckzuq.cognition.run/","en-US,en;q=0.9","jwdhaj97wvrfnmb","24","[""Asian""]","No","Female","962011.0000000002","null","","<p></p>","null","choice","cdt","attraction_1","2","washing machines","null","null","null","null","null","null","2","","","","","","","","","",""
"","","","","","choice_trial","survey-html-form","131","810939","0.0-5.0-1.23","82","1","2025-04-11 14:36:19","bb671e3ae32f654b8954ea4c4635f915","","Mozilla/5.0 (Macintosh; Intel Mac OS X 10_15_7) AppleWebKit/537.36 (KHTML, like Gecko) Chrome/116.0.0.0 Safari/537.36","Macintosh","Chrome","116.0.0.0","OS X","10_15_7","https://hz8g1ckzuq.cognition.run/","en-US,en;q=0.9","jwdhaj97wvrfnmb","24","[""Asian""]","No","Female","962011.0000000002","8866","","","{""product_choice"":""A""}","choice","cdt","attraction_1","2","washing machines","null","null","null","null","null","null","2","50","60","45","60","50","60","Average lifespan","Energy savings","",""
"","","","","","choice_trial_setup","html-keyboard-response","132","811262","0.0-5.0-0.24","82","1","2025-04-11 14:36:19","bb671e3ae32f654b8954ea4c4635f915","","Mozilla/5.0 (Macintosh; Intel Mac OS X 10_15_7) AppleWebKit/537.36 (KHTML, like Gecko) Chrome/116.0.0.0 Safari/537.36","Macintosh","Chrome","116.0.0.0","OS X","10_15_7","https://hz8g1ckzuq.cognition.run/","en-US,en;q=0.9","jwdhaj97wvrfnmb","24","[""Asian""]","No","Female","962011.0000000002","null","","<p></p>","null","choice","wwb","catch","null","washing machines","85","65","5","50","30","45","1","","","","","","","","","",""
"","","","","","choice_trial","survey-html-form","133","814207","0.0-5.0-1.24","82","1","2025-04-11 14:36:19","bb671e3ae32f654b8954ea4c4635f915","","Mozilla/5.0 (Macintosh; Intel Mac OS X 10_15_7) AppleWebKit/537.36 (KHTML, like Gecko) Chrome/116.0.0.0 Safari/537.36","Macintosh","Chrome","116.0.0.0","OS X","10_15_7","https://hz8g1ckzuq.cognition.run/","en-US,en;q=0.9","jwdhaj97wvrfnmb","24","[""Asian""]","No","Female","962011.0000000002","2933","","","{""product_choice"":""C""}","choice","wwb","catch","null","washing machines","85","65","5","50","30","45","1","null","null","null","null","null","null","Average lifespan","Energy savings","",""
"","","","","","choice_trial_setup","html-keyboard-response","134","814522","0.0-5.0-0.25","82","1","2025-04-11 14:36:19","bb671e3ae32f654b8954ea4c4635f915","","Mozilla/5.0 (Macintosh; Intel Mac OS X 10_15_7) AppleWebKit/537.36 (KHTML, like Gecko) Chrome/116.0.0.0 Safari/537.36","Macintosh","Chrome","116.0.0.0","OS X","10_15_7","https://hz8g1ckzuq.cognition.run/","en-US,en;q=0.9","jwdhaj97wvrfnmb","24","[""Asian""]","No","Female","962011.0000000002","null","","<p></p>","null","choice","cdt","repulsion_2","2","televisions","null","null","null","null","null","null","1","","","","","","","","","",""
"","","","","","choice_trial","survey-html-form","135","817129","0.0-5.0-1.25","82","1","2025-04-11 14:36:19","bb671e3ae32f654b8954ea4c4635f915","","Mozilla/5.0 (Macintosh; Intel Mac OS X 10_15_7) AppleWebKit/537.36 (KHTML, like Gecko) Chrome/116.0.0.0 Safari/537.36","Macintosh","Chrome","116.0.0.0","OS X","10_15_7","https://hz8g1ckzuq.cognition.run/","en-US,en;q=0.9","jwdhaj97wvrfnmb","24","[""Asian""]","No","Female","962011.0000000002","2595","","","{""product_choice"":""A""}","choice","cdt","repulsion_2","2","televisions","null","null","null","null","null","null","1","30","40","20","100","90","100","Screen size","Average lifespan","",""
"","","","","","choice_trial_setup","html-keyboard-response","136","817450","0.0-5.0-0.26","82","1","2025-04-11 14:36:19","bb671e3ae32f654b8954ea4c4635f915","","Mozilla/5.0 (Macintosh; Intel Mac OS X 10_15_7) AppleWebKit/537.36 (KHTML, like Gecko) Chrome/116.0.0.0 Safari/537.36","Macintosh","Chrome","116.0.0.0","OS X","10_15_7","https://hz8g1ckzuq.cognition.run/","en-US,en;q=0.9","jwdhaj97wvrfnmb","24","[""Asian""]","No","Female","962011.0000000002","null","","<p></p>","null","choice","ctd","repulsion_1","1","washing machines","null","null","null","null","null","null","1","","","","","","","","","",""
"","","","","","choice_trial","survey-html-form","137","819695","0.0-5.0-1.26","82","1","2025-04-11 14:36:19","bb671e3ae32f654b8954ea4c4635f915","","Mozilla/5.0 (Macintosh; Intel Mac OS X 10_15_7) AppleWebKit/537.36 (KHTML, like Gecko) Chrome/116.0.0.0 Safari/537.36","Macintosh","Chrome","116.0.0.0","OS X","10_15_7","https://hz8g1ckzuq.cognition.run/","en-US,en;q=0.9","jwdhaj97wvrfnmb","24","[""Asian""]","No","Female","962011.0000000002","2232","","","{""product_choice"":""A""}","choice","ctd","repulsion_1","1","washing machines","null","null","null","null","null","null","1","100","90","100","30","40","25","Average lifespan","Energy savings","",""
"","","","","","choice_trial_setup","html-keyboard-response","138","820010","0.0-5.0-0.27","82","1","2025-04-11 14:36:19","bb671e3ae32f654b8954ea4c4635f915","","Mozilla/5.0 (Macintosh; Intel Mac OS X 10_15_7) AppleWebKit/537.36 (KHTML, like Gecko) Chrome/116.0.0.0 Safari/537.36","Macintosh","Chrome","116.0.0.0","OS X","10_15_7","https://hz8g1ckzuq.cognition.run/","en-US,en;q=0.9","jwdhaj97wvrfnmb","24","[""Asian""]","No","Female","962011.0000000002","null","","<p></p>","null","choice","dtc","repulsion_1","2","microwave ovens","null","null","null","null","null","null","1","","","","","","","","","",""
"","","","","","choice_trial","survey-html-form","139","822018","0.0-5.0-1.27","82","1","2025-04-11 14:36:19","bb671e3ae32f654b8954ea4c4635f915","","Mozilla/5.0 (Macintosh; Intel Mac OS X 10_15_7) AppleWebKit/537.36 (KHTML, like Gecko) Chrome/116.0.0.0 Safari/537.36","Macintosh","Chrome","116.0.0.0","OS X","10_15_7","https://hz8g1ckzuq.cognition.run/","en-US,en;q=0.9","jwdhaj97wvrfnmb","24","[""Asian""]","No","Female","962011.0000000002","1996","","","{""product_choice"":""C""}","choice","dtc","repulsion_1","2","microwave ovens","null","null","null","null","null","null","1","30","40","25","100","90","100","Warranty","Cooking power","",""
"","","","","","choice_trial_setup","html-keyboard-response","140","822338","0.0-5.0-0.28","82","1","2025-04-11 14:36:19","bb671e3ae32f654b8954ea4c4635f915","","Mozilla/5.0 (Macintosh; Intel Mac OS X 10_15_7) AppleWebKit/537.36 (KHTML, like Gecko) Chrome/116.0.0.0 Safari/537.36","Macintosh","Chrome","116.0.0.0","OS X","10_15_7","https://hz8g1ckzuq.cognition.run/","en-US,en;q=0.9","jwdhaj97wvrfnmb","24","[""Asian""]","No","Female","962011.0000000002","null","","<p></p>","null","choice","tdc","repulsion_2","1","televisions","null","null","null","null","null","null","2","","","","","","","","","",""
"","","","","","choice_trial","survey-html-form","141","823935","0.0-5.0-1.28","82","1","2025-04-11 14:36:19","bb671e3ae32f654b8954ea4c4635f915","","Mozilla/5.0 (Macintosh; Intel Mac OS X 10_15_7) AppleWebKit/537.36 (KHTML, like Gecko) Chrome/116.0.0.0 Safari/537.36","Macintosh","Chrome","116.0.0.0","OS X","10_15_7","https://hz8g1ckzuq.cognition.run/","en-US,en;q=0.9","jwdhaj97wvrfnmb","24","[""Asian""]","No","Female","962011.0000000002","1586","","","{""product_choice"":""C""}","choice","tdc","repulsion_2","1","televisions","null","null","null","null","null","null","2","100","90","100","30","40","20","Screen size","Average lifespan","",""
"","","","","","choice_trial_setup","html-keyboard-response","142","824254","0.0-5.0-0.29","82","1","2025-04-11 14:36:19","bb671e3ae32f654b8954ea4c4635f915","","Mozilla/5.0 (Macintosh; Intel Mac OS X 10_15_7) AppleWebKit/537.36 (KHTML, like Gecko) Chrome/116.0.0.0 Safari/537.36","Macintosh","Chrome","116.0.0.0","OS X","10_15_7","https://hz8g1ckzuq.cognition.run/","en-US,en;q=0.9","jwdhaj97wvrfnmb","24","[""Asian""]","No","Female","962011.0000000002","null","","<p></p>","null","choice","bww","catch","null","laptops","90","95","15","35","25","40","2","","","","","","","","","",""
"","","","","","choice_trial","survey-html-form","143","825960","0.0-5.0-1.29","82","1","2025-04-11 14:36:19","bb671e3ae32f654b8954ea4c4635f915","","Mozilla/5.0 (Macintosh; Intel Mac OS X 10_15_7) AppleWebKit/537.36 (KHTML, like Gecko) Chrome/116.0.0.0 Safari/537.36","Macintosh","Chrome","116.0.0.0","OS X","10_15_7","https://hz8g1ckzuq.cognition.run/","en-US,en;q=0.9","jwdhaj97wvrfnmb","24","[""Asian""]","No","Female","962011.0000000002","1694","","","{""product_choice"":""A""}","choice","bww","catch","null","laptops","90","95","15","35","25","40","2","null","null","null","null","null","null","Processing speed","Memory (RAM)","",""
"","","","","","choice_trial_setup","html-keyboard-response","144","826274","0.0-5.0-0.30","82","1","2025-04-11 14:36:19","bb671e3ae32f654b8954ea4c4635f915","","Mozilla/5.0 (Macintosh; Intel Mac OS X 10_15_7) AppleWebKit/537.36 (KHTML, like Gecko) Chrome/116.0.0.0 Safari/537.36","Macintosh","Chrome","116.0.0.0","OS X","10_15_7","https://hz8g1ckzuq.cognition.run/","en-US,en;q=0.9","jwdhaj97wvrfnmb","24","[""Asian""]","No","Female","962011.0000000002","null","","<p></p>","null","choice","dtc","attraction_2","1","microwave ovens","null","null","null","null","null","null","2","","","","","","","","","",""
"","","","","","choice_trial","survey-html-form","145","829273","0.0-5.0-1.30","82","1","2025-04-11 14:36:19","bb671e3ae32f654b8954ea4c4635f915","","Mozilla/5.0 (Macintosh; Intel Mac OS X 10_15_7) AppleWebKit/537.36 (KHTML, like Gecko) Chrome/116.0.0.0 Safari/537.36","Macintosh","Chrome","116.0.0.0","OS X","10_15_7","https://hz8g1ckzuq.cognition.run/","en-US,en;q=0.9","jwdhaj97wvrfnmb","24","[""Asian""]","No","Female","962011.0000000002","2987","","","{""product_choice"":""C""}","choice","dtc","attraction_2","1","microwave ovens","null","null","null","null","null","null","2","60","50","60","50","60","40","Warranty","Cooking power","",""
"","","","","","choice_trial_setup","html-keyboard-response","146","829589","0.0-5.0-0.31","82","1","2025-04-11 14:36:19","bb671e3ae32f654b8954ea4c4635f915","","Mozilla/5.0 (Macintosh; Intel Mac OS X 10_15_7) AppleWebKit/537.36 (KHTML, like Gecko) Chrome/116.0.0.0 Safari/537.36","Macintosh","Chrome","116.0.0.0","OS X","10_15_7","https://hz8g1ckzuq.cognition.run/","en-US,en;q=0.9","jwdhaj97wvrfnmb","24","[""Asian""]","No","Female","962011.0000000002","null","","<p></p>","null","choice","bww","catch","null","washing machines","65","50","40","45","10","50","2","","","","","","","","","",""
"","","","","","choice_trial","survey-html-form","147","832161","0.0-5.0-1.31","82","1","2025-04-11 14:36:19","bb671e3ae32f654b8954ea4c4635f915","","Mozilla/5.0 (Macintosh; Intel Mac OS X 10_15_7) AppleWebKit/537.36 (KHTML, like Gecko) Chrome/116.0.0.0 Safari/537.36","Macintosh","Chrome","116.0.0.0","OS X","10_15_7","https://hz8g1ckzuq.cognition.run/","en-US,en;q=0.9","jwdhaj97wvrfnmb","24","[""Asian""]","No","Female","962011.0000000002","2559","","","{""product_choice"":""A""}","choice","bww","catch","null","washing machines","65","50","40","45","10","50","2","null","null","null","null","null","null","Average lifespan","Energy savings","",""
"","","","","","choice_trial_setup","html-keyboard-response","148","832476","0.0-5.0-0.32","82","1","2025-04-11 14:36:19","bb671e3ae32f654b8954ea4c4635f915","","Mozilla/5.0 (Macintosh; Intel Mac OS X 10_15_7) AppleWebKit/537.36 (KHTML, like Gecko) Chrome/116.0.0.0 Safari/537.36","Macintosh","Chrome","116.0.0.0","OS X","10_15_7","https://hz8g1ckzuq.cognition.run/","en-US,en;q=0.9","jwdhaj97wvrfnmb","24","[""Asian""]","No","Female","962011.0000000002","null","","<p></p>","null","choice","dct","attraction_1","1","washing machines","null","null","null","null","null","null","1","","","","","","","","","",""
"","","","","","choice_trial","survey-html-form","149","835488","0.0-5.0-1.32","82","1","2025-04-11 14:36:19","bb671e3ae32f654b8954ea4c4635f915","","Mozilla/5.0 (Macintosh; Intel Mac OS X 10_15_7) AppleWebKit/537.36 (KHTML, like Gecko) Chrome/116.0.0.0 Safari/537.36","Macintosh","Chrome","116.0.0.0","OS X","10_15_7","https://hz8g1ckzuq.cognition.run/","en-US,en;q=0.9","jwdhaj97wvrfnmb","24","[""Asian""]","No","Female","962011.0000000002","3000","","","{""product_choice"":""C""}","choice","dct","attraction_1","1","washing machines","null","null","null","null","null","null","1","60","50","60","50","60","45","Average lifespan","Energy savings","",""
"","","","","","choice_trial_setup","html-keyboard-response","150","835802","0.0-5.0-0.33","82","1","2025-04-11 14:36:19","bb671e3ae32f654b8954ea4c4635f915","","Mozilla/5.0 (Macintosh; Intel Mac OS X 10_15_7) AppleWebKit/537.36 (KHTML, like Gecko) Chrome/116.0.0.0 Safari/537.36","Macintosh","Chrome","116.0.0.0","OS X","10_15_7","https://hz8g1ckzuq.cognition.run/","en-US,en;q=0.9","jwdhaj97wvrfnmb","24","[""Asian""]","No","Female","962011.0000000002","null","","<p></p>","null","choice","tcd","attraction_1","1","laptops","null","null","null","null","null","null","2","","","","","","","","","",""
"","","","","","choice_trial","survey-html-form","151","839851","0.0-5.0-1.33","82","1","2025-04-11 14:36:19","bb671e3ae32f654b8954ea4c4635f915","","Mozilla/5.0 (Macintosh; Intel Mac OS X 10_15_7) AppleWebKit/537.36 (KHTML, like Gecko) Chrome/116.0.0.0 Safari/537.36","Macintosh","Chrome","116.0.0.0","OS X","10_15_7","https://hz8g1ckzuq.cognition.run/","en-US,en;q=0.9","jwdhaj97wvrfnmb","24","[""Asian""]","No","Female","962011.0000000002","4037","","","{""product_choice"":""B""}","choice","tcd","attraction_1","1","laptops","null","null","null","null","null","null","2","60","50","60","50","60","45","Processing speed","Memory (RAM)","",""
"","","","","","choice_trial_setup","html-keyboard-response","152","840171","0.0-5.0-0.34","82","1","2025-04-11 14:36:19","bb671e3ae32f654b8954ea4c4635f915","","Mozilla/5.0 (Macintosh; Intel Mac OS X 10_15_7) AppleWebKit/537.36 (KHTML, like Gecko) Chrome/116.0.0.0 Safari/537.36","Macintosh","Chrome","116.0.0.0","OS X","10_15_7","https://hz8g1ckzuq.cognition.run/","en-US,en;q=0.9","jwdhaj97wvrfnmb","24","[""Asian""]","No","Female","962011.0000000002","null","","<p></p>","null","choice","tdc","repulsion_2","1","laptops","null","null","null","null","null","null","2","","","","","","","","","",""
"","","","","","choice_trial","survey-html-form","153","842886","0.0-5.0-1.34","82","1","2025-04-11 14:36:19","bb671e3ae32f654b8954ea4c4635f915","","Mozilla/5.0 (Macintosh; Intel Mac OS X 10_15_7) AppleWebKit/537.36 (KHTML, like Gecko) Chrome/116.0.0.0 Safari/537.36","Macintosh","Chrome","116.0.0.0","OS X","10_15_7","https://hz8g1ckzuq.cognition.run/","en-US,en;q=0.9","jwdhaj97wvrfnmb","24","[""Asian""]","No","Female","962011.0000000002","2703","","","{""product_choice"":""C""}","choice","tdc","repulsion_2","1","laptops","null","null","null","null","null","null","2","100","90","100","30","40","20","Processing speed","Memory (RAM)","",""
"","","","","","choice_trial_setup","html-keyboard-response","154","843207","0.0-5.0-0.35","82","1","2025-04-11 14:36:19","bb671e3ae32f654b8954ea4c4635f915","","Mozilla/5.0 (Macintosh; Intel Mac OS X 10_15_7) AppleWebKit/537.36 (KHTML, like Gecko) Chrome/116.0.0.0 Safari/537.36","Macintosh","Chrome","116.0.0.0","OS X","10_15_7","https://hz8g1ckzuq.cognition.run/","en-US,en;q=0.9","jwdhaj97wvrfnmb","24","[""Asian""]","No","Female","962011.0000000002","null","","<p></p>","null","choice","tcd","repulsion_2","1","washing machines","null","null","null","null","null","null","2","","","","","","","","","",""
"","","","","","choice_trial","survey-html-form","155","847209","0.0-5.0-1.35","82","1","2025-04-11 14:36:19","bb671e3ae32f654b8954ea4c4635f915","","Mozilla/5.0 (Macintosh; Intel Mac OS X 10_15_7) AppleWebKit/537.36 (KHTML, like Gecko) Chrome/116.0.0.0 Safari/537.36","Macintosh","Chrome","116.0.0.0","OS X","10_15_7","https://hz8g1ckzuq.cognition.run/","en-US,en;q=0.9","jwdhaj97wvrfnmb","24","[""Asian""]","No","Female","962011.0000000002","3989","","","{""product_choice"":""B""}","choice","tcd","repulsion_2","1","washing machines","null","null","null","null","null","null","2","100","90","100","30","40","20","Average lifespan","Energy savings","",""
