"success","timeout","failed_images","failed_audio","failed_video","screen_id","trial_type","trial_index","time_elapsed","internal_node_id","run_id","condition","recorded_at","source_code_version","ip","user_agent","device","browser","browser_version","platform","platform_version","referer","accept_language","ppt_id","age","race","ethnicity","gender","exp_duration","rt","view_history","stimulus","response","phase","order","effect","t_high","category","d1_best","d2_best","d1_worst1","d2_worst1","d1_worst2","d2_worst2","first_dim","d1_t","d1_c","d1_d","d2_t","d2_c","d2_d","d1_name","d2_name","strategy_response","question_order"
"true","false","[]","[]","[]","img preload","preload","0","124","0.0-0.0","83","1","2025-04-11 14:36:27","bb671e3ae32f654b8954ea4c4635f915","","Mozilla/5.0 (Macintosh; Intel Mac OS X 10_15_7) AppleWebKit/537.36 (KHTML, like Gecko) Chrome/134.0.0.0 Safari/537.36","Macintosh","Chrome","134.0.0.0","OS X","10_15_7","https://hz8g1ckzuq.cognition.run/","en-US,en;q=0.9","w0gdh3x8zg54jh0","39","[""White""]","No","Female","3513237.4000000358","","","","","","","","","","","","","","","","","","","","","","","","","",""
"true","","","","","","fullscreen","1","29091","0.0-1.0","83","1","2025-04-11 14:36:27","bb671e3ae32f654b8954ea4c4635f915","","Mozilla/5.0 (Macintosh; Intel Mac OS X 10_15_7) AppleWebKit/537.36 (KHTML, like Gecko) Chrome/134.0.0.0 Safari/537.36","Macintosh","Chrome","134.0.0.0","OS X","10_15_7","https://hz8g1ckzuq.cognition.run/","en-US,en;q=0.9","w0gdh3x8zg54jh0","39","[""White""]","No","Female","3513237.4000000358","27964","","","","","","","","","","","","","","","","","","","","","","","","",""
"","","","","","","instructions","2","309123","0.0-2.0","83","1","2025-04-11 14:36:27","bb671e3ae32f654b8954ea4c4635f915","","Mozilla/5.0 (Macintosh; Intel Mac OS X 10_15_7) AppleWebKit/537.36 (KHTML, like Gecko) Chrome/134.0.0.0 Safari/537.36","Macintosh","Chrome","134.0.0.0","OS X","10_15_7","https://hz8g1ckzuq.cognition.run/","en-US,en;q=0.9","w0gdh3x8zg54jh0","39","[""White""]","No","Female","3513237.4000000358","280031","[{""page_index"":0,""viewing_time"":1181},{""page_index"":1,""viewing_time"":5427},{""page_index"":2,""viewing_time"":47675},{""page_index"":3,""viewing_time"":9354},{""page_index"":4,""viewing_time"":10808},{""page_index"":5,""viewing_time"":8142},{""page_index"":6,""viewing_time"":14624},{""page_index"":7,""viewing_time"":161495},{""page_index"":8,""viewing_time"":5442},{""page_index"":9,""viewing_time"":15883}]","","","","","","","","","","","","","","","","","","","","","","","",""
"","","","","","rating_trial_setup","html-keyboard-response","3","309427","0.0-3.0-0.0","83","1","2025-04-11 14:36:27","bb671e3ae32f654b8954ea4c4635f915","","Mozilla/5.0 (Macintosh; Intel Mac OS X 10_15_7) AppleWebKit/537.36 (KHTML, like Gecko) Chrome/134.0.0.0 Safari/537.36","Macintosh","Chrome","134.0.0.0","OS X","10_15_7","https://hz8g1ckzuq.cognition.run/","en-US,en;q=0.9","w0gdh3x8zg54jh0","39","[""White""]","No","Female","3513237.4000000358","null","","<p></p>","null","rating","ctd","attraction_2","2","televisions","null","null","null","null","null","null","1","","","","","","","","","",""
"","","","","","rating_trial","survey-html-form","4","354872","0.0-3.0-1.0","83","1","2025-04-11 14:36:27","bb671e3ae32f654b8954ea4c4635f915","","Mozilla/5.0 (Macintosh; Intel Mac OS X 10_15_7) AppleWebKit/537.36 (KHTML, like Gecko) Chrome/134.0.0.0 Safari/537.36","Macintosh","Chrome","134.0.0.0","OS X","10_15_7","https://hz8g1ckzuq.cognition.run/","en-US,en;q=0.9","w0gdh3x8zg54jh0","39","[""White""]","No","Female","3513237.4000000358","45442","","","{""price_1"":""200"",""price_2"":""100"",""price_3"":""85""}","rating","ctd","attraction_2","2","televisions","null","null","null","null","null","null","1","50","60","40","60","50","60","Screen size","Average lifespan","",""
"","","","","","rating_trial_setup","html-keyboard-response","5","355175","0.0-3.0-0.1","83","1","2025-04-11 14:36:27","bb671e3ae32f654b8954ea4c4635f915","","Mozilla/5.0 (Macintosh; Intel Mac OS X 10_15_7) AppleWebKit/537.36 (KHTML, like Gecko) Chrome/134.0.0.0 Safari/537.36","Macintosh","Chrome","134.0.0.0","OS X","10_15_7","https://hz8g1ckzuq.cognition.run/","en-US,en;q=0.9","w0gdh3x8zg54jh0","39","[""White""]","No","Female","3513237.4000000358","null","","<p></p>","null","rating","dct","attraction_2","1","washing machines","null","null","null","null","null","null","1","","","","","","","","","",""
"","","","","","rating_trial","survey-html-form","6","447126","0.0-3.0-1.1","83","1","2025-04-11 14:36:27","bb671e3ae32f654b8954ea4c4635f915","","Mozilla/5.0 (Macintosh; Intel Mac OS X 10_15_7) AppleWebKit/537.36 (KHTML, like Gecko) Chrome/134.0.0.0 Safari/537.36","Macintosh","Chrome","134.0.0.0","OS X","10_15_7","https://hz8g1ckzuq.cognition.run/","en-US,en;q=0.9","w0gdh3x8zg54jh0","39","[""White""]","No","Female","3513237.4000000358","91948","","","{""price_1"":""300"",""price_2"":""375"",""price_3"":""350""}","rating","dct","attraction_2","1","washing machines","null","null","null","null","null","null","1","60","50","60","50","60","40","Average lifespan","Energy savings","",""
"","","","","","rating_trial_setup","html-keyboard-response","7","447429","0.0-3.0-0.2","83","1","2025-04-11 14:36:27","bb671e3ae32f654b8954ea4c4635f915","","Mozilla/5.0 (Macintosh; Intel Mac OS X 10_15_7) AppleWebKit/537.36 (KHTML, like Gecko) Chrome/134.0.0.0 Safari/537.36","Macintosh","Chrome","134.0.0.0","OS X","10_15_7","https://hz8g1ckzuq.cognition.run/","en-US,en;q=0.9","w0gdh3x8zg54jh0","39","[""White""]","No","Female","3513237.4000000358","null","","<p></p>","null","rating","ctd","repulsion_2","1","washing machines","null","null","null","null","null","null","1","","","","","","","","","",""
"","","","","","rating_trial","survey-html-form","8","492446","0.0-3.0-1.2","83","1","2025-04-11 14:36:27","bb671e3ae32f654b8954ea4c4635f915","","Mozilla/5.0 (Macintosh; Intel Mac OS X 10_15_7) AppleWebKit/537.36 (KHTML, like Gecko) Chrome/134.0.0.0 Safari/537.36","Macintosh","Chrome","134.0.0.0","OS X","10_15_7","https://hz8g1ckzuq.cognition.run/","en-US,en;q=0.9","w0gdh3x8zg54jh0","39","[""White""]","No","Female","3513237.4000000358","45014","","","{""price_1"":""270"",""price_2"":""260"",""price_3"":""250""}","rating","ctd","repulsion_2","1","washing machines","null","null","null","null","null","null","1","100","90","100","30","40","20","Average lifespan","Energy savings","",""
"","","","","","rating_trial_setup","html-keyboard-response","9","492749","0.0-3.0-0.3","83","1","2025-04-11 14:36:27","bb671e3ae32f654b8954ea4c4635f915","","Mozilla/5.0 (Macintosh; Intel Mac OS X 10_15_7) AppleWebKit/537.36 (KHTML, like Gecko) Chrome/134.0.0.0 Safari/537.36","Macintosh","Chrome","134.0.0.0","OS X","10_15_7","https://hz8g1ckzuq.cognition.run/","en-US,en;q=0.9","w0gdh3x8zg54jh0","39","[""White""]","No","Female","3513237.4000000358","null","","<p></p>","null","rating","cdt","attraction_2","2","microwave ovens","null","null","null","null","null","null","2","","","","","","","","","",""
"","","","","","rating_trial","survey-html-form","10","562616","0.0-3.0-1.3","83","1","2025-04-11 14:36:27","bb671e3ae32f654b8954ea4c4635f915","","Mozilla/5.0 (Macintosh; Intel Mac OS X 10_15_7) AppleWebKit/537.36 (KHTML, like Gecko) Chrome/134.0.0.0 Safari/537.36","Macintosh","Chrome","134.0.0.0","OS X","10_15_7","https://hz8g1ckzuq.cognition.run/","en-US,en;q=0.9","w0gdh3x8zg54jh0","39","[""White""]","No","Female","3513237.4000000358","69864","","","{""price_1"":""50"",""price_2"":""60"",""price_3"":""65""}","rating","cdt","attraction_2","2","microwave ovens","null","null","null","null","null","null","2","50","60","40","60","50","60","Warranty","Cooking power","",""
"","","","","","rating_trial_setup","html-keyboard-response","11","562918","0.0-3.0-0.4","83","1","2025-04-11 14:36:27","bb671e3ae32f654b8954ea4c4635f915","","Mozilla/5.0 (Macintosh; Intel Mac OS X 10_15_7) AppleWebKit/537.36 (KHTML, like Gecko) Chrome/134.0.0.0 Safari/537.36","Macintosh","Chrome","134.0.0.0","OS X","10_15_7","https://hz8g1ckzuq.cognition.run/","en-US,en;q=0.9","w0gdh3x8zg54jh0","39","[""White""]","No","Female","3513237.4000000358","null","","<p></p>","null","rating","tdc","attraction_2","1","microwave ovens","null","null","null","null","null","null","1","","","","","","","","","",""
"","","","","","rating_trial","survey-html-form","12","603120","0.0-3.0-1.4","83","1","2025-04-11 14:36:27","bb671e3ae32f654b8954ea4c4635f915","","Mozilla/5.0 (Macintosh; Intel Mac OS X 10_15_7) AppleWebKit/537.36 (KHTML, like Gecko) Chrome/134.0.0.0 Safari/537.36","Macintosh","Chrome","134.0.0.0","OS X","10_15_7","https://hz8g1ckzuq.cognition.run/","en-US,en;q=0.9","w0gdh3x8zg54jh0","39","[""White""]","No","Female","3513237.4000000358","40199","","","{""price_1"":""60"",""price_2"":""50"",""price_3"":""60""}","rating","tdc","attraction_2","1","microwave ovens","null","null","null","null","null","null","1","60","50","60","50","60","40","Warranty","Cooking power","",""
"","","","","","rating_trial_setup","html-keyboard-response","13","603423","0.0-3.0-0.5","83","1","2025-04-11 14:36:27","bb671e3ae32f654b8954ea4c4635f915","","Mozilla/5.0 (Macintosh; Intel Mac OS X 10_15_7) AppleWebKit/537.36 (KHTML, like Gecko) Chrome/134.0.0.0 Safari/537.36","Macintosh","Chrome","134.0.0.0","OS X","10_15_7","https://hz8g1ckzuq.cognition.run/","en-US,en;q=0.9","w0gdh3x8zg54jh0","39","[""White""]","No","Female","3513237.4000000358","null","","<p></p>","null","rating","cdt","attraction_1","2","microwave ovens","null","null","null","null","null","null","1","","","","","","","","","",""
"","","","","","rating_trial","survey-html-form","14","645978","0.0-3.0-1.5","83","1","2025-04-11 14:36:27","bb671e3ae32f654b8954ea4c4635f915","","Mozilla/5.0 (Macintosh; Intel Mac OS X 10_15_7) AppleWebKit/537.36 (KHTML, like Gecko) Chrome/134.0.0.0 Safari/537.36","Macintosh","Chrome","134.0.0.0","OS X","10_15_7","https://hz8g1ckzuq.cognition.run/","en-US,en;q=0.9","w0gdh3x8zg54jh0","39","[""White""]","No","Female","3513237.4000000358","42551","","","{""price_1"":""50"",""price_2"":""50"",""price_3"":""55""}","rating","cdt","attraction_1","2","microwave ovens","null","null","null","null","null","null","1","50","60","45","60","50","60","Warranty","Cooking power","",""
"","","","","","rating_trial_setup","html-keyboard-response","15","646280","0.0-3.0-0.6","83","1","2025-04-11 14:36:27","bb671e3ae32f654b8954ea4c4635f915","","Mozilla/5.0 (Macintosh; Intel Mac OS X 10_15_7) AppleWebKit/537.36 (KHTML, like Gecko) Chrome/134.0.0.0 Safari/537.36","Macintosh","Chrome","134.0.0.0","OS X","10_15_7","https://hz8g1ckzuq.cognition.run/","en-US,en;q=0.9","w0gdh3x8zg54jh0","39","[""White""]","No","Female","3513237.4000000358","null","","<p></p>","null","rating","tcd","attraction_2","2","washing machines","null","null","null","null","null","null","1","","","","","","","","","",""
"","","","","","rating_trial","survey-html-form","16","744452","0.0-3.0-1.6","83","1","2025-04-11 14:36:27","bb671e3ae32f654b8954ea4c4635f915","","Mozilla/5.0 (Macintosh; Intel Mac OS X 10_15_7) AppleWebKit/537.36 (KHTML, like Gecko) Chrome/134.0.0.0 Safari/537.36","Macintosh","Chrome","134.0.0.0","OS X","10_15_7","https://hz8g1ckzuq.cognition.run/","en-US,en;q=0.9","w0gdh3x8zg54jh0","39","[""White""]","No","Female","3513237.4000000358","98170","","","{""price_1"":""225"",""price_2"":""200"",""price_3"":""215""}","rating","tcd","attraction_2","2","washing machines","null","null","null","null","null","null","1","50","60","40","60","50","60","Average lifespan","Energy savings","",""
"","","","","","rating_trial_setup","html-keyboard-response","17","744756","0.0-3.0-0.7","83","1","2025-04-11 14:36:27","bb671e3ae32f654b8954ea4c4635f915","","Mozilla/5.0 (Macintosh; Intel Mac OS X 10_15_7) AppleWebKit/537.36 (KHTML, like Gecko) Chrome/134.0.0.0 Safari/537.36","Macintosh","Chrome","134.0.0.0","OS X","10_15_7","https://hz8g1ckzuq.cognition.run/","en-US,en;q=0.9","w0gdh3x8zg54jh0","39","[""White""]","No","Female","3513237.4000000358","null","","<p></p>","null","rating","dct","attraction_2","1","televisions","null","null","null","null","null","null","2","","","","","","","","","",""
"","","","","","rating_trial","survey-html-form","18","795010","0.0-3.0-1.7","83","1","2025-04-11 14:36:27","bb671e3ae32f654b8954ea4c4635f915","","Mozilla/5.0 (Macintosh; Intel Mac OS X 10_15_7) AppleWebKit/537.36 (KHTML, like Gecko) Chrome/134.0.0.0 Safari/537.36","Macintosh","Chrome","134.0.0.0","OS X","10_15_7","https://hz8g1ckzuq.cognition.run/","en-US,en;q=0.9","w0gdh3x8zg54jh0","39","[""White""]","No","Female","3513237.4000000358","50251","","","{""price_1"":""175"",""price_2"":""150"",""price_3"":""200""}","rating","dct","attraction_2","1","televisions","null","null","null","null","null","null","2","60","50","60","50","60","40","Screen size","Average lifespan","",""
"","","","","","rating_trial_setup","html-keyboard-response","19","795313","0.0-3.0-0.8","83","1","2025-04-11 14:36:27","bb671e3ae32f654b8954ea4c4635f915","","Mozilla/5.0 (Macintosh; Intel Mac OS X 10_15_7) AppleWebKit/537.36 (KHTML, like Gecko) Chrome/134.0.0.0 Safari/537.36","Macintosh","Chrome","134.0.0.0","OS X","10_15_7","https://hz8g1ckzuq.cognition.run/","en-US,en;q=0.9","w0gdh3x8zg54jh0","39","[""White""]","No","Female","3513237.4000000358","null","","<p></p>","null","rating","wbw","catch","null","washing machines","90","55","35","20","5","20","2","","","","","","","","","",""
"","","","","","rating_trial","survey-html-form","20","837947","0.0-3.0-1.8","83","1","2025-04-11 14:36:27","bb671e3ae32f654b8954ea4c4635f915","","Mozilla/5.0 (Macintosh; Intel Mac OS X 10_15_7) AppleWebKit/537.36 (KHTML, like Gecko) Chrome/134.0.0.0 Safari/537.36","Macintosh","Chrome","134.0.0.0","OS X","10_15_7","https://hz8g1ckzuq.cognition.run/","en-US,en;q=0.9","w0gdh3x8zg54jh0","39","[""White""]","No","Female","3513237.4000000358","42631","","","{""price_1"":""125"",""price_2"":""300"",""price_3"":""50""}","rating","wbw","catch","null","washing machines","90","55","35","20","5","20","2","null","null","null","null","null","null","Average lifespan","Energy savings","",""
"","","","","","rating_trial_setup","html-keyboard-response","21","838250","0.0-3.0-0.9","83","1","2025-04-11 14:36:27","bb671e3ae32f654b8954ea4c4635f915","","Mozilla/5.0 (Macintosh; Intel Mac OS X 10_15_7) AppleWebKit/537.36 (KHTML, like Gecko) Chrome/134.0.0.0 Safari/537.36","Macintosh","Chrome","134.0.0.0","OS X","10_15_7","https://hz8g1ckzuq.cognition.run/","en-US,en;q=0.9","w0gdh3x8zg54jh0","39","[""White""]","No","Female","3513237.4000000358","null","","<p></p>","null","rating","tdc","repulsion_2","1","laptops","null","null","null","null","null","null","2","","","","","","","","","",""
"","","","","","rating_trial","survey-html-form","22","951917","0.0-3.0-1.9","83","1","2025-04-11 14:36:27","bb671e3ae32f654b8954ea4c4635f915","","Mozilla/5.0 (Macintosh; Intel Mac OS X 10_15_7) AppleWebKit/537.36 (KHTML, like Gecko) Chrome/134.0.0.0 Safari/537.36","Macintosh","Chrome","134.0.0.0","OS X","10_15_7","https://hz8g1ckzuq.cognition.run/","en-US,en;q=0.9","w0gdh3x8zg54jh0","39","[""White""]","No","Female","3513237.4000000358","113665","","","{""price_1"":""175"",""price_2"":""100"",""price_3"":""200""}","rating","tdc","repulsion_2","1","laptops","null","null","null","null","null","null","2","100","90","100","30","40","20","Processing speed","Memory (RAM)","",""
"","","","","","rating_trial_setup","html-keyboard-response","23","952220","0.0-3.0-0.10","83","1","2025-04-11 14:36:27","bb671e3ae32f654b8954ea4c4635f915","","Mozilla/5.0 (Macintosh; Intel Mac OS X 10_15_7) AppleWebKit/537.36 (KHTML, like Gecko) Chrome/134.0.0.0 Safari/537.36","Macintosh","Chrome","134.0.0.0","OS X","10_15_7","https://hz8g1ckzuq.cognition.run/","en-US,en;q=0.9","w0gdh3x8zg54jh0","39","[""White""]","No","Female","3513237.4000000358","null","","<p></p>","null","rating","dtc","repulsion_2","2","laptops","null","null","null","null","null","null","1","","","","","","","","","",""
"","","","","","rating_trial","survey-html-form","24","974775","0.0-3.0-1.10","83","1","2025-04-11 14:36:27","bb671e3ae32f654b8954ea4c4635f915","","Mozilla/5.0 (Macintosh; Intel Mac OS X 10_15_7) AppleWebKit/537.36 (KHTML, like Gecko) Chrome/134.0.0.0 Safari/537.36","Macintosh","Chrome","134.0.0.0","OS X","10_15_7","https://hz8g1ckzuq.cognition.run/","en-US,en;q=0.9","w0gdh3x8zg54jh0","39","[""White""]","No","Female","3513237.4000000358","22552","","","{""price_1"":""100"",""price_2"":""150"",""price_3"":""200""}","rating","dtc","repulsion_2","2","laptops","null","null","null","null","null","null","1","30","40","20","100","90","100","Processing speed","Memory (RAM)","",""
"","","","","","rating_trial_setup","html-keyboard-response","25","975078","0.0-3.0-0.11","83","1","2025-04-11 14:36:27","bb671e3ae32f654b8954ea4c4635f915","","Mozilla/5.0 (Macintosh; Intel Mac OS X 10_15_7) AppleWebKit/537.36 (KHTML, like Gecko) Chrome/134.0.0.0 Safari/537.36","Macintosh","Chrome","134.0.0.0","OS X","10_15_7","https://hz8g1ckzuq.cognition.run/","en-US,en;q=0.9","w0gdh3x8zg54jh0","39","[""White""]","No","Female","3513237.4000000358","null","","<p></p>","null","rating","bww","catch","null","televisions","50","80","25","25","20","25","2","","","","","","","","","",""
"","","","","","rating_trial","survey-html-form","26","1034492","0.0-3.0-1.11","83","1","2025-04-11 14:36:27","bb671e3ae32f654b8954ea4c4635f915","","Mozilla/5.0 (Macintosh; Intel Mac OS X 10_15_7) AppleWebKit/537.36 (KHTML, like Gecko) Chrome/134.0.0.0 Safari/537.36","Macintosh","Chrome","134.0.0.0","OS X","10_15_7","https://hz8g1ckzuq.cognition.run/","en-US,en;q=0.9","w0gdh3x8zg54jh0","39","[""White""]","No","Female","3513237.4000000358","59412","","","{""price_1"":""100"",""price_2"":""28"",""price_3"":""25""}","rating","bww","catch","null","televisions","50","80","25","25","20","25","2","null","null","null","null","null","null","Screen size","Average lifespan","",""
"","","","","","rating_trial_setup","html-keyboard-response","27","1034794","0.0-3.0-0.12","83","1","2025-04-11 14:36:27","bb671e3ae32f654b8954ea4c4635f915","","Mozilla/5.0 (Macintosh; Intel Mac OS X 10_15_7) AppleWebKit/537.36 (KHTML, like Gecko) Chrome/134.0.0.0 Safari/537.36","Macintosh","Chrome","134.0.0.0","OS X","10_15_7","https://hz8g1ckzuq.cognition.run/","en-US,en;q=0.9","w0gdh3x8zg54jh0","39","[""White""]","No","Female","3513237.4000000358","null","","<p></p>","null","rating","dtc","repulsion_1","1","televisions","null","null","null","null","null","null","2","","","","","","","","","",""
"","","","","","rating_trial","survey-html-form","28","1082187","0.0-3.0-1.12","83","1","2025-04-11 14:36:27","bb671e3ae32f654b8954ea4c4635f915","","Mozilla/5.0 (Macintosh; Intel Mac OS X 10_15_7) AppleWebKit/537.36 (KHTML, like Gecko) Chrome/134.0.0.0 Safari/537.36","Macintosh","Chrome","134.0.0.0","OS X","10_15_7","https://hz8g1ckzuq.cognition.run/","en-US,en;q=0.9","w0gdh3x8zg54jh0","39","[""White""]","No","Female","3513237.4000000358","47389","","","{""price_1"":""275"",""price_2"":""300"",""price_3"":""200""}","rating","dtc","repulsion_1","1","televisions","null","null","null","null","null","null","2","100","90","100","30","40","25","Screen size","Average lifespan","",""
"","","","","","rating_trial_setup","html-keyboard-response","29","1082490","0.0-3.0-0.13","83","1","2025-04-11 14:36:27","bb671e3ae32f654b8954ea4c4635f915","","Mozilla/5.0 (Macintosh; Intel Mac OS X 10_15_7) AppleWebKit/537.36 (KHTML, like Gecko) Chrome/134.0.0.0 Safari/537.36","Macintosh","Chrome","134.0.0.0","OS X","10_15_7","https://hz8g1ckzuq.cognition.run/","en-US,en;q=0.9","w0gdh3x8zg54jh0","39","[""White""]","No","Female","3513237.4000000358","null","","<p></p>","null","rating","wwb","catch","null","televisions","80","85","30","15","50","15","1","","","","","","","","","",""
"","","","","","rating_trial","survey-html-form","30","1146054","0.0-3.0-1.13","83","1","2025-04-11 14:36:27","bb671e3ae32f654b8954ea4c4635f915","","Mozilla/5.0 (Macintosh; Intel Mac OS X 10_15_7) AppleWebKit/537.36 (KHTML, like Gecko) Chrome/134.0.0.0 Safari/537.36","Macintosh","Chrome","134.0.0.0","OS X","10_15_7","https://hz8g1ckzuq.cognition.run/","en-US,en;q=0.9","w0gdh3x8zg54jh0","39","[""White""]","No","Female","3513237.4000000358","63560","","","{""price_1"":""50"",""price_2"":""75"",""price_3"":""200""}","rating","wwb","catch","null","televisions","80","85","30","15","50","15","1","null","null","null","null","null","null","Screen size","Average lifespan","",""
"","","","","","rating_trial_setup","html-keyboard-response","31","1146357","0.0-3.0-0.14","83","1","2025-04-11 14:36:27","bb671e3ae32f654b8954ea4c4635f915","","Mozilla/5.0 (Macintosh; Intel Mac OS X 10_15_7) AppleWebKit/537.36 (KHTML, like Gecko) Chrome/134.0.0.0 Safari/537.36","Macintosh","Chrome","134.0.0.0","OS X","10_15_7","https://hz8g1ckzuq.cognition.run/","en-US,en;q=0.9","w0gdh3x8zg54jh0","39","[""White""]","No","Female","3513237.4000000358","null","","<p></p>","null","rating","bww","catch","null","laptops","80","70","35","25","10","10","2","","","","","","","","","",""
"","","","","","rating_trial","survey-html-form","32","1174053","0.0-3.0-1.14","83","1","2025-04-11 14:36:27","bb671e3ae32f654b8954ea4c4635f915","","Mozilla/5.0 (Macintosh; Intel Mac OS X 10_15_7) AppleWebKit/537.36 (KHTML, like Gecko) Chrome/134.0.0.0 Safari/537.36","Macintosh","Chrome","134.0.0.0","OS X","10_15_7","https://hz8g1ckzuq.cognition.run/","en-US,en;q=0.9","w0gdh3x8zg54jh0","39","[""White""]","No","Female","3513237.4000000358","27693","","","{""price_1"":""200"",""price_2"":""75"",""price_3"":""50""}","rating","bww","catch","null","laptops","80","70","35","25","10","10","2","null","null","null","null","null","null","Processing speed","Memory (RAM)","",""
"","","","","","rating_trial_setup","html-keyboard-response","33","1174357","0.0-3.0-0.15","83","1","2025-04-11 14:36:27","bb671e3ae32f654b8954ea4c4635f915","","Mozilla/5.0 (Macintosh; Intel Mac OS X 10_15_7) AppleWebKit/537.36 (KHTML, like Gecko) Chrome/134.0.0.0 Safari/537.36","Macintosh","Chrome","134.0.0.0","OS X","10_15_7","https://hz8g1ckzuq.cognition.run/","en-US,en;q=0.9","w0gdh3x8zg54jh0","39","[""White""]","No","Female","3513237.4000000358","null","","<p></p>","null","rating","ctd","repulsion_2","1","televisions","null","null","null","null","null","null","1","","","","","","","","","",""
"","","","","","rating_trial","survey-html-form","34","1221270","0.0-3.0-1.15","83","1","2025-04-11 14:36:27","bb671e3ae32f654b8954ea4c4635f915","","Mozilla/5.0 (Macintosh; Intel Mac OS X 10_15_7) AppleWebKit/537.36 (KHTML, like Gecko) Chrome/134.0.0.0 Safari/537.36","Macintosh","Chrome","134.0.0.0","OS X","10_15_7","https://hz8g1ckzuq.cognition.run/","en-US,en;q=0.9","w0gdh3x8zg54jh0","39","[""White""]","No","Female","3513237.4000000358","46910","","","{""price_1"":""245"",""price_2"":""250"",""price_3"":""225""}","rating","ctd","repulsion_2","1","televisions","null","null","null","null","null","null","1","100","90","100","30","40","20","Screen size","Average lifespan","",""
"","","","","","rating_trial_setup","html-keyboard-response","35","1221572","0.0-3.0-0.16","83","1","2025-04-11 14:36:27","bb671e3ae32f654b8954ea4c4635f915","","Mozilla/5.0 (Macintosh; Intel Mac OS X 10_15_7) AppleWebKit/537.36 (KHTML, like Gecko) Chrome/134.0.0.0 Safari/537.36","Macintosh","Chrome","134.0.0.0","OS X","10_15_7","https://hz8g1ckzuq.cognition.run/","en-US,en;q=0.9","w0gdh3x8zg54jh0","39","[""White""]","No","Female","3513237.4000000358","null","","<p></p>","null","rating","ctd","attraction_2","1","laptops","null","null","null","null","null","null","1","","","","","","","","","",""
"","","","","","rating_trial","survey-html-form","36","1267033","0.0-3.0-1.16","83","1","2025-04-11 14:36:27","bb671e3ae32f654b8954ea4c4635f915","","Mozilla/5.0 (Macintosh; Intel Mac OS X 10_15_7) AppleWebKit/537.36 (KHTML, like Gecko) Chrome/134.0.0.0 Safari/537.36","Macintosh","Chrome","134.0.0.0","OS X","10_15_7","https://hz8g1ckzuq.cognition.run/","en-US,en;q=0.9","w0gdh3x8zg54jh0","39","[""White""]","No","Female","3513237.4000000358","45457","","","{""price_1"":""200"",""price_2"":""200"",""price_3"":""175""}","rating","ctd","attraction_2","1","laptops","null","null","null","null","null","null","1","60","50","60","50","60","40","Processing speed","Memory (RAM)","",""
"","","","","","rating_trial_setup","html-keyboard-response","37","1267336","0.0-3.0-0.17","83","1","2025-04-11 14:36:27","bb671e3ae32f654b8954ea4c4635f915","","Mozilla/5.0 (Macintosh; Intel Mac OS X 10_15_7) AppleWebKit/537.36 (KHTML, like Gecko) Chrome/134.0.0.0 Safari/537.36","Macintosh","Chrome","134.0.0.0","OS X","10_15_7","https://hz8g1ckzuq.cognition.run/","en-US,en;q=0.9","w0gdh3x8zg54jh0","39","[""White""]","No","Female","3513237.4000000358","null","","<p></p>","null","rating","wwb","catch","null","laptops","55","70","35","20","30","40","2","","","","","","","","","",""
"","","","","","rating_trial","survey-html-form","38","1513038","0.0-3.0-1.17","83","1","2025-04-11 14:36:27","bb671e3ae32f654b8954ea4c4635f915","","Mozilla/5.0 (Macintosh; Intel Mac OS X 10_15_7) AppleWebKit/537.36 (KHTML, like Gecko) Chrome/134.0.0.0 Safari/537.36","Macintosh","Chrome","134.0.0.0","OS X","10_15_7","https://hz8g1ckzuq.cognition.run/","en-US,en;q=0.9","w0gdh3x8zg54jh0","39","[""White""]","No","Female","3513237.4000000358","245701","","","{""price_1"":""50"",""price_2"":""75"",""price_3"":""100""}","rating","wwb","catch","null","laptops","55","70","35","20","30","40","2","null","null","null","null","null","null","Processing speed","Memory (RAM)","",""
"","","","","","rating_trial_setup","html-keyboard-response","39","1513342","0.0-3.0-0.18","83","1","2025-04-11 14:36:27","bb671e3ae32f654b8954ea4c4635f915","","Mozilla/5.0 (Macintosh; Intel Mac OS X 10_15_7) AppleWebKit/537.36 (KHTML, like Gecko) Chrome/134.0.0.0 Safari/537.36","Macintosh","Chrome","134.0.0.0","OS X","10_15_7","https://hz8g1ckzuq.cognition.run/","en-US,en;q=0.9","w0gdh3x8zg54jh0","39","[""White""]","No","Female","3513237.4000000358","null","","<p></p>","null","rating","tdc","repulsion_1","2","laptops","null","null","null","null","null","null","2","","","","","","","","","",""
"","","","","","rating_trial","survey-html-form","40","1625000","0.0-3.0-1.18","83","1","2025-04-11 14:36:27","bb671e3ae32f654b8954ea4c4635f915","","Mozilla/5.0 (Macintosh; Intel Mac OS X 10_15_7) AppleWebKit/537.36 (KHTML, like Gecko) Chrome/134.0.0.0 Safari/537.36","Macintosh","Chrome","134.0.0.0","OS X","10_15_7","https://hz8g1ckzuq.cognition.run/","en-US,en;q=0.9","w0gdh3x8zg54jh0","39","[""White""]","No","Female","3513237.4000000358","111654","","","{""price_1"":""175"",""price_2"":""150"",""price_3"":""250""}","rating","tdc","repulsion_1","2","laptops","null","null","null","null","null","null","2","30","40","25","100","90","100","Processing speed","Memory (RAM)","",""
"","","","","","rating_trial_setup","html-keyboard-response","41","1625304","0.0-3.0-0.19","83","1","2025-04-11 14:36:27","bb671e3ae32f654b8954ea4c4635f915","","Mozilla/5.0 (Macintosh; Intel Mac OS X 10_15_7) AppleWebKit/537.36 (KHTML, like Gecko) Chrome/134.0.0.0 Safari/537.36","Macintosh","Chrome","134.0.0.0","OS X","10_15_7","https://hz8g1ckzuq.cognition.run/","en-US,en;q=0.9","w0gdh3x8zg54jh0","39","[""White""]","No","Female","3513237.4000000358","null","","<p></p>","null","rating","dtc","repulsion_1","1","laptops","null","null","null","null","null","null","2","","","","","","","","","",""
"","","","","","rating_trial","survey-html-form","42","1692303","0.0-3.0-1.19","83","1","2025-04-11 14:36:27","bb671e3ae32f654b8954ea4c4635f915","","Mozilla/5.0 (Macintosh; Intel Mac OS X 10_15_7) AppleWebKit/537.36 (KHTML, like Gecko) Chrome/134.0.0.0 Safari/537.36","Macintosh","Chrome","134.0.0.0","OS X","10_15_7","https://hz8g1ckzuq.cognition.run/","en-US,en;q=0.9","w0gdh3x8zg54jh0","39","[""White""]","No","Female","3513237.4000000358","66996","","","{""price_1"":""150"",""price_2"":""175"",""price_3"":""175""}","rating","dtc","repulsion_1","1","laptops","null","null","null","null","null","null","2","100","90","100","30","40","25","Processing speed","Memory (RAM)","",""
"","","","","","rating_trial_setup","html-keyboard-response","43","1692606","0.0-3.0-0.20","83","1","2025-04-11 14:36:27","bb671e3ae32f654b8954ea4c4635f915","","Mozilla/5.0 (Macintosh; Intel Mac OS X 10_15_7) AppleWebKit/537.36 (KHTML, like Gecko) Chrome/134.0.0.0 Safari/537.36","Macintosh","Chrome","134.0.0.0","OS X","10_15_7","https://hz8g1ckzuq.cognition.run/","en-US,en;q=0.9","w0gdh3x8zg54jh0","39","[""White""]","No","Female","3513237.4000000358","null","","<p></p>","null","rating","dct","repulsion_1","1","microwave ovens","null","null","null","null","null","null","1","","","","","","","","","",""
"","","","","","rating_trial","survey-html-form","44","1746199","0.0-3.0-1.20","83","1","2025-04-11 14:36:27","bb671e3ae32f654b8954ea4c4635f915","","Mozilla/5.0 (Macintosh; Intel Mac OS X 10_15_7) AppleWebKit/537.36 (KHTML, like Gecko) Chrome/134.0.0.0 Safari/537.36","Macintosh","Chrome","134.0.0.0","OS X","10_15_7","https://hz8g1ckzuq.cognition.run/","en-US,en;q=0.9","w0gdh3x8zg54jh0","39","[""White""]","No","Female","3513237.4000000358","53589","","","{""price_1"":""50"",""price_2"":""65"",""price_3"":""55""}","rating","dct","repulsion_1","1","microwave ovens","null","null","null","null","null","null","1","100","90","100","30","40","25","Warranty","Cooking power","",""
"","","","","","rating_trial_setup","html-keyboard-response","45","1746501","0.0-3.0-0.21","83","1","2025-04-11 14:36:27","bb671e3ae32f654b8954ea4c4635f915","","Mozilla/5.0 (Macintosh; Intel Mac OS X 10_15_7) AppleWebKit/537.36 (KHTML, like Gecko) Chrome/134.0.0.0 Safari/537.36","Macintosh","Chrome","134.0.0.0","OS X","10_15_7","https://hz8g1ckzuq.cognition.run/","en-US,en;q=0.9","w0gdh3x8zg54jh0","39","[""White""]","No","Female","3513237.4000000358","null","","<p></p>","null","rating","dtc","attraction_1","2","washing machines","null","null","null","null","null","null","2","","","","","","","","","",""
"","","","","","rating_trial","survey-html-form","46","1833303","0.0-3.0-1.21","83","1","2025-04-11 14:36:27","bb671e3ae32f654b8954ea4c4635f915","","Mozilla/5.0 (Macintosh; Intel Mac OS X 10_15_7) AppleWebKit/537.36 (KHTML, like Gecko) Chrome/134.0.0.0 Safari/537.36","Macintosh","Chrome","134.0.0.0","OS X","10_15_7","https://hz8g1ckzuq.cognition.run/","en-US,en;q=0.9","w0gdh3x8zg54jh0","39","[""White""]","No","Female","3513237.4000000358","86798","","","{""price_1"":""215"",""price_2"":""250"",""price_3"":""230""}","rating","dtc","attraction_1","2","washing machines","null","null","null","null","null","null","2","50","60","45","60","50","60","Average lifespan","Energy savings","",""
"","","","","","rating_trial_setup","html-keyboard-response","47","1833606","0.0-3.0-0.22","83","1","2025-04-11 14:36:27","bb671e3ae32f654b8954ea4c4635f915","","Mozilla/5.0 (Macintosh; Intel Mac OS X 10_15_7) AppleWebKit/537.36 (KHTML, like Gecko) Chrome/134.0.0.0 Safari/537.36","Macintosh","Chrome","134.0.0.0","OS X","10_15_7","https://hz8g1ckzuq.cognition.run/","en-US,en;q=0.9","w0gdh3x8zg54jh0","39","[""White""]","No","Female","3513237.4000000358","null","","<p></p>","null","rating","tcd","repulsion_1","2","televisions","null","null","null","null","null","null","2","","","","","","","","","",""
"","","","","","rating_trial","survey-html-form","48","1919287","0.0-3.0-1.22","83","1","2025-04-11 14:36:27","bb671e3ae32f654b8954ea4c4635f915","","Mozilla/5.0 (Macintosh; Intel Mac OS X 10_15_7) AppleWebKit/537.36 (KHTML, like Gecko) Chrome/134.0.0.0 Safari/537.36","Macintosh","Chrome","134.0.0.0","OS X","10_15_7","https://hz8g1ckzuq.cognition.run/","en-US,en;q=0.9","w0gdh3x8zg54jh0","39","[""White""]","No","Female","3513237.4000000358","85663","","","{""price_1"":""60"",""price_2"":""75"",""price_3"":""50""}","rating","tcd","repulsion_1","2","televisions","null","null","null","null","null","null","2","30","40","25","100","90","100","Screen size","Average lifespan","",""
"","","","","","rating_trial_setup","html-keyboard-response","49","1919592","0.0-3.0-0.23","83","1","2025-04-11 14:36:27","bb671e3ae32f654b8954ea4c4635f915","","Mozilla/5.0 (Macintosh; Intel Mac OS X 10_15_7) AppleWebKit/537.36 (KHTML, like Gecko) Chrome/134.0.0.0 Safari/537.36","Macintosh","Chrome","134.0.0.0","OS X","10_15_7","https://hz8g1ckzuq.cognition.run/","en-US,en;q=0.9","w0gdh3x8zg54jh0","39","[""White""]","No","Female","3513237.4000000358","null","","<p></p>","null","rating","tcd","attraction_1","1","washing machines","null","null","null","null","null","null","2","","","","","","","","","",""
"","","","","","rating_trial","survey-html-form","50","1957140","0.0-3.0-1.23","83","1","2025-04-11 14:36:27","bb671e3ae32f654b8954ea4c4635f915","","Mozilla/5.0 (Macintosh; Intel Mac OS X 10_15_7) AppleWebKit/537.36 (KHTML, like Gecko) Chrome/134.0.0.0 Safari/537.36","Macintosh","Chrome","134.0.0.0","OS X","10_15_7","https://hz8g1ckzuq.cognition.run/","en-US,en;q=0.9","w0gdh3x8zg54jh0","39","[""White""]","No","Female","3513237.4000000358","37543","","","{""price_1"":""275"",""price_2"":""275"",""price_3"":""250""}","rating","tcd","attraction_1","1","washing machines","null","null","null","null","null","null","2","60","50","60","50","60","45","Average lifespan","Energy savings","",""
"","","","","","rating_trial_setup","html-keyboard-response","51","1957444","0.0-3.0-0.24","83","1","2025-04-11 14:36:27","bb671e3ae32f654b8954ea4c4635f915","","Mozilla/5.0 (Macintosh; Intel Mac OS X 10_15_7) AppleWebKit/537.36 (KHTML, like Gecko) Chrome/134.0.0.0 Safari/537.36","Macintosh","Chrome","134.0.0.0","OS X","10_15_7","https://hz8g1ckzuq.cognition.run/","en-US,en;q=0.9","w0gdh3x8zg54jh0","39","[""White""]","No","Female","3513237.4000000358","null","","<p></p>","null","rating","bww","catch","null","washing machines","80","65","10","15","10","50","2","","","","","","","","","",""
"","","","","","rating_trial","survey-html-form","52","1992778","0.0-3.0-1.24","83","1","2025-04-11 14:36:27","bb671e3ae32f654b8954ea4c4635f915","","Mozilla/5.0 (Macintosh; Intel Mac OS X 10_15_7) AppleWebKit/537.36 (KHTML, like Gecko) Chrome/134.0.0.0 Safari/537.36","Macintosh","Chrome","134.0.0.0","OS X","10_15_7","https://hz8g1ckzuq.cognition.run/","en-US,en;q=0.9","w0gdh3x8zg54jh0","39","[""White""]","No","Female","3513237.4000000358","35328","","","{""price_1"":""350"",""price_2"":""75"",""price_3"":""125""}","rating","bww","catch","null","washing machines","80","65","10","15","10","50","2","null","null","null","null","null","null","Average lifespan","Energy savings","",""
"","","","","","rating_trial_setup","html-keyboard-response","53","1993080","0.0-3.0-0.25","83","1","2025-04-11 14:36:27","bb671e3ae32f654b8954ea4c4635f915","","Mozilla/5.0 (Macintosh; Intel Mac OS X 10_15_7) AppleWebKit/537.36 (KHTML, like Gecko) Chrome/134.0.0.0 Safari/537.36","Macintosh","Chrome","134.0.0.0","OS X","10_15_7","https://hz8g1ckzuq.cognition.run/","en-US,en;q=0.9","w0gdh3x8zg54jh0","39","[""White""]","No","Female","3513237.4000000358","null","","<p></p>","null","rating","tcd","attraction_1","1","televisions","null","null","null","null","null","null","1","","","","","","","","","",""
"","","","","","rating_trial","survey-html-form","54","2036828","0.0-3.0-1.25","83","1","2025-04-11 14:36:27","bb671e3ae32f654b8954ea4c4635f915","","Mozilla/5.0 (Macintosh; Intel Mac OS X 10_15_7) AppleWebKit/537.36 (KHTML, like Gecko) Chrome/134.0.0.0 Safari/537.36","Macintosh","Chrome","134.0.0.0","OS X","10_15_7","https://hz8g1ckzuq.cognition.run/","en-US,en;q=0.9","w0gdh3x8zg54jh0","39","[""White""]","No","Female","3513237.4000000358","43742","","","{""price_1"":""175"",""price_2"":""170"",""price_3"":""165""}","rating","tcd","attraction_1","1","televisions","null","null","null","null","null","null","1","60","50","60","50","60","45","Screen size","Average lifespan","",""
"","","","","","rating_trial_setup","html-keyboard-response","55","2037130","0.0-3.0-0.26","83","1","2025-04-11 14:36:27","bb671e3ae32f654b8954ea4c4635f915","","Mozilla/5.0 (Macintosh; Intel Mac OS X 10_15_7) AppleWebKit/537.36 (KHTML, like Gecko) Chrome/134.0.0.0 Safari/537.36","Macintosh","Chrome","134.0.0.0","OS X","10_15_7","https://hz8g1ckzuq.cognition.run/","en-US,en;q=0.9","w0gdh3x8zg54jh0","39","[""White""]","No","Female","3513237.4000000358","null","","<p></p>","null","rating","tdc","attraction_2","2","laptops","null","null","null","null","null","null","2","","","","","","","","","",""
"","","","","","rating_trial","survey-html-form","56","2075198","0.0-3.0-1.26","83","1","2025-04-11 14:36:27","bb671e3ae32f654b8954ea4c4635f915","","Mozilla/5.0 (Macintosh; Intel Mac OS X 10_15_7) AppleWebKit/537.36 (KHTML, like Gecko) Chrome/134.0.0.0 Safari/537.36","Macintosh","Chrome","134.0.0.0","OS X","10_15_7","https://hz8g1ckzuq.cognition.run/","en-US,en;q=0.9","w0gdh3x8zg54jh0","39","[""White""]","No","Female","3513237.4000000358","38062","","","{""price_1"":""200"",""price_2"":""185"",""price_3"":""200""}","rating","tdc","attraction_2","2","laptops","null","null","null","null","null","null","2","50","60","40","60","50","60","Processing speed","Memory (RAM)","",""
"","","","","","rating_trial_setup","html-keyboard-response","57","2075502","0.0-3.0-0.27","83","1","2025-04-11 14:36:27","bb671e3ae32f654b8954ea4c4635f915","","Mozilla/5.0 (Macintosh; Intel Mac OS X 10_15_7) AppleWebKit/537.36 (KHTML, like Gecko) Chrome/134.0.0.0 Safari/537.36","Macintosh","Chrome","134.0.0.0","OS X","10_15_7","https://hz8g1ckzuq.cognition.run/","en-US,en;q=0.9","w0gdh3x8zg54jh0","39","[""White""]","No","Female","3513237.4000000358","null","","<p></p>","null","rating","ctd","repulsion_1","2","washing machines","null","null","null","null","null","null","1","","","","","","","","","",""
"","","","","","rating_trial","survey-html-form","58","2214373","0.0-3.0-1.27","83","1","2025-04-11 14:36:27","bb671e3ae32f654b8954ea4c4635f915","","Mozilla/5.0 (Macintosh; Intel Mac OS X 10_15_7) AppleWebKit/537.36 (KHTML, like Gecko) Chrome/134.0.0.0 Safari/537.36","Macintosh","Chrome","134.0.0.0","OS X","10_15_7","https://hz8g1ckzuq.cognition.run/","en-US,en;q=0.9","w0gdh3x8zg54jh0","39","[""White""]","No","Female","3513237.4000000358","138866","","","{""price_1"":""275"",""price_2"":""275"",""price_3"":""250""}","rating","ctd","repulsion_1","2","washing machines","null","null","null","null","null","null","1","30","40","25","100","90","100","Average lifespan","Energy savings","",""
"","","","","","rating_trial_setup","html-keyboard-response","59","2214676","0.0-3.0-0.28","83","1","2025-04-11 14:36:27","bb671e3ae32f654b8954ea4c4635f915","","Mozilla/5.0 (Macintosh; Intel Mac OS X 10_15_7) AppleWebKit/537.36 (KHTML, like Gecko) Chrome/134.0.0.0 Safari/537.36","Macintosh","Chrome","134.0.0.0","OS X","10_15_7","https://hz8g1ckzuq.cognition.run/","en-US,en;q=0.9","w0gdh3x8zg54jh0","39","[""White""]","No","Female","3513237.4000000358","null","","<p></p>","null","rating","tdc","repulsion_2","2","televisions","null","null","null","null","null","null","2","","","","","","","","","",""
"","","","","","rating_trial","survey-html-form","60","2265740","0.0-3.0-1.28","83","1","2025-04-11 14:36:27","bb671e3ae32f654b8954ea4c4635f915","","Mozilla/5.0 (Macintosh; Intel Mac OS X 10_15_7) AppleWebKit/537.36 (KHTML, like Gecko) Chrome/134.0.0.0 Safari/537.36","Macintosh","Chrome","134.0.0.0","OS X","10_15_7","https://hz8g1ckzuq.cognition.run/","en-US,en;q=0.9","w0gdh3x8zg54jh0","39","[""White""]","No","Female","3513237.4000000358","51058","","","{""price_1"":""125"",""price_2"":""100"",""price_3"":""150""}","rating","tdc","repulsion_2","2","televisions","null","null","null","null","null","null","2","30","40","20","100","90","100","Screen size","Average lifespan","",""
"","","","","","rating_trial_setup","html-keyboard-response","61","2266044","0.0-3.0-0.29","83","1","2025-04-11 14:36:27","bb671e3ae32f654b8954ea4c4635f915","","Mozilla/5.0 (Macintosh; Intel Mac OS X 10_15_7) AppleWebKit/537.36 (KHTML, like Gecko) Chrome/134.0.0.0 Safari/537.36","Macintosh","Chrome","134.0.0.0","OS X","10_15_7","https://hz8g1ckzuq.cognition.run/","en-US,en;q=0.9","w0gdh3x8zg54jh0","39","[""White""]","No","Female","3513237.4000000358","null","","<p></p>","null","rating","tcd","repulsion_1","1","washing machines","null","null","null","null","null","null","1","","","","","","","","","",""
"","","","","","rating_trial","survey-html-form","62","2369106","0.0-3.0-1.29","83","1","2025-04-11 14:36:27","bb671e3ae32f654b8954ea4c4635f915","","Mozilla/5.0 (Macintosh; Intel Mac OS X 10_15_7) AppleWebKit/537.36 (KHTML, like Gecko) Chrome/134.0.0.0 Safari/537.36","Macintosh","Chrome","134.0.0.0","OS X","10_15_7","https://hz8g1ckzuq.cognition.run/","en-US,en;q=0.9","w0gdh3x8zg54jh0","39","[""White""]","No","Female","3513237.4000000358","103057","","","{""price_1"":""245"",""price_2"":""285"",""price_3"":""250""}","rating","tcd","repulsion_1","1","washing machines","null","null","null","null","null","null","1","100","90","100","30","40","25","Average lifespan","Energy savings","",""
"","","","","","rating_trial_setup","html-keyboard-response","63","2369410","0.0-3.0-0.30","83","1","2025-04-11 14:36:27","bb671e3ae32f654b8954ea4c4635f915","","Mozilla/5.0 (Macintosh; Intel Mac OS X 10_15_7) AppleWebKit/537.36 (KHTML, like Gecko) Chrome/134.0.0.0 Safari/537.36","Macintosh","Chrome","134.0.0.0","OS X","10_15_7","https://hz8g1ckzuq.cognition.run/","en-US,en;q=0.9","w0gdh3x8zg54jh0","39","[""White""]","No","Female","3513237.4000000358","null","","<p></p>","null","rating","tcd","attraction_1","1","laptops","null","null","null","null","null","null","2","","","","","","","","","",""
"","","","","","rating_trial","survey-html-form","64","2498206","0.0-3.0-1.30","83","1","2025-04-11 14:36:27","bb671e3ae32f654b8954ea4c4635f915","","Mozilla/5.0 (Macintosh; Intel Mac OS X 10_15_7) AppleWebKit/537.36 (KHTML, like Gecko) Chrome/134.0.0.0 Safari/537.36","Macintosh","Chrome","134.0.0.0","OS X","10_15_7","https://hz8g1ckzuq.cognition.run/","en-US,en;q=0.9","w0gdh3x8zg54jh0","39","[""White""]","No","Female","3513237.4000000358","128790","","","{""price_1"":""250"",""price_2"":""250"",""price_3"":""245""}","rating","tcd","attraction_1","1","laptops","null","null","null","null","null","null","2","60","50","60","50","60","45","Processing speed","Memory (RAM)","",""
"","","","","","rating_trial_setup","html-keyboard-response","65","2498509","0.0-3.0-0.31","83","1","2025-04-11 14:36:27","bb671e3ae32f654b8954ea4c4635f915","","Mozilla/5.0 (Macintosh; Intel Mac OS X 10_15_7) AppleWebKit/537.36 (KHTML, like Gecko) Chrome/134.0.0.0 Safari/537.36","Macintosh","Chrome","134.0.0.0","OS X","10_15_7","https://hz8g1ckzuq.cognition.run/","en-US,en;q=0.9","w0gdh3x8zg54jh0","39","[""White""]","No","Female","3513237.4000000358","null","","<p></p>","null","rating","bww","catch","null","microwave ovens","65","75","20","25","5","10","2","","","","","","","","","",""
"","","","","","rating_trial","survey-html-form","66","2527193","0.0-3.0-1.31","83","1","2025-04-11 14:36:27","bb671e3ae32f654b8954ea4c4635f915","","Mozilla/5.0 (Macintosh; Intel Mac OS X 10_15_7) AppleWebKit/537.36 (KHTML, like Gecko) Chrome/134.0.0.0 Safari/537.36","Macintosh","Chrome","134.0.0.0","OS X","10_15_7","https://hz8g1ckzuq.cognition.run/","en-US,en;q=0.9","w0gdh3x8zg54jh0","39","[""White""]","No","Female","3513237.4000000358","28679","","","{""price_1"":""125"",""price_2"":""75"",""price_3"":""40""}","rating","bww","catch","null","microwave ovens","65","75","20","25","5","10","2","null","null","null","null","null","null","Warranty","Cooking power","",""
"","","","","","rating_trial_setup","html-keyboard-response","67","2527497","0.0-3.0-0.32","83","1","2025-04-11 14:36:27","bb671e3ae32f654b8954ea4c4635f915","","Mozilla/5.0 (Macintosh; Intel Mac OS X 10_15_7) AppleWebKit/537.36 (KHTML, like Gecko) Chrome/134.0.0.0 Safari/537.36","Macintosh","Chrome","134.0.0.0","OS X","10_15_7","https://hz8g1ckzuq.cognition.run/","en-US,en;q=0.9","w0gdh3x8zg54jh0","39","[""White""]","No","Female","3513237.4000000358","null","","<p></p>","null","rating","cdt","attraction_1","2","laptops","null","null","null","null","null","null","2","","","","","","","","","",""
"","","","","","rating_trial","survey-html-form","68","2556832","0.0-3.0-1.32","83","1","2025-04-11 14:36:27","bb671e3ae32f654b8954ea4c4635f915","","Mozilla/5.0 (Macintosh; Intel Mac OS X 10_15_7) AppleWebKit/537.36 (KHTML, like Gecko) Chrome/134.0.0.0 Safari/537.36","Macintosh","Chrome","134.0.0.0","OS X","10_15_7","https://hz8g1ckzuq.cognition.run/","en-US,en;q=0.9","w0gdh3x8zg54jh0","39","[""White""]","No","Female","3513237.4000000358","29329","","","{""price_1"":""250"",""price_2"":""240"",""price_3"":""250""}","rating","cdt","attraction_1","2","laptops","null","null","null","null","null","null","2","50","60","45","60","50","60","Processing speed","Memory (RAM)","",""
"","","","","","rating_trial_setup","html-keyboard-response","69","2557137","0.0-3.0-0.33","83","1","2025-04-11 14:36:27","bb671e3ae32f654b8954ea4c4635f915","","Mozilla/5.0 (Macintosh; Intel Mac OS X 10_15_7) AppleWebKit/537.36 (KHTML, like Gecko) Chrome/134.0.0.0 Safari/537.36","Macintosh","Chrome","134.0.0.0","OS X","10_15_7","https://hz8g1ckzuq.cognition.run/","en-US,en;q=0.9","w0gdh3x8zg54jh0","39","[""White""]","No","Female","3513237.4000000358","null","","<p></p>","null","rating","tcd","repulsion_1","2","microwave ovens","null","null","null","null","null","null","2","","","","","","","","","",""
"","","","","","rating_trial","survey-html-form","70","2616734","0.0-3.0-1.33","83","1","2025-04-11 14:36:27","bb671e3ae32f654b8954ea4c4635f915","","Mozilla/5.0 (Macintosh; Intel Mac OS X 10_15_7) AppleWebKit/537.36 (KHTML, like Gecko) Chrome/134.0.0.0 Safari/537.36","Macintosh","Chrome","134.0.0.0","OS X","10_15_7","https://hz8g1ckzuq.cognition.run/","en-US,en;q=0.9","w0gdh3x8zg54jh0","39","[""White""]","No","Female","3513237.4000000358","59592","","","{""price_1"":""130"",""price_2"":""125"",""price_3"":""100""}","rating","tcd","repulsion_1","2","microwave ovens","null","null","null","null","null","null","2","30","40","25","100","90","100","Warranty","Cooking power","",""
"","","","","","rating_trial_setup","html-keyboard-response","71","2617038","0.0-3.0-0.34","83","1","2025-04-11 14:36:27","bb671e3ae32f654b8954ea4c4635f915","","Mozilla/5.0 (Macintosh; Intel Mac OS X 10_15_7) AppleWebKit/537.36 (KHTML, like Gecko) Chrome/134.0.0.0 Safari/537.36","Macintosh","Chrome","134.0.0.0","OS X","10_15_7","https://hz8g1ckzuq.cognition.run/","en-US,en;q=0.9","w0gdh3x8zg54jh0","39","[""White""]","No","Female","3513237.4000000358","null","","<p></p>","null","rating","tcd","attraction_1","2","televisions","null","null","null","null","null","null","1","","","","","","","","","",""
"","","","","","rating_trial","survey-html-form","72","2661880","0.0-3.0-1.34","83","1","2025-04-11 14:36:27","bb671e3ae32f654b8954ea4c4635f915","","Mozilla/5.0 (Macintosh; Intel Mac OS X 10_15_7) AppleWebKit/537.36 (KHTML, like Gecko) Chrome/134.0.0.0 Safari/537.36","Macintosh","Chrome","134.0.0.0","OS X","10_15_7","https://hz8g1ckzuq.cognition.run/","en-US,en;q=0.9","w0gdh3x8zg54jh0","39","[""White""]","No","Female","3513237.4000000358","44837","","","{""price_1"":""190"",""price_2"":""200"",""price_3"":""180""}","rating","tcd","attraction_1","2","televisions","null","null","null","null","null","null","1","50","60","45","60","50","60","Screen size","Average lifespan","",""
"","","","","","rating_trial_setup","html-keyboard-response","73","2662184","0.0-3.0-0.35","83","1","2025-04-11 14:36:27","bb671e3ae32f654b8954ea4c4635f915","","Mozilla/5.0 (Macintosh; Intel Mac OS X 10_15_7) AppleWebKit/537.36 (KHTML, like Gecko) Chrome/134.0.0.0 Safari/537.36","Macintosh","Chrome","134.0.0.0","OS X","10_15_7","https://hz8g1ckzuq.cognition.run/","en-US,en;q=0.9","w0gdh3x8zg54jh0","39","[""White""]","No","Female","3513237.4000000358","null","","<p></p>","null","rating","ctd","attraction_1","1","microwave ovens","null","null","null","null","null","null","1","","","","","","","","","",""
"","","","","","rating_trial","survey-html-form","74","2709714","0.0-3.0-1.35","83","1","2025-04-11 14:36:27","bb671e3ae32f654b8954ea4c4635f915","","Mozilla/5.0 (Macintosh; Intel Mac OS X 10_15_7) AppleWebKit/537.36 (KHTML, like Gecko) Chrome/134.0.0.0 Safari/537.36","Macintosh","Chrome","134.0.0.0","OS X","10_15_7","https://hz8g1ckzuq.cognition.run/","en-US,en;q=0.9","w0gdh3x8zg54jh0","39","[""White""]","No","Female","3513237.4000000358","47525","","","{""price_1"":""100"",""price_2"":""95"",""price_3"":""85""}","rating","ctd","attraction_1","1","microwave ovens","null","null","null","null","null","null","1","60","50","60","50","60","45","Warranty","Cooking power","",""
"","","","","","rating_trial_setup","html-keyboard-response","75","2710017","0.0-3.0-0.36","83","1","2025-04-11 14:36:27","bb671e3ae32f654b8954ea4c4635f915","","Mozilla/5.0 (Macintosh; Intel Mac OS X 10_15_7) AppleWebKit/537.36 (KHTML, like Gecko) Chrome/134.0.0.0 Safari/537.36","Macintosh","Chrome","134.0.0.0","OS X","10_15_7","https://hz8g1ckzuq.cognition.run/","en-US,en;q=0.9","w0gdh3x8zg54jh0","39","[""White""]","No","Female","3513237.4000000358","null","","<p></p>","null","rating","dct","repulsion_2","1","microwave ovens","null","null","null","null","null","null","2","","","","","","","","","",""
"","","","","","rating_trial","survey-html-form","76","2732110","0.0-3.0-1.36","83","1","2025-04-11 14:36:27","bb671e3ae32f654b8954ea4c4635f915","","Mozilla/5.0 (Macintosh; Intel Mac OS X 10_15_7) AppleWebKit/537.36 (KHTML, like Gecko) Chrome/134.0.0.0 Safari/537.36","Macintosh","Chrome","134.0.0.0","OS X","10_15_7","https://hz8g1ckzuq.cognition.run/","en-US,en;q=0.9","w0gdh3x8zg54jh0","39","[""White""]","No","Female","3513237.4000000358","22087","","","{""price_1"":""40"",""price_2"":""55"",""price_3"":""50""}","rating","dct","repulsion_2","1","microwave ovens","null","null","null","null","null","null","2","100","90","100","30","40","20","Warranty","Cooking power","",""
"","","","","","rating_trial_setup","html-keyboard-response","77","2732413","0.0-3.0-0.37","83","1","2025-04-11 14:36:27","bb671e3ae32f654b8954ea4c4635f915","","Mozilla/5.0 (Macintosh; Intel Mac OS X 10_15_7) AppleWebKit/537.36 (KHTML, like Gecko) Chrome/134.0.0.0 Safari/537.36","Macintosh","Chrome","134.0.0.0","OS X","10_15_7","https://hz8g1ckzuq.cognition.run/","en-US,en;q=0.9","w0gdh3x8zg54jh0","39","[""White""]","No","Female","3513237.4000000358","null","","<p></p>","null","rating","wwb","catch","null","microwave ovens","65","95","10","5","50","50","1","","","","","","","","","",""
"","","","","","rating_trial","survey-html-form","78","2759546","0.0-3.0-1.37","83","1","2025-04-11 14:36:27","bb671e3ae32f654b8954ea4c4635f915","","Mozilla/5.0 (Macintosh; Intel Mac OS X 10_15_7) AppleWebKit/537.36 (KHTML, like Gecko) Chrome/134.0.0.0 Safari/537.36","Macintosh","Chrome","134.0.0.0","OS X","10_15_7","https://hz8g1ckzuq.cognition.run/","en-US,en;q=0.9","w0gdh3x8zg54jh0","39","[""White""]","No","Female","3513237.4000000358","27126","","","{""price_1"":""30"",""price_2"":""100"",""price_3"":""150""}","rating","wwb","catch","null","microwave ovens","65","95","10","5","50","50","1","null","null","null","null","null","null","Warranty","Cooking power","",""
"","","","","","rating_trial_setup","html-keyboard-response","79","2759850","0.0-3.0-0.38","83","1","2025-04-11 14:36:27","bb671e3ae32f654b8954ea4c4635f915","","Mozilla/5.0 (Macintosh; Intel Mac OS X 10_15_7) AppleWebKit/537.36 (KHTML, like Gecko) Chrome/134.0.0.0 Safari/537.36","Macintosh","Chrome","134.0.0.0","OS X","10_15_7","https://hz8g1ckzuq.cognition.run/","en-US,en;q=0.9","w0gdh3x8zg54jh0","39","[""White""]","No","Female","3513237.4000000358","null","","<p></p>","null","rating","tdc","repulsion_2","2","microwave ovens","null","null","null","null","null","null","1","","","","","","","","","",""
"","","","","","rating_trial","survey-html-form","80","2783109","0.0-3.0-1.38","83","1","2025-04-11 14:36:27","bb671e3ae32f654b8954ea4c4635f915","","Mozilla/5.0 (Macintosh; Intel Mac OS X 10_15_7) AppleWebKit/537.36 (KHTML, like Gecko) Chrome/134.0.0.0 Safari/537.36","Macintosh","Chrome","134.0.0.0","OS X","10_15_7","https://hz8g1ckzuq.cognition.run/","en-US,en;q=0.9","w0gdh3x8zg54jh0","39","[""White""]","No","Female","3513237.4000000358","23258","","","{""price_1"":""120"",""price_2"":""110"",""price_3"":""100""}","rating","tdc","repulsion_2","2","microwave ovens","null","null","null","null","null","null","1","30","40","20","100","90","100","Warranty","Cooking power","",""
"","","","","","rating_trial_setup","html-keyboard-response","81","2783413","0.0-3.0-0.39","83","1","2025-04-11 14:36:27","bb671e3ae32f654b8954ea4c4635f915","","Mozilla/5.0 (Macintosh; Intel Mac OS X 10_15_7) AppleWebKit/537.36 (KHTML, like Gecko) Chrome/134.0.0.0 Safari/537.36","Macintosh","Chrome","134.0.0.0","OS X","10_15_7","https://hz8g1ckzuq.cognition.run/","en-US,en;q=0.9","w0gdh3x8zg54jh0","39","[""White""]","No","Female","3513237.4000000358","null","","<p></p>","null","rating","tcd","repulsion_2","2","washing machines","null","null","null","null","null","null","1","","","","","","","","","",""
"","","","","","rating_trial","survey-html-form","82","2814359","0.0-3.0-1.39","83","1","2025-04-11 14:36:27","bb671e3ae32f654b8954ea4c4635f915","","Mozilla/5.0 (Macintosh; Intel Mac OS X 10_15_7) AppleWebKit/537.36 (KHTML, like Gecko) Chrome/134.0.0.0 Safari/537.36","Macintosh","Chrome","134.0.0.0","OS X","10_15_7","https://hz8g1ckzuq.cognition.run/","en-US,en;q=0.9","w0gdh3x8zg54jh0","39","[""White""]","No","Female","3513237.4000000358","30940","","","{""price_1"":""350"",""price_2"":""245"",""price_3"":""250""}","rating","tcd","repulsion_2","2","washing machines","null","null","null","null","null","null","1","30","40","20","100","90","100","Average lifespan","Energy savings","",""
"","","","","","","instructions","83","3049954","0.0-4.0","83","1","2025-04-11 14:36:27","bb671e3ae32f654b8954ea4c4635f915","","Mozilla/5.0 (Macintosh; Intel Mac OS X 10_15_7) AppleWebKit/537.36 (KHTML, like Gecko) Chrome/134.0.0.0 Safari/537.36","Macintosh","Chrome","134.0.0.0","OS X","10_15_7","https://hz8g1ckzuq.cognition.run/","en-US,en;q=0.9","w0gdh3x8zg54jh0","39","[""White""]","No","Female","3513237.4000000358","235592","[{""page_index"":0,""viewing_time"":1269},{""page_index"":1,""viewing_time"":1083},{""page_index"":2,""viewing_time"":3375},{""page_index"":3,""viewing_time"":184474},{""page_index"":4,""viewing_time"":13878},{""page_index"":5,""viewing_time"":5533},{""page_index"":6,""viewing_time"":15760},{""page_index"":7,""viewing_time"":10219}]","","","","","","","","","","","","","","","","","","","","","","","",""
"","","","","","choice_trial_setup","html-keyboard-response","84","3050257","0.0-5.0-0.0","83","1","2025-04-11 14:36:27","bb671e3ae32f654b8954ea4c4635f915","","Mozilla/5.0 (Macintosh; Intel Mac OS X 10_15_7) AppleWebKit/537.36 (KHTML, like Gecko) Chrome/134.0.0.0 Safari/537.36","Macintosh","Chrome","134.0.0.0","OS X","10_15_7","https://hz8g1ckzuq.cognition.run/","en-US,en;q=0.9","w0gdh3x8zg54jh0","39","[""White""]","No","Female","3513237.4000000358","null","","<p></p>","null","choice","ctd","attraction_2","1","televisions","null","null","null","null","null","null","1","","","","","","","","","",""
"","","","","","choice_trial","survey-html-form","85","3061960","0.0-5.0-1.0","83","1","2025-04-11 14:36:27","bb671e3ae32f654b8954ea4c4635f915","","Mozilla/5.0 (Macintosh; Intel Mac OS X 10_15_7) AppleWebKit/537.36 (KHTML, like Gecko) Chrome/134.0.0.0 Safari/537.36","Macintosh","Chrome","134.0.0.0","OS X","10_15_7","https://hz8g1ckzuq.cognition.run/","en-US,en;q=0.9","w0gdh3x8zg54jh0","39","[""White""]","No","Female","3513237.4000000358","11697","","","{""product_choice"":""B""}","choice","ctd","attraction_2","1","televisions","null","null","null","null","null","null","1","60","50","60","50","60","40","Screen size","Average lifespan","",""
"","","","","","choice_trial_setup","html-keyboard-response","86","3062266","0.0-5.0-0.1","83","1","2025-04-11 14:36:27","bb671e3ae32f654b8954ea4c4635f915","","Mozilla/5.0 (Macintosh; Intel Mac OS X 10_15_7) AppleWebKit/537.36 (KHTML, like Gecko) Chrome/134.0.0.0 Safari/537.36","Macintosh","Chrome","134.0.0.0","OS X","10_15_7","https://hz8g1ckzuq.cognition.run/","en-US,en;q=0.9","w0gdh3x8zg54jh0","39","[""White""]","No","Female","3513237.4000000358","null","","<p></p>","null","choice","dtc","repulsion_1","2","laptops","null","null","null","null","null","null","1","","","","","","","","","",""
"","","","","","choice_trial","survey-html-form","87","3077571","0.0-5.0-1.1","83","1","2025-04-11 14:36:27","bb671e3ae32f654b8954ea4c4635f915","","Mozilla/5.0 (Macintosh; Intel Mac OS X 10_15_7) AppleWebKit/537.36 (KHTML, like Gecko) Chrome/134.0.0.0 Safari/537.36","Macintosh","Chrome","134.0.0.0","OS X","10_15_7","https://hz8g1ckzuq.cognition.run/","en-US,en;q=0.9","w0gdh3x8zg54jh0","39","[""White""]","No","Female","3513237.4000000358","15300","","","{""product_choice"":""C""}","choice","dtc","repulsion_1","2","laptops","null","null","null","null","null","null","1","30","40","25","100","90","100","Processing speed","Memory (RAM)","",""
"","","","","","choice_trial_setup","html-keyboard-response","88","3077875","0.0-5.0-0.2","83","1","2025-04-11 14:36:27","bb671e3ae32f654b8954ea4c4635f915","","Mozilla/5.0 (Macintosh; Intel Mac OS X 10_15_7) AppleWebKit/537.36 (KHTML, like Gecko) Chrome/134.0.0.0 Safari/537.36","Macintosh","Chrome","134.0.0.0","OS X","10_15_7","https://hz8g1ckzuq.cognition.run/","en-US,en;q=0.9","w0gdh3x8zg54jh0","39","[""White""]","No","Female","3513237.4000000358","null","","<p></p>","null","choice","dct","repulsion_1","2","televisions","null","null","null","null","null","null","1","","","","","","","","","",""
"","","","","","choice_trial","survey-html-form","89","3092770","0.0-5.0-1.2","83","1","2025-04-11 14:36:27","bb671e3ae32f654b8954ea4c4635f915","","Mozilla/5.0 (Macintosh; Intel Mac OS X 10_15_7) AppleWebKit/537.36 (KHTML, like Gecko) Chrome/134.0.0.0 Safari/537.36","Macintosh","Chrome","134.0.0.0","OS X","10_15_7","https://hz8g1ckzuq.cognition.run/","en-US,en;q=0.9","w0gdh3x8zg54jh0","39","[""White""]","No","Female","3513237.4000000358","14889","","","{""product_choice"":""B""}","choice","dct","repulsion_1","2","televisions","null","null","null","null","null","null","1","30","40","25","100","90","100","Screen size","Average lifespan","",""
"","","","","","choice_trial_setup","html-keyboard-response","90","3093073","0.0-5.0-0.3","83","1","2025-04-11 14:36:27","bb671e3ae32f654b8954ea4c4635f915","","Mozilla/5.0 (Macintosh; Intel Mac OS X 10_15_7) AppleWebKit/537.36 (KHTML, like Gecko) Chrome/134.0.0.0 Safari/537.36","Macintosh","Chrome","134.0.0.0","OS X","10_15_7","https://hz8g1ckzuq.cognition.run/","en-US,en;q=0.9","w0gdh3x8zg54jh0","39","[""White""]","No","Female","3513237.4000000358","null","","<p></p>","null","choice","dtc","repulsion_2","2","washing machines","null","null","null","null","null","null","1","","","","","","","","","",""
"","","","","","choice_trial","survey-html-form","91","3103545","0.0-5.0-1.3","83","1","2025-04-11 14:36:27","bb671e3ae32f654b8954ea4c4635f915","","Mozilla/5.0 (Macintosh; Intel Mac OS X 10_15_7) AppleWebKit/537.36 (KHTML, like Gecko) Chrome/134.0.0.0 Safari/537.36","Macintosh","Chrome","134.0.0.0","OS X","10_15_7","https://hz8g1ckzuq.cognition.run/","en-US,en;q=0.9","w0gdh3x8zg54jh0","39","[""White""]","No","Female","3513237.4000000358","10464","","","{""product_choice"":""C""}","choice","dtc","repulsion_2","2","washing machines","null","null","null","null","null","null","1","30","40","20","100","90","100","Average lifespan","Energy savings","",""
"","","","","","choice_trial_setup","html-keyboard-response","92","3103849","0.0-5.0-0.4","83","1","2025-04-11 14:36:27","bb671e3ae32f654b8954ea4c4635f915","","Mozilla/5.0 (Macintosh; Intel Mac OS X 10_15_7) AppleWebKit/537.36 (KHTML, like Gecko) Chrome/134.0.0.0 Safari/537.36","Macintosh","Chrome","134.0.0.0","OS X","10_15_7","https://hz8g1ckzuq.cognition.run/","en-US,en;q=0.9","w0gdh3x8zg54jh0","39","[""White""]","No","Female","3513237.4000000358","null","","<p></p>","null","choice","wbw","catch","null","televisions","85","90","35","45","15","10","1","","","","","","","","","",""
"","","","","","choice_trial","survey-html-form","93","3117637","0.0-5.0-1.4","83","1","2025-04-11 14:36:27","bb671e3ae32f654b8954ea4c4635f915","","Mozilla/5.0 (Macintosh; Intel Mac OS X 10_15_7) AppleWebKit/537.36 (KHTML, like Gecko) Chrome/134.0.0.0 Safari/537.36","Macintosh","Chrome","134.0.0.0","OS X","10_15_7","https://hz8g1ckzuq.cognition.run/","en-US,en;q=0.9","w0gdh3x8zg54jh0","39","[""White""]","No","Female","3513237.4000000358","13782","","","{""product_choice"":""B""}","choice","wbw","catch","null","televisions","85","90","35","45","15","10","1","null","null","null","null","null","null","Screen size","Average lifespan","",""
"","","","","","choice_trial_setup","html-keyboard-response","94","3117942","0.0-5.0-0.5","83","1","2025-04-11 14:36:27","bb671e3ae32f654b8954ea4c4635f915","","Mozilla/5.0 (Macintosh; Intel Mac OS X 10_15_7) AppleWebKit/537.36 (KHTML, like Gecko) Chrome/134.0.0.0 Safari/537.36","Macintosh","Chrome","134.0.0.0","OS X","10_15_7","https://hz8g1ckzuq.cognition.run/","en-US,en;q=0.9","w0gdh3x8zg54jh0","39","[""White""]","No","Female","3513237.4000000358","null","","<p></p>","null","choice","dtc","repulsion_2","1","washing machines","null","null","null","null","null","null","2","","","","","","","","","",""
"","","","","","choice_trial","survey-html-form","95","3126293","0.0-5.0-1.5","83","1","2025-04-11 14:36:27","bb671e3ae32f654b8954ea4c4635f915","","Mozilla/5.0 (Macintosh; Intel Mac OS X 10_15_7) AppleWebKit/537.36 (KHTML, like Gecko) Chrome/134.0.0.0 Safari/537.36","Macintosh","Chrome","134.0.0.0","OS X","10_15_7","https://hz8g1ckzuq.cognition.run/","en-US,en;q=0.9","w0gdh3x8zg54jh0","39","[""White""]","No","Female","3513237.4000000358","8345","","","{""product_choice"":""C""}","choice","dtc","repulsion_2","1","washing machines","null","null","null","null","null","null","2","100","90","100","30","40","20","Average lifespan","Energy savings","",""
"","","","","","choice_trial_setup","html-keyboard-response","96","3126598","0.0-5.0-0.6","83","1","2025-04-11 14:36:27","bb671e3ae32f654b8954ea4c4635f915","","Mozilla/5.0 (Macintosh; Intel Mac OS X 10_15_7) AppleWebKit/537.36 (KHTML, like Gecko) Chrome/134.0.0.0 Safari/537.36","Macintosh","Chrome","134.0.0.0","OS X","10_15_7","https://hz8g1ckzuq.cognition.run/","en-US,en;q=0.9","w0gdh3x8zg54jh0","39","[""White""]","No","Female","3513237.4000000358","null","","<p></p>","null","choice","wwb","catch","null","laptops","85","85","40","25","40","45","2","","","","","","","","","",""
"","","","","","choice_trial","survey-html-form","97","3136430","0.0-5.0-1.6","83","1","2025-04-11 14:36:27","bb671e3ae32f654b8954ea4c4635f915","","Mozilla/5.0 (Macintosh; Intel Mac OS X 10_15_7) AppleWebKit/537.36 (KHTML, like Gecko) Chrome/134.0.0.0 Safari/537.36","Macintosh","Chrome","134.0.0.0","OS X","10_15_7","https://hz8g1ckzuq.cognition.run/","en-US,en;q=0.9","w0gdh3x8zg54jh0","39","[""White""]","No","Female","3513237.4000000358","9824","","","{""product_choice"":""C""}","choice","wwb","catch","null","laptops","85","85","40","25","40","45","2","null","null","null","null","null","null","Processing speed","Memory (RAM)","",""
"","","","","","choice_trial_setup","html-keyboard-response","98","3136735","0.0-5.0-0.7","83","1","2025-04-11 14:36:27","bb671e3ae32f654b8954ea4c4635f915","","Mozilla/5.0 (Macintosh; Intel Mac OS X 10_15_7) AppleWebKit/537.36 (KHTML, like Gecko) Chrome/134.0.0.0 Safari/537.36","Macintosh","Chrome","134.0.0.0","OS X","10_15_7","https://hz8g1ckzuq.cognition.run/","en-US,en;q=0.9","w0gdh3x8zg54jh0","39","[""White""]","No","Female","3513237.4000000358","null","","<p></p>","null","choice","cdt","repulsion_2","2","laptops","null","null","null","null","null","null","1","","","","","","","","","",""
"","","","","","choice_trial","survey-html-form","99","3143626","0.0-5.0-1.7","83","1","2025-04-11 14:36:27","bb671e3ae32f654b8954ea4c4635f915","","Mozilla/5.0 (Macintosh; Intel Mac OS X 10_15_7) AppleWebKit/537.36 (KHTML, like Gecko) Chrome/134.0.0.0 Safari/537.36","Macintosh","Chrome","134.0.0.0","OS X","10_15_7","https://hz8g1ckzuq.cognition.run/","en-US,en;q=0.9","w0gdh3x8zg54jh0","39","[""White""]","No","Female","3513237.4000000358","6885","","","{""product_choice"":""A""}","choice","cdt","repulsion_2","2","laptops","null","null","null","null","null","null","1","30","40","20","100","90","100","Processing speed","Memory (RAM)","",""
"","","","","","choice_trial_setup","html-keyboard-response","100","3143933","0.0-5.0-0.8","83","1","2025-04-11 14:36:27","bb671e3ae32f654b8954ea4c4635f915","","Mozilla/5.0 (Macintosh; Intel Mac OS X 10_15_7) AppleWebKit/537.36 (KHTML, like Gecko) Chrome/134.0.0.0 Safari/537.36","Macintosh","Chrome","134.0.0.0","OS X","10_15_7","https://hz8g1ckzuq.cognition.run/","en-US,en;q=0.9","w0gdh3x8zg54jh0","39","[""White""]","No","Female","3513237.4000000358","null","","<p></p>","null","choice","wwb","catch","null","microwave ovens","60","90","15","25","45","25","1","","","","","","","","","",""
"","","","","","choice_trial","survey-html-form","101","3160158","0.0-5.0-1.8","83","1","2025-04-11 14:36:27","bb671e3ae32f654b8954ea4c4635f915","","Mozilla/5.0 (Macintosh; Intel Mac OS X 10_15_7) AppleWebKit/537.36 (KHTML, like Gecko) Chrome/134.0.0.0 Safari/537.36","Macintosh","Chrome","134.0.0.0","OS X","10_15_7","https://hz8g1ckzuq.cognition.run/","en-US,en;q=0.9","w0gdh3x8zg54jh0","39","[""White""]","No","Female","3513237.4000000358","16217","","","{""product_choice"":""C""}","choice","wwb","catch","null","microwave ovens","60","90","15","25","45","25","1","null","null","null","null","null","null","Warranty","Cooking power","",""
"","","","","","choice_trial_setup","html-keyboard-response","102","3160463","0.0-5.0-0.9","83","1","2025-04-11 14:36:27","bb671e3ae32f654b8954ea4c4635f915","","Mozilla/5.0 (Macintosh; Intel Mac OS X 10_15_7) AppleWebKit/537.36 (KHTML, like Gecko) Chrome/134.0.0.0 Safari/537.36","Macintosh","Chrome","134.0.0.0","OS X","10_15_7","https://hz8g1ckzuq.cognition.run/","en-US,en;q=0.9","w0gdh3x8zg54jh0","39","[""White""]","No","Female","3513237.4000000358","null","","<p></p>","null","choice","dct","repulsion_1","1","televisions","null","null","null","null","null","null","2","","","","","","","","","",""
"","","","","","choice_trial","survey-html-form","103","3198843","0.0-5.0-1.9","83","1","2025-04-11 14:36:27","bb671e3ae32f654b8954ea4c4635f915","","Mozilla/5.0 (Macintosh; Intel Mac OS X 10_15_7) AppleWebKit/537.36 (KHTML, like Gecko) Chrome/134.0.0.0 Safari/537.36","Macintosh","Chrome","134.0.0.0","OS X","10_15_7","https://hz8g1ckzuq.cognition.run/","en-US,en;q=0.9","w0gdh3x8zg54jh0","39","[""White""]","No","Female","3513237.4000000358","38374","","","{""product_choice"":""B""}","choice","dct","repulsion_1","1","televisions","null","null","null","null","null","null","2","100","90","100","30","40","25","Screen size","Average lifespan","",""
"","","","","","choice_trial_setup","html-keyboard-response","104","3199149","0.0-5.0-0.10","83","1","2025-04-11 14:36:27","bb671e3ae32f654b8954ea4c4635f915","","Mozilla/5.0 (Macintosh; Intel Mac OS X 10_15_7) AppleWebKit/537.36 (KHTML, like Gecko) Chrome/134.0.0.0 Safari/537.36","Macintosh","Chrome","134.0.0.0","OS X","10_15_7","https://hz8g1ckzuq.cognition.run/","en-US,en;q=0.9","w0gdh3x8zg54jh0","39","[""White""]","No","Female","3513237.4000000358","null","","<p></p>","null","choice","tcd","repulsion_2","2","televisions","null","null","null","null","null","null","2","","","","","","","","","",""
"","","","","","choice_trial","survey-html-form","105","3204435","0.0-5.0-1.10","83","1","2025-04-11 14:36:27","bb671e3ae32f654b8954ea4c4635f915","","Mozilla/5.0 (Macintosh; Intel Mac OS X 10_15_7) AppleWebKit/537.36 (KHTML, like Gecko) Chrome/134.0.0.0 Safari/537.36","Macintosh","Chrome","134.0.0.0","OS X","10_15_7","https://hz8g1ckzuq.cognition.run/","en-US,en;q=0.9","w0gdh3x8zg54jh0","39","[""White""]","No","Female","3513237.4000000358","5280","","","{""product_choice"":""B""}","choice","tcd","repulsion_2","2","televisions","null","null","null","null","null","null","2","30","40","20","100","90","100","Screen size","Average lifespan","",""
"","","","","","choice_trial_setup","html-keyboard-response","106","3204741","0.0-5.0-0.11","83","1","2025-04-11 14:36:27","bb671e3ae32f654b8954ea4c4635f915","","Mozilla/5.0 (Macintosh; Intel Mac OS X 10_15_7) AppleWebKit/537.36 (KHTML, like Gecko) Chrome/134.0.0.0 Safari/537.36","Macintosh","Chrome","134.0.0.0","OS X","10_15_7","https://hz8g1ckzuq.cognition.run/","en-US,en;q=0.9","w0gdh3x8zg54jh0","39","[""White""]","No","Female","3513237.4000000358","null","","<p></p>","null","choice","ctd","repulsion_1","1","microwave ovens","null","null","null","null","null","null","1","","","","","","","","","",""
"","","","","","choice_trial","survey-html-form","107","3236155","0.0-5.0-1.11","83","1","2025-04-11 14:36:27","bb671e3ae32f654b8954ea4c4635f915","","Mozilla/5.0 (Macintosh; Intel Mac OS X 10_15_7) AppleWebKit/537.36 (KHTML, like Gecko) Chrome/134.0.0.0 Safari/537.36","Macintosh","Chrome","134.0.0.0","OS X","10_15_7","https://hz8g1ckzuq.cognition.run/","en-US,en;q=0.9","w0gdh3x8zg54jh0","39","[""White""]","No","Female","3513237.4000000358","31407","","","{""product_choice"":""A""}","choice","ctd","repulsion_1","1","microwave ovens","null","null","null","null","null","null","1","100","90","100","30","40","25","Warranty","Cooking power","",""
"","","","","","choice_trial_setup","html-keyboard-response","108","3236460","0.0-5.0-0.12","83","1","2025-04-11 14:36:27","bb671e3ae32f654b8954ea4c4635f915","","Mozilla/5.0 (Macintosh; Intel Mac OS X 10_15_7) AppleWebKit/537.36 (KHTML, like Gecko) Chrome/134.0.0.0 Safari/537.36","Macintosh","Chrome","134.0.0.0","OS X","10_15_7","https://hz8g1ckzuq.cognition.run/","en-US,en;q=0.9","w0gdh3x8zg54jh0","39","[""White""]","No","Female","3513237.4000000358","null","","<p></p>","null","choice","wwb","catch","null","laptops","80","50","10","40","25","30","1","","","","","","","","","",""
"","","","","","choice_trial","survey-html-form","109","3240181","0.0-5.0-1.12","83","1","2025-04-11 14:36:27","bb671e3ae32f654b8954ea4c4635f915","","Mozilla/5.0 (Macintosh; Intel Mac OS X 10_15_7) AppleWebKit/537.36 (KHTML, like Gecko) Chrome/134.0.0.0 Safari/537.36","Macintosh","Chrome","134.0.0.0","OS X","10_15_7","https://hz8g1ckzuq.cognition.run/","en-US,en;q=0.9","w0gdh3x8zg54jh0","39","[""White""]","No","Female","3513237.4000000358","3714","","","{""product_choice"":""C""}","choice","wwb","catch","null","laptops","80","50","10","40","25","30","1","null","null","null","null","null","null","Processing speed","Memory (RAM)","",""
"","","","","","choice_trial_setup","html-keyboard-response","110","3240488","0.0-5.0-0.13","83","1","2025-04-11 14:36:27","bb671e3ae32f654b8954ea4c4635f915","","Mozilla/5.0 (Macintosh; Intel Mac OS X 10_15_7) AppleWebKit/537.36 (KHTML, like Gecko) Chrome/134.0.0.0 Safari/537.36","Macintosh","Chrome","134.0.0.0","OS X","10_15_7","https://hz8g1ckzuq.cognition.run/","en-US,en;q=0.9","w0gdh3x8zg54jh0","39","[""White""]","No","Female","3513237.4000000358","null","","<p></p>","null","choice","dct","attraction_2","2","microwave ovens","null","null","null","null","null","null","2","","","","","","","","","",""
"","","","","","choice_trial","survey-html-form","111","3245838","0.0-5.0-1.13","83","1","2025-04-11 14:36:27","bb671e3ae32f654b8954ea4c4635f915","","Mozilla/5.0 (Macintosh; Intel Mac OS X 10_15_7) AppleWebKit/537.36 (KHTML, like Gecko) Chrome/134.0.0.0 Safari/537.36","Macintosh","Chrome","134.0.0.0","OS X","10_15_7","https://hz8g1ckzuq.cognition.run/","en-US,en;q=0.9","w0gdh3x8zg54jh0","39","[""White""]","No","Female","3513237.4000000358","5344","","","{""product_choice"":""C""}","choice","dct","attraction_2","2","microwave ovens","null","null","null","null","null","null","2","50","60","40","60","50","60","Warranty","Cooking power","",""
"","","","","","choice_trial_setup","html-keyboard-response","112","3246144","0.0-5.0-0.14","83","1","2025-04-11 14:36:27","bb671e3ae32f654b8954ea4c4635f915","","Mozilla/5.0 (Macintosh; Intel Mac OS X 10_15_7) AppleWebKit/537.36 (KHTML, like Gecko) Chrome/134.0.0.0 Safari/537.36","Macintosh","Chrome","134.0.0.0","OS X","10_15_7","https://hz8g1ckzuq.cognition.run/","en-US,en;q=0.9","w0gdh3x8zg54jh0","39","[""White""]","No","Female","3513237.4000000358","null","","<p></p>","null","choice","wbw","catch","null","washing machines","95","50","10","40","30","10","1","","","","","","","","","",""
"","","","","","choice_trial","survey-html-form","113","3252439","0.0-5.0-1.14","83","1","2025-04-11 14:36:27","bb671e3ae32f654b8954ea4c4635f915","","Mozilla/5.0 (Macintosh; Intel Mac OS X 10_15_7) AppleWebKit/537.36 (KHTML, like Gecko) Chrome/134.0.0.0 Safari/537.36","Macintosh","Chrome","134.0.0.0","OS X","10_15_7","https://hz8g1ckzuq.cognition.run/","en-US,en;q=0.9","w0gdh3x8zg54jh0","39","[""White""]","No","Female","3513237.4000000358","6288","","","{""product_choice"":""B""}","choice","wbw","catch","null","washing machines","95","50","10","40","30","10","1","null","null","null","null","null","null","Average lifespan","Energy savings","",""
"","","","","","choice_trial_setup","html-keyboard-response","114","3252746","0.0-5.0-0.15","83","1","2025-04-11 14:36:27","bb671e3ae32f654b8954ea4c4635f915","","Mozilla/5.0 (Macintosh; Intel Mac OS X 10_15_7) AppleWebKit/537.36 (KHTML, like Gecko) Chrome/134.0.0.0 Safari/537.36","Macintosh","Chrome","134.0.0.0","OS X","10_15_7","https://hz8g1ckzuq.cognition.run/","en-US,en;q=0.9","w0gdh3x8zg54jh0","39","[""White""]","No","Female","3513237.4000000358","null","","<p></p>","null","choice","wwb","catch","null","microwave ovens","60","75","45","5","5","50","1","","","","","","","","","",""
"","","","","","choice_trial","survey-html-form","115","3257730","0.0-5.0-1.15","83","1","2025-04-11 14:36:27","bb671e3ae32f654b8954ea4c4635f915","","Mozilla/5.0 (Macintosh; Intel Mac OS X 10_15_7) AppleWebKit/537.36 (KHTML, like Gecko) Chrome/134.0.0.0 Safari/537.36","Macintosh","Chrome","134.0.0.0","OS X","10_15_7","https://hz8g1ckzuq.cognition.run/","en-US,en;q=0.9","w0gdh3x8zg54jh0","39","[""White""]","No","Female","3513237.4000000358","4977","","","{""product_choice"":""C""}","choice","wwb","catch","null","microwave ovens","60","75","45","5","5","50","1","null","null","null","null","null","null","Warranty","Cooking power","",""
"","","","","","choice_trial_setup","html-keyboard-response","116","3258037","0.0-5.0-0.16","83","1","2025-04-11 14:36:27","bb671e3ae32f654b8954ea4c4635f915","","Mozilla/5.0 (Macintosh; Intel Mac OS X 10_15_7) AppleWebKit/537.36 (KHTML, like Gecko) Chrome/134.0.0.0 Safari/537.36","Macintosh","Chrome","134.0.0.0","OS X","10_15_7","https://hz8g1ckzuq.cognition.run/","en-US,en;q=0.9","w0gdh3x8zg54jh0","39","[""White""]","No","Female","3513237.4000000358","null","","<p></p>","null","choice","tcd","attraction_2","1","washing machines","null","null","null","null","null","null","1","","","","","","","","","",""
"","","","","","choice_trial","survey-html-form","117","3261934","0.0-5.0-1.16","83","1","2025-04-11 14:36:27","bb671e3ae32f654b8954ea4c4635f915","","Mozilla/5.0 (Macintosh; Intel Mac OS X 10_15_7) AppleWebKit/537.36 (KHTML, like Gecko) Chrome/134.0.0.0 Safari/537.36","Macintosh","Chrome","134.0.0.0","OS X","10_15_7","https://hz8g1ckzuq.cognition.run/","en-US,en;q=0.9","w0gdh3x8zg54jh0","39","[""White""]","No","Female","3513237.4000000358","3889","","","{""product_choice"":""B""}","choice","tcd","attraction_2","1","washing machines","null","null","null","null","null","null","1","60","50","60","50","60","40","Average lifespan","Energy savings","",""
"","","","","","choice_trial_setup","html-keyboard-response","118","3262240","0.0-5.0-0.17","83","1","2025-04-11 14:36:27","bb671e3ae32f654b8954ea4c4635f915","","Mozilla/5.0 (Macintosh; Intel Mac OS X 10_15_7) AppleWebKit/537.36 (KHTML, like Gecko) Chrome/134.0.0.0 Safari/537.36","Macintosh","Chrome","134.0.0.0","OS X","10_15_7","https://hz8g1ckzuq.cognition.run/","en-US,en;q=0.9","w0gdh3x8zg54jh0","39","[""White""]","No","Female","3513237.4000000358","null","","<p></p>","null","choice","tdc","attraction_2","2","laptops","null","null","null","null","null","null","1","","","","","","","","","",""
"","","","","","choice_trial","survey-html-form","119","3268926","0.0-5.0-1.17","83","1","2025-04-11 14:36:27","bb671e3ae32f654b8954ea4c4635f915","","Mozilla/5.0 (Macintosh; Intel Mac OS X 10_15_7) AppleWebKit/537.36 (KHTML, like Gecko) Chrome/134.0.0.0 Safari/537.36","Macintosh","Chrome","134.0.0.0","OS X","10_15_7","https://hz8g1ckzuq.cognition.run/","en-US,en;q=0.9","w0gdh3x8zg54jh0","39","[""White""]","No","Female","3513237.4000000358","6679","","","{""product_choice"":""A""}","choice","tdc","attraction_2","2","laptops","null","null","null","null","null","null","1","50","60","40","60","50","60","Processing speed","Memory (RAM)","",""
"","","","","","choice_trial_setup","html-keyboard-response","120","3269233","0.0-5.0-0.18","83","1","2025-04-11 14:36:27","bb671e3ae32f654b8954ea4c4635f915","","Mozilla/5.0 (Macintosh; Intel Mac OS X 10_15_7) AppleWebKit/537.36 (KHTML, like Gecko) Chrome/134.0.0.0 Safari/537.36","Macintosh","Chrome","134.0.0.0","OS X","10_15_7","https://hz8g1ckzuq.cognition.run/","en-US,en;q=0.9","w0gdh3x8zg54jh0","39","[""White""]","No","Female","3513237.4000000358","null","","<p></p>","null","choice","tcd","attraction_1","2","laptops","null","null","null","null","null","null","2","","","","","","","","","",""
"","","","","","choice_trial","survey-html-form","121","3275430","0.0-5.0-1.18","83","1","2025-04-11 14:36:27","bb671e3ae32f654b8954ea4c4635f915","","Mozilla/5.0 (Macintosh; Intel Mac OS X 10_15_7) AppleWebKit/537.36 (KHTML, like Gecko) Chrome/134.0.0.0 Safari/537.36","Macintosh","Chrome","134.0.0.0","OS X","10_15_7","https://hz8g1ckzuq.cognition.run/","en-US,en;q=0.9","w0gdh3x8zg54jh0","39","[""White""]","No","Female","3513237.4000000358","6191","","","{""product_choice"":""A""}","choice","tcd","attraction_1","2","laptops","null","null","null","null","null","null","2","50","60","45","60","50","60","Processing speed","Memory (RAM)","",""
"","","","","","choice_trial_setup","html-keyboard-response","122","3275738","0.0-5.0-0.19","83","1","2025-04-11 14:36:27","bb671e3ae32f654b8954ea4c4635f915","","Mozilla/5.0 (Macintosh; Intel Mac OS X 10_15_7) AppleWebKit/537.36 (KHTML, like Gecko) Chrome/134.0.0.0 Safari/537.36","Macintosh","Chrome","134.0.0.0","OS X","10_15_7","https://hz8g1ckzuq.cognition.run/","en-US,en;q=0.9","w0gdh3x8zg54jh0","39","[""White""]","No","Female","3513237.4000000358","null","","<p></p>","null","choice","cdt","attraction_1","2","microwave ovens","null","null","null","null","null","null","1","","","","","","","","","",""
"","","","","","choice_trial","survey-html-form","123","3284942","0.0-5.0-1.19","83","1","2025-04-11 14:36:27","bb671e3ae32f654b8954ea4c4635f915","","Mozilla/5.0 (Macintosh; Intel Mac OS X 10_15_7) AppleWebKit/537.36 (KHTML, like Gecko) Chrome/134.0.0.0 Safari/537.36","Macintosh","Chrome","134.0.0.0","OS X","10_15_7","https://hz8g1ckzuq.cognition.run/","en-US,en;q=0.9","w0gdh3x8zg54jh0","39","[""White""]","No","Female","3513237.4000000358","9197","","","{""product_choice"":""C""}","choice","cdt","attraction_1","2","microwave ovens","null","null","null","null","null","null","1","50","60","45","60","50","60","Warranty","Cooking power","",""
"","","","","","choice_trial_setup","html-keyboard-response","124","3285249","0.0-5.0-0.20","83","1","2025-04-11 14:36:27","bb671e3ae32f654b8954ea4c4635f915","","Mozilla/5.0 (Macintosh; Intel Mac OS X 10_15_7) AppleWebKit/537.36 (KHTML, like Gecko) Chrome/134.0.0.0 Safari/537.36","Macintosh","Chrome","134.0.0.0","OS X","10_15_7","https://hz8g1ckzuq.cognition.run/","en-US,en;q=0.9","w0gdh3x8zg54jh0","39","[""White""]","No","Female","3513237.4000000358","null","","<p></p>","null","choice","tcd","repulsion_2","1","microwave ovens","null","null","null","null","null","null","2","","","","","","","","","",""
"","","","","","choice_trial","survey-html-form","125","3295405","0.0-5.0-1.20","83","1","2025-04-11 14:36:27","bb671e3ae32f654b8954ea4c4635f915","","Mozilla/5.0 (Macintosh; Intel Mac OS X 10_15_7) AppleWebKit/537.36 (KHTML, like Gecko) Chrome/134.0.0.0 Safari/537.36","Macintosh","Chrome","134.0.0.0","OS X","10_15_7","https://hz8g1ckzuq.cognition.run/","en-US,en;q=0.9","w0gdh3x8zg54jh0","39","[""White""]","No","Female","3513237.4000000358","10149","","","{""product_choice"":""B""}","choice","tcd","repulsion_2","1","microwave ovens","null","null","null","null","null","null","2","100","90","100","30","40","20","Warranty","Cooking power","",""
"","","","","","choice_trial_setup","html-keyboard-response","126","3295712","0.0-5.0-0.21","83","1","2025-04-11 14:36:27","bb671e3ae32f654b8954ea4c4635f915","","Mozilla/5.0 (Macintosh; Intel Mac OS X 10_15_7) AppleWebKit/537.36 (KHTML, like Gecko) Chrome/134.0.0.0 Safari/537.36","Macintosh","Chrome","134.0.0.0","OS X","10_15_7","https://hz8g1ckzuq.cognition.run/","en-US,en;q=0.9","w0gdh3x8zg54jh0","39","[""White""]","No","Female","3513237.4000000358","null","","<p></p>","null","choice","bww","catch","null","televisions","85","80","10","15","30","30","2","","","","","","","","","",""
"","","","","","choice_trial","survey-html-form","127","3300181","0.0-5.0-1.21","83","1","2025-04-11 14:36:27","bb671e3ae32f654b8954ea4c4635f915","","Mozilla/5.0 (Macintosh; Intel Mac OS X 10_15_7) AppleWebKit/537.36 (KHTML, like Gecko) Chrome/134.0.0.0 Safari/537.36","Macintosh","Chrome","134.0.0.0","OS X","10_15_7","https://hz8g1ckzuq.cognition.run/","en-US,en;q=0.9","w0gdh3x8zg54jh0","39","[""White""]","No","Female","3513237.4000000358","4462","","","{""product_choice"":""A""}","choice","bww","catch","null","televisions","85","80","10","15","30","30","2","null","null","null","null","null","null","Screen size","Average lifespan","",""
"","","","","","choice_trial_setup","html-keyboard-response","128","3300488","0.0-5.0-0.22","83","1","2025-04-11 14:36:27","bb671e3ae32f654b8954ea4c4635f915","","Mozilla/5.0 (Macintosh; Intel Mac OS X 10_15_7) AppleWebKit/537.36 (KHTML, like Gecko) Chrome/134.0.0.0 Safari/537.36","Macintosh","Chrome","134.0.0.0","OS X","10_15_7","https://hz8g1ckzuq.cognition.run/","en-US,en;q=0.9","w0gdh3x8zg54jh0","39","[""White""]","No","Female","3513237.4000000358","null","","<p></p>","null","choice","dct","repulsion_2","1","televisions","null","null","null","null","null","null","2","","","","","","","","","",""
"","","","","","choice_trial","survey-html-form","129","3306992","0.0-5.0-1.22","83","1","2025-04-11 14:36:27","bb671e3ae32f654b8954ea4c4635f915","","Mozilla/5.0 (Macintosh; Intel Mac OS X 10_15_7) AppleWebKit/537.36 (KHTML, like Gecko) Chrome/134.0.0.0 Safari/537.36","Macintosh","Chrome","134.0.0.0","OS X","10_15_7","https://hz8g1ckzuq.cognition.run/","en-US,en;q=0.9","w0gdh3x8zg54jh0","39","[""White""]","No","Female","3513237.4000000358","6498","","","{""product_choice"":""B""}","choice","dct","repulsion_2","1","televisions","null","null","null","null","null","null","2","100","90","100","30","40","20","Screen size","Average lifespan","",""
"","","","","","choice_trial_setup","html-keyboard-response","130","3307299","0.0-5.0-0.23","83","1","2025-04-11 14:36:27","bb671e3ae32f654b8954ea4c4635f915","","Mozilla/5.0 (Macintosh; Intel Mac OS X 10_15_7) AppleWebKit/537.36 (KHTML, like Gecko) Chrome/134.0.0.0 Safari/537.36","Macintosh","Chrome","134.0.0.0","OS X","10_15_7","https://hz8g1ckzuq.cognition.run/","en-US,en;q=0.9","w0gdh3x8zg54jh0","39","[""White""]","No","Female","3513237.4000000358","null","","<p></p>","null","choice","dct","attraction_1","2","washing machines","null","null","null","null","null","null","2","","","","","","","","","",""
"","","","","","choice_trial","survey-html-form","131","3312022","0.0-5.0-1.23","83","1","2025-04-11 14:36:27","bb671e3ae32f654b8954ea4c4635f915","","Mozilla/5.0 (Macintosh; Intel Mac OS X 10_15_7) AppleWebKit/537.36 (KHTML, like Gecko) Chrome/134.0.0.0 Safari/537.36","Macintosh","Chrome","134.0.0.0","OS X","10_15_7","https://hz8g1ckzuq.cognition.run/","en-US,en;q=0.9","w0gdh3x8zg54jh0","39","[""White""]","No","Female","3513237.4000000358","4716","","","{""product_choice"":""C""}","choice","dct","attraction_1","2","washing machines","null","null","null","null","null","null","2","50","60","45","60","50","60","Average lifespan","Energy savings","",""
"","","","","","choice_trial_setup","html-keyboard-response","132","3312329","0.0-5.0-0.24","83","1","2025-04-11 14:36:27","bb671e3ae32f654b8954ea4c4635f915","","Mozilla/5.0 (Macintosh; Intel Mac OS X 10_15_7) AppleWebKit/537.36 (KHTML, like Gecko) Chrome/134.0.0.0 Safari/537.36","Macintosh","Chrome","134.0.0.0","OS X","10_15_7","https://hz8g1ckzuq.cognition.run/","en-US,en;q=0.9","w0gdh3x8zg54jh0","39","[""White""]","No","Female","3513237.4000000358","null","","<p></p>","null","choice","cdt","repulsion_1","1","laptops","null","null","null","null","null","null","2","","","","","","","","","",""
"","","","","","choice_trial","survey-html-form","133","3319509","0.0-5.0-1.24","83","1","2025-04-11 14:36:27","bb671e3ae32f654b8954ea4c4635f915","","Mozilla/5.0 (Macintosh; Intel Mac OS X 10_15_7) AppleWebKit/537.36 (KHTML, like Gecko) Chrome/134.0.0.0 Safari/537.36","Macintosh","Chrome","134.0.0.0","OS X","10_15_7","https://hz8g1ckzuq.cognition.run/","en-US,en;q=0.9","w0gdh3x8zg54jh0","39","[""White""]","No","Female","3513237.4000000358","7172","","","{""product_choice"":""A""}","choice","cdt","repulsion_1","1","laptops","null","null","null","null","null","null","2","100","90","100","30","40","25","Processing speed","Memory (RAM)","",""
"","","","","","choice_trial_setup","html-keyboard-response","134","3319814","0.0-5.0-0.25","83","1","2025-04-11 14:36:27","bb671e3ae32f654b8954ea4c4635f915","","Mozilla/5.0 (Macintosh; Intel Mac OS X 10_15_7) AppleWebKit/537.36 (KHTML, like Gecko) Chrome/134.0.0.0 Safari/537.36","Macintosh","Chrome","134.0.0.0","OS X","10_15_7","https://hz8g1ckzuq.cognition.run/","en-US,en;q=0.9","w0gdh3x8zg54jh0","39","[""White""]","No","Female","3513237.4000000358","null","","<p></p>","null","choice","cdt","repulsion_1","2","microwave ovens","null","null","null","null","null","null","1","","","","","","","","","",""
"","","","","","choice_trial","survey-html-form","135","3328672","0.0-5.0-1.25","83","1","2025-04-11 14:36:27","bb671e3ae32f654b8954ea4c4635f915","","Mozilla/5.0 (Macintosh; Intel Mac OS X 10_15_7) AppleWebKit/537.36 (KHTML, like Gecko) Chrome/134.0.0.0 Safari/537.36","Macintosh","Chrome","134.0.0.0","OS X","10_15_7","https://hz8g1ckzuq.cognition.run/","en-US,en;q=0.9","w0gdh3x8zg54jh0","39","[""White""]","No","Female","3513237.4000000358","8850","","","{""product_choice"":""A""}","choice","cdt","repulsion_1","2","microwave ovens","null","null","null","null","null","null","1","30","40","25","100","90","100","Warranty","Cooking power","",""
"","","","","","choice_trial_setup","html-keyboard-response","136","3328977","0.0-5.0-0.26","83","1","2025-04-11 14:36:27","bb671e3ae32f654b8954ea4c4635f915","","Mozilla/5.0 (Macintosh; Intel Mac OS X 10_15_7) AppleWebKit/537.36 (KHTML, like Gecko) Chrome/134.0.0.0 Safari/537.36","Macintosh","Chrome","134.0.0.0","OS X","10_15_7","https://hz8g1ckzuq.cognition.run/","en-US,en;q=0.9","w0gdh3x8zg54jh0","39","[""White""]","No","Female","3513237.4000000358","null","","<p></p>","null","choice","tdc","repulsion_1","1","washing machines","null","null","null","null","null","null","2","","","","","","","","","",""
"","","","","","choice_trial","survey-html-form","137","3332500","0.0-5.0-1.26","83","1","2025-04-11 14:36:27","bb671e3ae32f654b8954ea4c4635f915","","Mozilla/5.0 (Macintosh; Intel Mac OS X 10_15_7) AppleWebKit/537.36 (KHTML, like Gecko) Chrome/134.0.0.0 Safari/537.36","Macintosh","Chrome","134.0.0.0","OS X","10_15_7","https://hz8g1ckzuq.cognition.run/","en-US,en;q=0.9","w0gdh3x8zg54jh0","39","[""White""]","No","Female","3513237.4000000358","3517","","","{""product_choice"":""C""}","choice","tdc","repulsion_1","1","washing machines","null","null","null","null","null","null","2","100","90","100","30","40","25","Average lifespan","Energy savings","",""
"","","","","","choice_trial_setup","html-keyboard-response","138","3332806","0.0-5.0-0.27","83","1","2025-04-11 14:36:27","bb671e3ae32f654b8954ea4c4635f915","","Mozilla/5.0 (Macintosh; Intel Mac OS X 10_15_7) AppleWebKit/537.36 (KHTML, like Gecko) Chrome/134.0.0.0 Safari/537.36","Macintosh","Chrome","134.0.0.0","OS X","10_15_7","https://hz8g1ckzuq.cognition.run/","en-US,en;q=0.9","w0gdh3x8zg54jh0","39","[""White""]","No","Female","3513237.4000000358","null","","<p></p>","null","choice","cdt","attraction_2","2","washing machines","null","null","null","null","null","null","1","","","","","","","","","",""
"","","","","","choice_trial","survey-html-form","139","3336547","0.0-5.0-1.27","83","1","2025-04-11 14:36:27","bb671e3ae32f654b8954ea4c4635f915","","Mozilla/5.0 (Macintosh; Intel Mac OS X 10_15_7) AppleWebKit/537.36 (KHTML, like Gecko) Chrome/134.0.0.0 Safari/537.36","Macintosh","Chrome","134.0.0.0","OS X","10_15_7","https://hz8g1ckzuq.cognition.run/","en-US,en;q=0.9","w0gdh3x8zg54jh0","39","[""White""]","No","Female","3513237.4000000358","3733","","","{""product_choice"":""C""}","choice","cdt","attraction_2","2","washing machines","null","null","null","null","null","null","1","50","60","40","60","50","60","Average lifespan","Energy savings","",""
"","","","","","choice_trial_setup","html-keyboard-response","140","3336855","0.0-5.0-0.28","83","1","2025-04-11 14:36:27","bb671e3ae32f654b8954ea4c4635f915","","Mozilla/5.0 (Macintosh; Intel Mac OS X 10_15_7) AppleWebKit/537.36 (KHTML, like Gecko) Chrome/134.0.0.0 Safari/537.36","Macintosh","Chrome","134.0.0.0","OS X","10_15_7","https://hz8g1ckzuq.cognition.run/","en-US,en;q=0.9","w0gdh3x8zg54jh0","39","[""White""]","No","Female","3513237.4000000358","null","","<p></p>","null","choice","dct","attraction_2","2","televisions","null","null","null","null","null","null","2","","","","","","","","","",""
"","","","","","choice_trial","survey-html-form","141","3340360","0.0-5.0-1.28","83","1","2025-04-11 14:36:27","bb671e3ae32f654b8954ea4c4635f915","","Mozilla/5.0 (Macintosh; Intel Mac OS X 10_15_7) AppleWebKit/537.36 (KHTML, like Gecko) Chrome/134.0.0.0 Safari/537.36","Macintosh","Chrome","134.0.0.0","OS X","10_15_7","https://hz8g1ckzuq.cognition.run/","en-US,en;q=0.9","w0gdh3x8zg54jh0","39","[""White""]","No","Female","3513237.4000000358","3497","","","{""product_choice"":""B""}","choice","dct","attraction_2","2","televisions","null","null","null","null","null","null","2","50","60","40","60","50","60","Screen size","Average lifespan","",""
"","","","","","choice_trial_setup","html-keyboard-response","142","3340668","0.0-5.0-0.29","83","1","2025-04-11 14:36:27","bb671e3ae32f654b8954ea4c4635f915","","Mozilla/5.0 (Macintosh; Intel Mac OS X 10_15_7) AppleWebKit/537.36 (KHTML, like Gecko) Chrome/134.0.0.0 Safari/537.36","Macintosh","Chrome","134.0.0.0","OS X","10_15_7","https://hz8g1ckzuq.cognition.run/","en-US,en;q=0.9","w0gdh3x8zg54jh0","39","[""White""]","No","Female","3513237.4000000358","null","","<p></p>","null","choice","ctd","attraction_1","1","microwave ovens","null","null","null","null","null","null","2","","","","","","","","","",""
"","","","","","choice_trial","survey-html-form","143","3346559","0.0-5.0-1.29","83","1","2025-04-11 14:36:27","bb671e3ae32f654b8954ea4c4635f915","","Mozilla/5.0 (Macintosh; Intel Mac OS X 10_15_7) AppleWebKit/537.36 (KHTML, like Gecko) Chrome/134.0.0.0 Safari/537.36","Macintosh","Chrome","134.0.0.0","OS X","10_15_7","https://hz8g1ckzuq.cognition.run/","en-US,en;q=0.9","w0gdh3x8zg54jh0","39","[""White""]","No","Female","3513237.4000000358","5883","","","{""product_choice"":""A""}","choice","ctd","attraction_1","1","microwave ovens","null","null","null","null","null","null","2","60","50","60","50","60","45","Warranty","Cooking power","",""
"","","","","","choice_trial_setup","html-keyboard-response","144","3346866","0.0-5.0-0.30","83","1","2025-04-11 14:36:27","bb671e3ae32f654b8954ea4c4635f915","","Mozilla/5.0 (Macintosh; Intel Mac OS X 10_15_7) AppleWebKit/537.36 (KHTML, like Gecko) Chrome/134.0.0.0 Safari/537.36","Macintosh","Chrome","134.0.0.0","OS X","10_15_7","https://hz8g1ckzuq.cognition.run/","en-US,en;q=0.9","w0gdh3x8zg54jh0","39","[""White""]","No","Female","3513237.4000000358","null","","<p></p>","null","choice","dtc","attraction_1","1","televisions","null","null","null","null","null","null","2","","","","","","","","","",""
"","","","","","choice_trial","survey-html-form","145","3350913","0.0-5.0-1.30","83","1","2025-04-11 14:36:27","bb671e3ae32f654b8954ea4c4635f915","","Mozilla/5.0 (Macintosh; Intel Mac OS X 10_15_7) AppleWebKit/537.36 (KHTML, like Gecko) Chrome/134.0.0.0 Safari/537.36","Macintosh","Chrome","134.0.0.0","OS X","10_15_7","https://hz8g1ckzuq.cognition.run/","en-US,en;q=0.9","w0gdh3x8zg54jh0","39","[""White""]","No","Female","3513237.4000000358","4040","","","{""product_choice"":""B""}","choice","dtc","attraction_1","1","televisions","null","null","null","null","null","null","2","60","50","60","50","60","45","Screen size","Average lifespan","",""
"","","","","","choice_trial_setup","html-keyboard-response","146","3351220","0.0-5.0-0.31","83","1","2025-04-11 14:36:27","bb671e3ae32f654b8954ea4c4635f915","","Mozilla/5.0 (Macintosh; Intel Mac OS X 10_15_7) AppleWebKit/537.36 (KHTML, like Gecko) Chrome/134.0.0.0 Safari/537.36","Macintosh","Chrome","134.0.0.0","OS X","10_15_7","https://hz8g1ckzuq.cognition.run/","en-US,en;q=0.9","w0gdh3x8zg54jh0","39","[""White""]","No","Female","3513237.4000000358","null","","<p></p>","null","choice","ctd","attraction_1","2","televisions","null","null","null","null","null","null","1","","","","","","","","","",""
"","","","","","choice_trial","survey-html-form","147","3356109","0.0-5.0-1.31","83","1","2025-04-11 14:36:27","bb671e3ae32f654b8954ea4c4635f915","","Mozilla/5.0 (Macintosh; Intel Mac OS X 10_15_7) AppleWebKit/537.36 (KHTML, like Gecko) Chrome/134.0.0.0 Safari/537.36","Macintosh","Chrome","134.0.0.0","OS X","10_15_7","https://hz8g1ckzuq.cognition.run/","en-US,en;q=0.9","w0gdh3x8zg54jh0","39","[""White""]","No","Female","3513237.4000000358","4881","","","{""product_choice"":""A""}","choice","ctd","attraction_1","2","televisions","null","null","null","null","null","null","1","50","60","45","60","50","60","Screen size","Average lifespan","",""
"","","","","","choice_trial_setup","html-keyboard-response","148","3356415","0.0-5.0-0.32","83","1","2025-04-11 14:36:27","bb671e3ae32f654b8954ea4c4635f915","","Mozilla/5.0 (Macintosh; Intel Mac OS X 10_15_7) AppleWebKit/537.36 (KHTML, like Gecko) Chrome/134.0.0.0 Safari/537.36","Macintosh","Chrome","134.0.0.0","OS X","10_15_7","https://hz8g1ckzuq.cognition.run/","en-US,en;q=0.9","w0gdh3x8zg54jh0","39","[""White""]","No","Female","3513237.4000000358","null","","<p></p>","null","choice","tcd","attraction_1","1","laptops","null","null","null","null","null","null","2","","","","","","","","","",""
"","","","","","choice_trial","survey-html-form","149","3363051","0.0-5.0-1.32","83","1","2025-04-11 14:36:27","bb671e3ae32f654b8954ea4c4635f915","","Mozilla/5.0 (Macintosh; Intel Mac OS X 10_15_7) AppleWebKit/537.36 (KHTML, like Gecko) Chrome/134.0.0.0 Safari/537.36","Macintosh","Chrome","134.0.0.0","OS X","10_15_7","https://hz8g1ckzuq.cognition.run/","en-US,en;q=0.9","w0gdh3x8zg54jh0","39","[""White""]","No","Female","3513237.4000000358","6629","","","{""product_choice"":""B""}","choice","tcd","attraction_1","1","laptops","null","null","null","null","null","null","2","60","50","60","50","60","45","Processing speed","Memory (RAM)","",""
"","","","","","choice_trial_setup","html-keyboard-response","150","3363357","0.0-5.0-0.33","83","1","2025-04-11 14:36:27","bb671e3ae32f654b8954ea4c4635f915","","Mozilla/5.0 (Macintosh; Intel Mac OS X 10_15_7) AppleWebKit/537.36 (KHTML, like Gecko) Chrome/134.0.0.0 Safari/537.36","Macintosh","Chrome","134.0.0.0","OS X","10_15_7","https://hz8g1ckzuq.cognition.run/","en-US,en;q=0.9","w0gdh3x8zg54jh0","39","[""White""]","No","Female","3513237.4000000358","null","","<p></p>","null","choice","dct","repulsion_2","2","microwave ovens","null","null","null","null","null","null","1","","","","","","","","","",""
"","","","","","choice_trial","survey-html-form","151","3366905","0.0-5.0-1.33","83","1","2025-04-11 14:36:27","bb671e3ae32f654b8954ea4c4635f915","","Mozilla/5.0 (Macintosh; Intel Mac OS X 10_15_7) AppleWebKit/537.36 (KHTML, like Gecko) Chrome/134.0.0.0 Safari/537.36","Macintosh","Chrome","134.0.0.0","OS X","10_15_7","https://hz8g1ckzuq.cognition.run/","en-US,en;q=0.9","w0gdh3x8zg54jh0","39","[""White""]","No","Female","3513237.4000000358","3540","","","{""product_choice"":""C""}","choice","dct","repulsion_2","2","microwave ovens","null","null","null","null","null","null","1","30","40","20","100","90","100","Warranty","Cooking power","",""
"","","","","","choice_trial_setup","html-keyboard-response","152","3367214","0.0-5.0-0.34","83","1","2025-04-11 14:36:27","bb671e3ae32f654b8954ea4c4635f915","","Mozilla/5.0 (Macintosh; Intel Mac OS X 10_15_7) AppleWebKit/537.36 (KHTML, like Gecko) Chrome/134.0.0.0 Safari/537.36","Macintosh","Chrome","134.0.0.0","OS X","10_15_7","https://hz8g1ckzuq.cognition.run/","en-US,en;q=0.9","w0gdh3x8zg54jh0","39","[""White""]","No","Female","3513237.4000000358","null","","<p></p>","null","choice","dct","attraction_1","1","washing machines","null","null","null","null","null","null","2","","","","","","","","","",""
"","","","","","choice_trial","survey-html-form","153","3371367","0.0-5.0-1.34","83","1","2025-04-11 14:36:27","bb671e3ae32f654b8954ea4c4635f915","","Mozilla/5.0 (Macintosh; Intel Mac OS X 10_15_7) AppleWebKit/537.36 (KHTML, like Gecko) Chrome/134.0.0.0 Safari/537.36","Macintosh","Chrome","134.0.0.0","OS X","10_15_7","https://hz8g1ckzuq.cognition.run/","en-US,en;q=0.9","w0gdh3x8zg54jh0","39","[""White""]","No","Female","3513237.4000000358","4146","","","{""product_choice"":""B""}","choice","dct","attraction_1","1","washing machines","null","null","null","null","null","null","2","60","50","60","50","60","45","Average lifespan","Energy savings","",""
"","","","","","choice_trial_setup","html-keyboard-response","154","3371675","0.0-5.0-0.35","83","1","2025-04-11 14:36:27","bb671e3ae32f654b8954ea4c4635f915","","Mozilla/5.0 (Macintosh; Intel Mac OS X 10_15_7) AppleWebKit/537.36 (KHTML, like Gecko) Chrome/134.0.0.0 Safari/537.36","Macintosh","Chrome","134.0.0.0","OS X","10_15_7","https://hz8g1ckzuq.cognition.run/","en-US,en;q=0.9","w0gdh3x8zg54jh0","39","[""White""]","No","Female","3513237.4000000358","null","","<p></p>","null","choice","ctd","attraction_2","1","laptops","null","null","null","null","null","null","2","","","","","","","","","",""
