"success","timeout","failed_images","failed_audio","failed_video","screen_id","trial_type","trial_index","time_elapsed","internal_node_id","run_id","condition","recorded_at","source_code_version","ip","user_agent","device","browser","browser_version","platform","platform_version","referer","accept_language","ppt_id","age","race","ethnicity","gender","exp_duration","rt","view_history","stimulus","response","phase","order","effect","t_high","category","d1_best","d2_best","d1_worst1","d2_worst1","d1_worst2","d2_worst2","first_dim","d1_t","d1_c","d1_d","d2_t","d2_c","d2_d","d1_name","d2_name","strategy_response","question_order"
"true","false","[]","[]","[]","img preload","preload","0","3778","0.0-0.0","84","1","2025-04-11 14:36:30","bb671e3ae32f654b8954ea4c4635f915","","Mozilla/5.0 (Windows NT 10.0; Win64; x64) AppleWebKit/537.36 (KHTML, like Gecko) Chrome/134.0.0.0 Safari/537.36","WebKit","Chrome","134.0.0.0","Windows","10.0","https://hz8g1ckzuq.cognition.run/","en-US,en;q=0.9","3dgv4yuovb0frjk","22","[""Black or African-American""]","No","Male","3340915.900000006","","","","","","","","","","","","","","","","","","","","","","","","","",""
"true","","","","","","fullscreen","1","14777","0.0-1.0","84","1","2025-04-11 14:36:30","bb671e3ae32f654b8954ea4c4635f915","","Mozilla/5.0 (Windows NT 10.0; Win64; x64) AppleWebKit/537.36 (KHTML, like Gecko) Chrome/134.0.0.0 Safari/537.36","WebKit","Chrome","134.0.0.0","Windows","10.0","https://hz8g1ckzuq.cognition.run/","en-US,en;q=0.9","3dgv4yuovb0frjk","22","[""Black or African-American""]","No","Male","3340915.900000006","9946","","","","","","","","","","","","","","","","","","","","","","","","",""
"","","","","","","instructions","2","148874","0.0-2.0","84","1","2025-04-11 14:36:30","bb671e3ae32f654b8954ea4c4635f915","","Mozilla/5.0 (Windows NT 10.0; Win64; x64) AppleWebKit/537.36 (KHTML, like Gecko) Chrome/134.0.0.0 Safari/537.36","WebKit","Chrome","134.0.0.0","Windows","10.0","https://hz8g1ckzuq.cognition.run/","en-US,en;q=0.9","3dgv4yuovb0frjk","22","[""Black or African-American""]","No","Male","3340915.900000006","134095","[{""page_index"":0,""viewing_time"":5745},{""page_index"":1,""viewing_time"":5145},{""page_index"":2,""viewing_time"":4774},{""page_index"":3,""viewing_time"":7842},{""page_index"":4,""viewing_time"":62069},{""page_index"":5,""viewing_time"":7846},{""page_index"":6,""viewing_time"":5601},{""page_index"":7,""viewing_time"":21001},{""page_index"":8,""viewing_time"":7732},{""page_index"":9,""viewing_time"":6341}]","","","","","","","","","","","","","","","","","","","","","","","",""
"","","","","","rating_trial_setup","html-keyboard-response","3","149178","0.0-3.0-0.0","84","1","2025-04-11 14:36:30","bb671e3ae32f654b8954ea4c4635f915","","Mozilla/5.0 (Windows NT 10.0; Win64; x64) AppleWebKit/537.36 (KHTML, like Gecko) Chrome/134.0.0.0 Safari/537.36","WebKit","Chrome","134.0.0.0","Windows","10.0","https://hz8g1ckzuq.cognition.run/","en-US,en;q=0.9","3dgv4yuovb0frjk","22","[""Black or African-American""]","No","Male","3340915.900000006","null","","<p></p>","null","rating","wbw","catch","null","laptops","70","80","40","30","20","20","1","","","","","","","","","",""
"","","","","","rating_trial","survey-html-form","4","214860","0.0-3.0-1.0","84","1","2025-04-11 14:36:30","bb671e3ae32f654b8954ea4c4635f915","","Mozilla/5.0 (Windows NT 10.0; Win64; x64) AppleWebKit/537.36 (KHTML, like Gecko) Chrome/134.0.0.0 Safari/537.36","WebKit","Chrome","134.0.0.0","Windows","10.0","https://hz8g1ckzuq.cognition.run/","en-US,en;q=0.9","3dgv4yuovb0frjk","22","[""Black or African-American""]","No","Male","3340915.900000006","65680","","","{""price_1"":""500"",""price_2"":""900"",""price_3"":""100""}","rating","wbw","catch","null","laptops","70","80","40","30","20","20","1","null","null","null","null","null","null","Processing speed","Memory (RAM)","",""
"","","","","","rating_trial_setup","html-keyboard-response","5","215162","0.0-3.0-0.1","84","1","2025-04-11 14:36:30","bb671e3ae32f654b8954ea4c4635f915","","Mozilla/5.0 (Windows NT 10.0; Win64; x64) AppleWebKit/537.36 (KHTML, like Gecko) Chrome/134.0.0.0 Safari/537.36","WebKit","Chrome","134.0.0.0","Windows","10.0","https://hz8g1ckzuq.cognition.run/","en-US,en;q=0.9","3dgv4yuovb0frjk","22","[""Black or African-American""]","No","Male","3340915.900000006","null","","<p></p>","null","rating","wbw","catch","null","laptops","80","75","50","50","10","30","2","","","","","","","","","",""
"","","","","","rating_trial","survey-html-form","6","241680","0.0-3.0-1.1","84","1","2025-04-11 14:36:30","bb671e3ae32f654b8954ea4c4635f915","","Mozilla/5.0 (Windows NT 10.0; Win64; x64) AppleWebKit/537.36 (KHTML, like Gecko) Chrome/134.0.0.0 Safari/537.36","WebKit","Chrome","134.0.0.0","Windows","10.0","https://hz8g1ckzuq.cognition.run/","en-US,en;q=0.9","3dgv4yuovb0frjk","22","[""Black or African-American""]","No","Male","3340915.900000006","26516","","","{""price_1"":""520"",""price_2"":""950"",""price_3"":""90""}","rating","wbw","catch","null","laptops","80","75","50","50","10","30","2","null","null","null","null","null","null","Processing speed","Memory (RAM)","",""
"","","","","","rating_trial_setup","html-keyboard-response","7","241983","0.0-3.0-0.2","84","1","2025-04-11 14:36:30","bb671e3ae32f654b8954ea4c4635f915","","Mozilla/5.0 (Windows NT 10.0; Win64; x64) AppleWebKit/537.36 (KHTML, like Gecko) Chrome/134.0.0.0 Safari/537.36","WebKit","Chrome","134.0.0.0","Windows","10.0","https://hz8g1ckzuq.cognition.run/","en-US,en;q=0.9","3dgv4yuovb0frjk","22","[""Black or African-American""]","No","Male","3340915.900000006","null","","<p></p>","null","rating","tcd","attraction_1","2","televisions","null","null","null","null","null","null","2","","","","","","","","","",""
"","","","","","rating_trial","survey-html-form","8","296206","0.0-3.0-1.2","84","1","2025-04-11 14:36:30","bb671e3ae32f654b8954ea4c4635f915","","Mozilla/5.0 (Windows NT 10.0; Win64; x64) AppleWebKit/537.36 (KHTML, like Gecko) Chrome/134.0.0.0 Safari/537.36","WebKit","Chrome","134.0.0.0","Windows","10.0","https://hz8g1ckzuq.cognition.run/","en-US,en;q=0.9","3dgv4yuovb0frjk","22","[""Black or African-American""]","No","Male","3340915.900000006","54222","","","{""price_1"":""120"",""price_2"":""129"",""price_3"":""98""}","rating","tcd","attraction_1","2","televisions","null","null","null","null","null","null","2","50","60","45","60","50","60","Screen size","Average lifespan","",""
"","","","","","rating_trial_setup","html-keyboard-response","9","296509","0.0-3.0-0.3","84","1","2025-04-11 14:36:30","bb671e3ae32f654b8954ea4c4635f915","","Mozilla/5.0 (Windows NT 10.0; Win64; x64) AppleWebKit/537.36 (KHTML, like Gecko) Chrome/134.0.0.0 Safari/537.36","WebKit","Chrome","134.0.0.0","Windows","10.0","https://hz8g1ckzuq.cognition.run/","en-US,en;q=0.9","3dgv4yuovb0frjk","22","[""Black or African-American""]","No","Male","3340915.900000006","null","","<p></p>","null","rating","dtc","repulsion_1","1","washing machines","null","null","null","null","null","null","1","","","","","","","","","",""
"","","","","","rating_trial","survey-html-form","10","336190","0.0-3.0-1.3","84","1","2025-04-11 14:36:30","bb671e3ae32f654b8954ea4c4635f915","","Mozilla/5.0 (Windows NT 10.0; Win64; x64) AppleWebKit/537.36 (KHTML, like Gecko) Chrome/134.0.0.0 Safari/537.36","WebKit","Chrome","134.0.0.0","Windows","10.0","https://hz8g1ckzuq.cognition.run/","en-US,en;q=0.9","3dgv4yuovb0frjk","22","[""Black or African-American""]","No","Male","3340915.900000006","39679","","","{""price_1"":""115"",""price_2"":""180"",""price_3"":""130""}","rating","dtc","repulsion_1","1","washing machines","null","null","null","null","null","null","1","100","90","100","30","40","25","Average lifespan","Energy savings","",""
"","","","","","rating_trial_setup","html-keyboard-response","11","336493","0.0-3.0-0.4","84","1","2025-04-11 14:36:30","bb671e3ae32f654b8954ea4c4635f915","","Mozilla/5.0 (Windows NT 10.0; Win64; x64) AppleWebKit/537.36 (KHTML, like Gecko) Chrome/134.0.0.0 Safari/537.36","WebKit","Chrome","134.0.0.0","Windows","10.0","https://hz8g1ckzuq.cognition.run/","en-US,en;q=0.9","3dgv4yuovb0frjk","22","[""Black or African-American""]","No","Male","3340915.900000006","null","","<p></p>","null","rating","ctd","attraction_2","1","televisions","null","null","null","null","null","null","1","","","","","","","","","",""
"","","","","","rating_trial","survey-html-form","12","368460","0.0-3.0-1.4","84","1","2025-04-11 14:36:30","bb671e3ae32f654b8954ea4c4635f915","","Mozilla/5.0 (Windows NT 10.0; Win64; x64) AppleWebKit/537.36 (KHTML, like Gecko) Chrome/134.0.0.0 Safari/537.36","WebKit","Chrome","134.0.0.0","Windows","10.0","https://hz8g1ckzuq.cognition.run/","en-US,en;q=0.9","3dgv4yuovb0frjk","22","[""Black or African-American""]","No","Male","3340915.900000006","31965","","","{""price_1"":""115"",""price_2"":""120"",""price_3"":""98""}","rating","ctd","attraction_2","1","televisions","null","null","null","null","null","null","1","60","50","60","50","60","40","Screen size","Average lifespan","",""
"","","","","","rating_trial_setup","html-keyboard-response","13","368763","0.0-3.0-0.5","84","1","2025-04-11 14:36:30","bb671e3ae32f654b8954ea4c4635f915","","Mozilla/5.0 (Windows NT 10.0; Win64; x64) AppleWebKit/537.36 (KHTML, like Gecko) Chrome/134.0.0.0 Safari/537.36","WebKit","Chrome","134.0.0.0","Windows","10.0","https://hz8g1ckzuq.cognition.run/","en-US,en;q=0.9","3dgv4yuovb0frjk","22","[""Black or African-American""]","No","Male","3340915.900000006","null","","<p></p>","null","rating","dtc","repulsion_1","2","microwave ovens","null","null","null","null","null","null","2","","","","","","","","","",""
"","","","","","rating_trial","survey-html-form","14","481254","0.0-3.0-1.5","84","1","2025-04-11 14:36:30","bb671e3ae32f654b8954ea4c4635f915","","Mozilla/5.0 (Windows NT 10.0; Win64; x64) AppleWebKit/537.36 (KHTML, like Gecko) Chrome/134.0.0.0 Safari/537.36","WebKit","Chrome","134.0.0.0","Windows","10.0","https://hz8g1ckzuq.cognition.run/","en-US,en;q=0.9","3dgv4yuovb0frjk","22","[""Black or African-American""]","No","Male","3340915.900000006","112489","","","{""price_1"":""125"",""price_2"":""135"",""price_3"":""130""}","rating","dtc","repulsion_1","2","microwave ovens","null","null","null","null","null","null","2","30","40","25","100","90","100","Warranty","Cooking power","",""
"","","","","","rating_trial_setup","html-keyboard-response","15","481558","0.0-3.0-0.6","84","1","2025-04-11 14:36:30","bb671e3ae32f654b8954ea4c4635f915","","Mozilla/5.0 (Windows NT 10.0; Win64; x64) AppleWebKit/537.36 (KHTML, like Gecko) Chrome/134.0.0.0 Safari/537.36","WebKit","Chrome","134.0.0.0","Windows","10.0","https://hz8g1ckzuq.cognition.run/","en-US,en;q=0.9","3dgv4yuovb0frjk","22","[""Black or African-American""]","No","Male","3340915.900000006","null","","<p></p>","null","rating","tcd","attraction_1","2","microwave ovens","null","null","null","null","null","null","2","","","","","","","","","",""
"","","","","","rating_trial","survey-html-form","16","521362","0.0-3.0-1.6","84","1","2025-04-11 14:36:30","bb671e3ae32f654b8954ea4c4635f915","","Mozilla/5.0 (Windows NT 10.0; Win64; x64) AppleWebKit/537.36 (KHTML, like Gecko) Chrome/134.0.0.0 Safari/537.36","WebKit","Chrome","134.0.0.0","Windows","10.0","https://hz8g1ckzuq.cognition.run/","en-US,en;q=0.9","3dgv4yuovb0frjk","22","[""Black or African-American""]","No","Male","3340915.900000006","39802","","","{""price_1"":""125"",""price_2"":""120"",""price_3"":""115""}","rating","tcd","attraction_1","2","microwave ovens","null","null","null","null","null","null","2","50","60","45","60","50","60","Warranty","Cooking power","",""
"","","","","","rating_trial_setup","html-keyboard-response","17","521665","0.0-3.0-0.7","84","1","2025-04-11 14:36:30","bb671e3ae32f654b8954ea4c4635f915","","Mozilla/5.0 (Windows NT 10.0; Win64; x64) AppleWebKit/537.36 (KHTML, like Gecko) Chrome/134.0.0.0 Safari/537.36","WebKit","Chrome","134.0.0.0","Windows","10.0","https://hz8g1ckzuq.cognition.run/","en-US,en;q=0.9","3dgv4yuovb0frjk","22","[""Black or African-American""]","No","Male","3340915.900000006","null","","<p></p>","null","rating","dtc","repulsion_2","1","televisions","null","null","null","null","null","null","2","","","","","","","","","",""
"","","","","","rating_trial","survey-html-form","18","560329","0.0-3.0-1.7","84","1","2025-04-11 14:36:30","bb671e3ae32f654b8954ea4c4635f915","","Mozilla/5.0 (Windows NT 10.0; Win64; x64) AppleWebKit/537.36 (KHTML, like Gecko) Chrome/134.0.0.0 Safari/537.36","WebKit","Chrome","134.0.0.0","Windows","10.0","https://hz8g1ckzuq.cognition.run/","en-US,en;q=0.9","3dgv4yuovb0frjk","22","[""Black or African-American""]","No","Male","3340915.900000006","38663","","","{""price_1"":""112"",""price_2"":""119"",""price_3"":""98""}","rating","dtc","repulsion_2","1","televisions","null","null","null","null","null","null","2","100","90","100","30","40","20","Screen size","Average lifespan","",""
"","","","","","rating_trial_setup","html-keyboard-response","19","560632","0.0-3.0-0.8","84","1","2025-04-11 14:36:30","bb671e3ae32f654b8954ea4c4635f915","","Mozilla/5.0 (Windows NT 10.0; Win64; x64) AppleWebKit/537.36 (KHTML, like Gecko) Chrome/134.0.0.0 Safari/537.36","WebKit","Chrome","134.0.0.0","Windows","10.0","https://hz8g1ckzuq.cognition.run/","en-US,en;q=0.9","3dgv4yuovb0frjk","22","[""Black or African-American""]","No","Male","3340915.900000006","null","","<p></p>","null","rating","tdc","repulsion_2","1","washing machines","null","null","null","null","null","null","2","","","","","","","","","",""
"","","","","","rating_trial","survey-html-form","20","598310","0.0-3.0-1.8","84","1","2025-04-11 14:36:30","bb671e3ae32f654b8954ea4c4635f915","","Mozilla/5.0 (Windows NT 10.0; Win64; x64) AppleWebKit/537.36 (KHTML, like Gecko) Chrome/134.0.0.0 Safari/537.36","WebKit","Chrome","134.0.0.0","Windows","10.0","https://hz8g1ckzuq.cognition.run/","en-US,en;q=0.9","3dgv4yuovb0frjk","22","[""Black or African-American""]","No","Male","3340915.900000006","37676","","","{""price_1"":""115"",""price_2"":""112"",""price_3"":""99""}","rating","tdc","repulsion_2","1","washing machines","null","null","null","null","null","null","2","100","90","100","30","40","20","Average lifespan","Energy savings","",""
"","","","","","rating_trial_setup","html-keyboard-response","21","598613","0.0-3.0-0.9","84","1","2025-04-11 14:36:30","bb671e3ae32f654b8954ea4c4635f915","","Mozilla/5.0 (Windows NT 10.0; Win64; x64) AppleWebKit/537.36 (KHTML, like Gecko) Chrome/134.0.0.0 Safari/537.36","WebKit","Chrome","134.0.0.0","Windows","10.0","https://hz8g1ckzuq.cognition.run/","en-US,en;q=0.9","3dgv4yuovb0frjk","22","[""Black or African-American""]","No","Male","3340915.900000006","null","","<p></p>","null","rating","dct","attraction_2","1","laptops","null","null","null","null","null","null","1","","","","","","","","","",""
"","","","","","rating_trial","survey-html-form","22","636745","0.0-3.0-1.9","84","1","2025-04-11 14:36:30","bb671e3ae32f654b8954ea4c4635f915","","Mozilla/5.0 (Windows NT 10.0; Win64; x64) AppleWebKit/537.36 (KHTML, like Gecko) Chrome/134.0.0.0 Safari/537.36","WebKit","Chrome","134.0.0.0","Windows","10.0","https://hz8g1ckzuq.cognition.run/","en-US,en;q=0.9","3dgv4yuovb0frjk","22","[""Black or African-American""]","No","Male","3340915.900000006","38130","","","{""price_1"":""899"",""price_2"":""999"",""price_3"":""910""}","rating","dct","attraction_2","1","laptops","null","null","null","null","null","null","1","60","50","60","50","60","40","Processing speed","Memory (RAM)","",""
"","","","","","rating_trial_setup","html-keyboard-response","23","637050","0.0-3.0-0.10","84","1","2025-04-11 14:36:30","bb671e3ae32f654b8954ea4c4635f915","","Mozilla/5.0 (Windows NT 10.0; Win64; x64) AppleWebKit/537.36 (KHTML, like Gecko) Chrome/134.0.0.0 Safari/537.36","WebKit","Chrome","134.0.0.0","Windows","10.0","https://hz8g1ckzuq.cognition.run/","en-US,en;q=0.9","3dgv4yuovb0frjk","22","[""Black or African-American""]","No","Male","3340915.900000006","null","","<p></p>","null","rating","dtc","repulsion_1","2","televisions","null","null","null","null","null","null","1","","","","","","","","","",""
"","","","","","rating_trial","survey-html-form","24","664113","0.0-3.0-1.10","84","1","2025-04-11 14:36:30","bb671e3ae32f654b8954ea4c4635f915","","Mozilla/5.0 (Windows NT 10.0; Win64; x64) AppleWebKit/537.36 (KHTML, like Gecko) Chrome/134.0.0.0 Safari/537.36","WebKit","Chrome","134.0.0.0","Windows","10.0","https://hz8g1ckzuq.cognition.run/","en-US,en;q=0.9","3dgv4yuovb0frjk","22","[""Black or African-American""]","No","Male","3340915.900000006","27061","","","{""price_1"":""100"",""price_2"":""112"",""price_3"":""94""}","rating","dtc","repulsion_1","2","televisions","null","null","null","null","null","null","1","30","40","25","100","90","100","Screen size","Average lifespan","",""
"","","","","","rating_trial_setup","html-keyboard-response","25","664416","0.0-3.0-0.11","84","1","2025-04-11 14:36:30","bb671e3ae32f654b8954ea4c4635f915","","Mozilla/5.0 (Windows NT 10.0; Win64; x64) AppleWebKit/537.36 (KHTML, like Gecko) Chrome/134.0.0.0 Safari/537.36","WebKit","Chrome","134.0.0.0","Windows","10.0","https://hz8g1ckzuq.cognition.run/","en-US,en;q=0.9","3dgv4yuovb0frjk","22","[""Black or African-American""]","No","Male","3340915.900000006","null","","<p></p>","null","rating","tdc","repulsion_2","2","laptops","null","null","null","null","null","null","1","","","","","","","","","",""
"","","","","","rating_trial","survey-html-form","26","701498","0.0-3.0-1.11","84","1","2025-04-11 14:36:30","bb671e3ae32f654b8954ea4c4635f915","","Mozilla/5.0 (Windows NT 10.0; Win64; x64) AppleWebKit/537.36 (KHTML, like Gecko) Chrome/134.0.0.0 Safari/537.36","WebKit","Chrome","134.0.0.0","Windows","10.0","https://hz8g1ckzuq.cognition.run/","en-US,en;q=0.9","3dgv4yuovb0frjk","22","[""Black or African-American""]","No","Male","3340915.900000006","37080","","","{""price_1"":""899"",""price_2"":""820"",""price_3"":""850""}","rating","tdc","repulsion_2","2","laptops","null","null","null","null","null","null","1","30","40","20","100","90","100","Processing speed","Memory (RAM)","",""
"","","","","","rating_trial_setup","html-keyboard-response","27","701800","0.0-3.0-0.12","84","1","2025-04-11 14:36:30","bb671e3ae32f654b8954ea4c4635f915","","Mozilla/5.0 (Windows NT 10.0; Win64; x64) AppleWebKit/537.36 (KHTML, like Gecko) Chrome/134.0.0.0 Safari/537.36","WebKit","Chrome","134.0.0.0","Windows","10.0","https://hz8g1ckzuq.cognition.run/","en-US,en;q=0.9","3dgv4yuovb0frjk","22","[""Black or African-American""]","No","Male","3340915.900000006","null","","<p></p>","null","rating","tcd","repulsion_2","2","microwave ovens","null","null","null","null","null","null","2","","","","","","","","","",""
"","","","","","rating_trial","survey-html-form","28","722787","0.0-3.0-1.12","84","1","2025-04-11 14:36:30","bb671e3ae32f654b8954ea4c4635f915","","Mozilla/5.0 (Windows NT 10.0; Win64; x64) AppleWebKit/537.36 (KHTML, like Gecko) Chrome/134.0.0.0 Safari/537.36","WebKit","Chrome","134.0.0.0","Windows","10.0","https://hz8g1ckzuq.cognition.run/","en-US,en;q=0.9","3dgv4yuovb0frjk","22","[""Black or African-American""]","No","Male","3340915.900000006","20985","","","{""price_1"":""111"",""price_2"":""99"",""price_3"":""104""}","rating","tcd","repulsion_2","2","microwave ovens","null","null","null","null","null","null","2","30","40","20","100","90","100","Warranty","Cooking power","",""
"","","","","","rating_trial_setup","html-keyboard-response","29","723092","0.0-3.0-0.13","84","1","2025-04-11 14:36:30","bb671e3ae32f654b8954ea4c4635f915","","Mozilla/5.0 (Windows NT 10.0; Win64; x64) AppleWebKit/537.36 (KHTML, like Gecko) Chrome/134.0.0.0 Safari/537.36","WebKit","Chrome","134.0.0.0","Windows","10.0","https://hz8g1ckzuq.cognition.run/","en-US,en;q=0.9","3dgv4yuovb0frjk","22","[""Black or African-American""]","No","Male","3340915.900000006","null","","<p></p>","null","rating","tdc","attraction_2","2","televisions","null","null","null","null","null","null","2","","","","","","","","","",""
"","","","","","rating_trial","survey-html-form","30","807992","0.0-3.0-1.13","84","1","2025-04-11 14:36:30","bb671e3ae32f654b8954ea4c4635f915","","Mozilla/5.0 (Windows NT 10.0; Win64; x64) AppleWebKit/537.36 (KHTML, like Gecko) Chrome/134.0.0.0 Safari/537.36","WebKit","Chrome","134.0.0.0","Windows","10.0","https://hz8g1ckzuq.cognition.run/","en-US,en;q=0.9","3dgv4yuovb0frjk","22","[""Black or African-American""]","No","Male","3340915.900000006","84899","","","{""price_1"":""100"",""price_2"":""99"",""price_3"":""100""}","rating","tdc","attraction_2","2","televisions","null","null","null","null","null","null","2","50","60","40","60","50","60","Screen size","Average lifespan","",""
"","","","","","rating_trial_setup","html-keyboard-response","31","808296","0.0-3.0-0.14","84","1","2025-04-11 14:36:30","bb671e3ae32f654b8954ea4c4635f915","","Mozilla/5.0 (Windows NT 10.0; Win64; x64) AppleWebKit/537.36 (KHTML, like Gecko) Chrome/134.0.0.0 Safari/537.36","WebKit","Chrome","134.0.0.0","Windows","10.0","https://hz8g1ckzuq.cognition.run/","en-US,en;q=0.9","3dgv4yuovb0frjk","22","[""Black or African-American""]","No","Male","3340915.900000006","null","","<p></p>","null","rating","tdc","attraction_2","2","washing machines","null","null","null","null","null","null","2","","","","","","","","","",""
"","","","","","rating_trial","survey-html-form","32","849575","0.0-3.0-1.14","84","1","2025-04-11 14:36:30","bb671e3ae32f654b8954ea4c4635f915","","Mozilla/5.0 (Windows NT 10.0; Win64; x64) AppleWebKit/537.36 (KHTML, like Gecko) Chrome/134.0.0.0 Safari/537.36","WebKit","Chrome","134.0.0.0","Windows","10.0","https://hz8g1ckzuq.cognition.run/","en-US,en;q=0.9","3dgv4yuovb0frjk","22","[""Black or African-American""]","No","Male","3340915.900000006","41278","","","{""price_1"":""112"",""price_2"":""97"",""price_3"":""100""}","rating","tdc","attraction_2","2","washing machines","null","null","null","null","null","null","2","50","60","40","60","50","60","Average lifespan","Energy savings","",""
"","","","","","rating_trial_setup","html-keyboard-response","33","849878","0.0-3.0-0.15","84","1","2025-04-11 14:36:30","bb671e3ae32f654b8954ea4c4635f915","","Mozilla/5.0 (Windows NT 10.0; Win64; x64) AppleWebKit/537.36 (KHTML, like Gecko) Chrome/134.0.0.0 Safari/537.36","WebKit","Chrome","134.0.0.0","Windows","10.0","https://hz8g1ckzuq.cognition.run/","en-US,en;q=0.9","3dgv4yuovb0frjk","22","[""Black or African-American""]","No","Male","3340915.900000006","null","","<p></p>","null","rating","cdt","attraction_1","2","laptops","null","null","null","null","null","null","2","","","","","","","","","",""
"","","","","","rating_trial","survey-html-form","34","882140","0.0-3.0-1.15","84","1","2025-04-11 14:36:30","bb671e3ae32f654b8954ea4c4635f915","","Mozilla/5.0 (Windows NT 10.0; Win64; x64) AppleWebKit/537.36 (KHTML, like Gecko) Chrome/134.0.0.0 Safari/537.36","WebKit","Chrome","134.0.0.0","Windows","10.0","https://hz8g1ckzuq.cognition.run/","en-US,en;q=0.9","3dgv4yuovb0frjk","22","[""Black or African-American""]","No","Male","3340915.900000006","32259","","","{""price_1"":""877"",""price_2"":""844"",""price_3"":""865""}","rating","cdt","attraction_1","2","laptops","null","null","null","null","null","null","2","50","60","45","60","50","60","Processing speed","Memory (RAM)","",""
"","","","","","rating_trial_setup","html-keyboard-response","35","882443","0.0-3.0-0.16","84","1","2025-04-11 14:36:30","bb671e3ae32f654b8954ea4c4635f915","","Mozilla/5.0 (Windows NT 10.0; Win64; x64) AppleWebKit/537.36 (KHTML, like Gecko) Chrome/134.0.0.0 Safari/537.36","WebKit","Chrome","134.0.0.0","Windows","10.0","https://hz8g1ckzuq.cognition.run/","en-US,en;q=0.9","3dgv4yuovb0frjk","22","[""Black or African-American""]","No","Male","3340915.900000006","null","","<p></p>","null","rating","ctd","repulsion_1","1","microwave ovens","null","null","null","null","null","null","2","","","","","","","","","",""
"","","","","","rating_trial","survey-html-form","36","1205184","0.0-3.0-1.16","84","1","2025-04-11 14:36:30","bb671e3ae32f654b8954ea4c4635f915","","Mozilla/5.0 (Windows NT 10.0; Win64; x64) AppleWebKit/537.36 (KHTML, like Gecko) Chrome/134.0.0.0 Safari/537.36","WebKit","Chrome","134.0.0.0","Windows","10.0","https://hz8g1ckzuq.cognition.run/","en-US,en;q=0.9","3dgv4yuovb0frjk","22","[""Black or African-American""]","No","Male","3340915.900000006","322738","","","{""price_1"":""120"",""price_2"":""118"",""price_3"":""115""}","rating","ctd","repulsion_1","1","microwave ovens","null","null","null","null","null","null","2","100","90","100","30","40","25","Warranty","Cooking power","",""
"","","","","","rating_trial_setup","html-keyboard-response","37","1205490","0.0-3.0-0.17","84","1","2025-04-11 14:36:30","bb671e3ae32f654b8954ea4c4635f915","","Mozilla/5.0 (Windows NT 10.0; Win64; x64) AppleWebKit/537.36 (KHTML, like Gecko) Chrome/134.0.0.0 Safari/537.36","WebKit","Chrome","134.0.0.0","Windows","10.0","https://hz8g1ckzuq.cognition.run/","en-US,en;q=0.9","3dgv4yuovb0frjk","22","[""Black or African-American""]","No","Male","3340915.900000006","null","","<p></p>","null","rating","dtc","attraction_2","1","washing machines","null","null","null","null","null","null","2","","","","","","","","","",""
"","","","","","rating_trial","survey-html-form","38","1237740","0.0-3.0-1.17","84","1","2025-04-11 14:36:30","bb671e3ae32f654b8954ea4c4635f915","","Mozilla/5.0 (Windows NT 10.0; Win64; x64) AppleWebKit/537.36 (KHTML, like Gecko) Chrome/134.0.0.0 Safari/537.36","WebKit","Chrome","134.0.0.0","Windows","10.0","https://hz8g1ckzuq.cognition.run/","en-US,en;q=0.9","3dgv4yuovb0frjk","22","[""Black or African-American""]","No","Male","3340915.900000006","32248","","","{""price_1"":""105"",""price_2"":""115"",""price_3"":""125""}","rating","dtc","attraction_2","1","washing machines","null","null","null","null","null","null","2","60","50","60","50","60","40","Average lifespan","Energy savings","",""
"","","","","","rating_trial_setup","html-keyboard-response","39","1238043","0.0-3.0-0.18","84","1","2025-04-11 14:36:30","bb671e3ae32f654b8954ea4c4635f915","","Mozilla/5.0 (Windows NT 10.0; Win64; x64) AppleWebKit/537.36 (KHTML, like Gecko) Chrome/134.0.0.0 Safari/537.36","WebKit","Chrome","134.0.0.0","Windows","10.0","https://hz8g1ckzuq.cognition.run/","en-US,en;q=0.9","3dgv4yuovb0frjk","22","[""Black or African-American""]","No","Male","3340915.900000006","null","","<p></p>","null","rating","bww","catch","null","microwave ovens","75","65","20","5","50","50","2","","","","","","","","","",""
"","","","","","rating_trial","survey-html-form","40","1277386","0.0-3.0-1.18","84","1","2025-04-11 14:36:30","bb671e3ae32f654b8954ea4c4635f915","","Mozilla/5.0 (Windows NT 10.0; Win64; x64) AppleWebKit/537.36 (KHTML, like Gecko) Chrome/134.0.0.0 Safari/537.36","WebKit","Chrome","134.0.0.0","Windows","10.0","https://hz8g1ckzuq.cognition.run/","en-US,en;q=0.9","3dgv4yuovb0frjk","22","[""Black or African-American""]","No","Male","3340915.900000006","39341","","","{""price_1"":""99"",""price_2"":""15"",""price_3"":""60""}","rating","bww","catch","null","microwave ovens","75","65","20","5","50","50","2","null","null","null","null","null","null","Warranty","Cooking power","",""
"","","","","","rating_trial_setup","html-keyboard-response","41","1277690","0.0-3.0-0.19","84","1","2025-04-11 14:36:30","bb671e3ae32f654b8954ea4c4635f915","","Mozilla/5.0 (Windows NT 10.0; Win64; x64) AppleWebKit/537.36 (KHTML, like Gecko) Chrome/134.0.0.0 Safari/537.36","WebKit","Chrome","134.0.0.0","Windows","10.0","https://hz8g1ckzuq.cognition.run/","en-US,en;q=0.9","3dgv4yuovb0frjk","22","[""Black or African-American""]","No","Male","3340915.900000006","null","","<p></p>","null","rating","dct","repulsion_2","1","laptops","null","null","null","null","null","null","1","","","","","","","","","",""
"","","","","","rating_trial","survey-html-form","42","1322391","0.0-3.0-1.19","84","1","2025-04-11 14:36:30","bb671e3ae32f654b8954ea4c4635f915","","Mozilla/5.0 (Windows NT 10.0; Win64; x64) AppleWebKit/537.36 (KHTML, like Gecko) Chrome/134.0.0.0 Safari/537.36","WebKit","Chrome","134.0.0.0","Windows","10.0","https://hz8g1ckzuq.cognition.run/","en-US,en;q=0.9","3dgv4yuovb0frjk","22","[""Black or African-American""]","No","Male","3340915.900000006","44699","","","{""price_1"":""945"",""price_2"":""899"",""price_3"":""1000""}","rating","dct","repulsion_2","1","laptops","null","null","null","null","null","null","1","100","90","100","30","40","20","Processing speed","Memory (RAM)","",""
"","","","","","rating_trial_setup","html-keyboard-response","43","1322695","0.0-3.0-0.20","84","1","2025-04-11 14:36:30","bb671e3ae32f654b8954ea4c4635f915","","Mozilla/5.0 (Windows NT 10.0; Win64; x64) AppleWebKit/537.36 (KHTML, like Gecko) Chrome/134.0.0.0 Safari/537.36","WebKit","Chrome","134.0.0.0","Windows","10.0","https://hz8g1ckzuq.cognition.run/","en-US,en;q=0.9","3dgv4yuovb0frjk","22","[""Black or African-American""]","No","Male","3340915.900000006","null","","<p></p>","null","rating","bww","catch","null","microwave ovens","60","85","20","30","15","45","1","","","","","","","","","",""
"","","","","","rating_trial","survey-html-form","44","1357765","0.0-3.0-1.20","84","1","2025-04-11 14:36:30","bb671e3ae32f654b8954ea4c4635f915","","Mozilla/5.0 (Windows NT 10.0; Win64; x64) AppleWebKit/537.36 (KHTML, like Gecko) Chrome/134.0.0.0 Safari/537.36","WebKit","Chrome","134.0.0.0","Windows","10.0","https://hz8g1ckzuq.cognition.run/","en-US,en;q=0.9","3dgv4yuovb0frjk","22","[""Black or African-American""]","No","Male","3340915.900000006","35067","","","{""price_1"":""112"",""price_2"":""45"",""price_3"":""80""}","rating","bww","catch","null","microwave ovens","60","85","20","30","15","45","1","null","null","null","null","null","null","Warranty","Cooking power","",""
"","","","","","rating_trial_setup","html-keyboard-response","45","1358069","0.0-3.0-0.21","84","1","2025-04-11 14:36:30","bb671e3ae32f654b8954ea4c4635f915","","Mozilla/5.0 (Windows NT 10.0; Win64; x64) AppleWebKit/537.36 (KHTML, like Gecko) Chrome/134.0.0.0 Safari/537.36","WebKit","Chrome","134.0.0.0","Windows","10.0","https://hz8g1ckzuq.cognition.run/","en-US,en;q=0.9","3dgv4yuovb0frjk","22","[""Black or African-American""]","No","Male","3340915.900000006","null","","<p></p>","null","rating","dct","attraction_1","1","washing machines","null","null","null","null","null","null","2","","","","","","","","","",""
"","","","","","rating_trial","survey-html-form","46","1378853","0.0-3.0-1.21","84","1","2025-04-11 14:36:30","bb671e3ae32f654b8954ea4c4635f915","","Mozilla/5.0 (Windows NT 10.0; Win64; x64) AppleWebKit/537.36 (KHTML, like Gecko) Chrome/134.0.0.0 Safari/537.36","WebKit","Chrome","134.0.0.0","Windows","10.0","https://hz8g1ckzuq.cognition.run/","en-US,en;q=0.9","3dgv4yuovb0frjk","22","[""Black or African-American""]","No","Male","3340915.900000006","20781","","","{""price_1"":""75"",""price_2"":""100"",""price_3"":""90""}","rating","dct","attraction_1","1","washing machines","null","null","null","null","null","null","2","60","50","60","50","60","45","Average lifespan","Energy savings","",""
"","","","","","rating_trial_setup","html-keyboard-response","47","1379156","0.0-3.0-0.22","84","1","2025-04-11 14:36:30","bb671e3ae32f654b8954ea4c4635f915","","Mozilla/5.0 (Windows NT 10.0; Win64; x64) AppleWebKit/537.36 (KHTML, like Gecko) Chrome/134.0.0.0 Safari/537.36","WebKit","Chrome","134.0.0.0","Windows","10.0","https://hz8g1ckzuq.cognition.run/","en-US,en;q=0.9","3dgv4yuovb0frjk","22","[""Black or African-American""]","No","Male","3340915.900000006","null","","<p></p>","null","rating","ctd","attraction_2","2","microwave ovens","null","null","null","null","null","null","2","","","","","","","","","",""
"","","","","","rating_trial","survey-html-form","48","1402005","0.0-3.0-1.22","84","1","2025-04-11 14:36:30","bb671e3ae32f654b8954ea4c4635f915","","Mozilla/5.0 (Windows NT 10.0; Win64; x64) AppleWebKit/537.36 (KHTML, like Gecko) Chrome/134.0.0.0 Safari/537.36","WebKit","Chrome","134.0.0.0","Windows","10.0","https://hz8g1ckzuq.cognition.run/","en-US,en;q=0.9","3dgv4yuovb0frjk","22","[""Black or African-American""]","No","Male","3340915.900000006","22847","","","{""price_1"":""100"",""price_2"":""111"",""price_3"":""89""}","rating","ctd","attraction_2","2","microwave ovens","null","null","null","null","null","null","2","50","60","40","60","50","60","Warranty","Cooking power","",""
"","","","","","rating_trial_setup","html-keyboard-response","49","1402309","0.0-3.0-0.23","84","1","2025-04-11 14:36:30","bb671e3ae32f654b8954ea4c4635f915","","Mozilla/5.0 (Windows NT 10.0; Win64; x64) AppleWebKit/537.36 (KHTML, like Gecko) Chrome/134.0.0.0 Safari/537.36","WebKit","Chrome","134.0.0.0","Windows","10.0","https://hz8g1ckzuq.cognition.run/","en-US,en;q=0.9","3dgv4yuovb0frjk","22","[""Black or African-American""]","No","Male","3340915.900000006","null","","<p></p>","null","rating","wbw","catch","null","washing machines","55","50","15","45","25","5","1","","","","","","","","","",""
"","","","","","rating_trial","survey-html-form","50","1442334","0.0-3.0-1.23","84","1","2025-04-11 14:36:30","bb671e3ae32f654b8954ea4c4635f915","","Mozilla/5.0 (Windows NT 10.0; Win64; x64) AppleWebKit/537.36 (KHTML, like Gecko) Chrome/134.0.0.0 Safari/537.36","WebKit","Chrome","134.0.0.0","Windows","10.0","https://hz8g1ckzuq.cognition.run/","en-US,en;q=0.9","3dgv4yuovb0frjk","22","[""Black or African-American""]","No","Male","3340915.900000006","40022","","","{""price_1"":""103"",""price_2"":""123"",""price_3"":""32""}","rating","wbw","catch","null","washing machines","55","50","15","45","25","5","1","null","null","null","null","null","null","Average lifespan","Energy savings","",""
"","","","","","rating_trial_setup","html-keyboard-response","51","1442638","0.0-3.0-0.24","84","1","2025-04-11 14:36:30","bb671e3ae32f654b8954ea4c4635f915","","Mozilla/5.0 (Windows NT 10.0; Win64; x64) AppleWebKit/537.36 (KHTML, like Gecko) Chrome/134.0.0.0 Safari/537.36","WebKit","Chrome","134.0.0.0","Windows","10.0","https://hz8g1ckzuq.cognition.run/","en-US,en;q=0.9","3dgv4yuovb0frjk","22","[""Black or African-American""]","No","Male","3340915.900000006","null","","<p></p>","null","rating","tdc","attraction_1","1","microwave ovens","null","null","null","null","null","null","1","","","","","","","","","",""
"","","","","","rating_trial","survey-html-form","52","1466707","0.0-3.0-1.24","84","1","2025-04-11 14:36:30","bb671e3ae32f654b8954ea4c4635f915","","Mozilla/5.0 (Windows NT 10.0; Win64; x64) AppleWebKit/537.36 (KHTML, like Gecko) Chrome/134.0.0.0 Safari/537.36","WebKit","Chrome","134.0.0.0","Windows","10.0","https://hz8g1ckzuq.cognition.run/","en-US,en;q=0.9","3dgv4yuovb0frjk","22","[""Black or African-American""]","No","Male","3340915.900000006","24066","","","{""price_1"":""99"",""price_2"":""87"",""price_3"":""104""}","rating","tdc","attraction_1","1","microwave ovens","null","null","null","null","null","null","1","60","50","60","50","60","45","Warranty","Cooking power","",""
"","","","","","rating_trial_setup","html-keyboard-response","53","1467011","0.0-3.0-0.25","84","1","2025-04-11 14:36:30","bb671e3ae32f654b8954ea4c4635f915","","Mozilla/5.0 (Windows NT 10.0; Win64; x64) AppleWebKit/537.36 (KHTML, like Gecko) Chrome/134.0.0.0 Safari/537.36","WebKit","Chrome","134.0.0.0","Windows","10.0","https://hz8g1ckzuq.cognition.run/","en-US,en;q=0.9","3dgv4yuovb0frjk","22","[""Black or African-American""]","No","Male","3340915.900000006","null","","<p></p>","null","rating","dtc","repulsion_2","2","washing machines","null","null","null","null","null","null","2","","","","","","","","","",""
"","","","","","rating_trial","survey-html-form","54","1489288","0.0-3.0-1.25","84","1","2025-04-11 14:36:30","bb671e3ae32f654b8954ea4c4635f915","","Mozilla/5.0 (Windows NT 10.0; Win64; x64) AppleWebKit/537.36 (KHTML, like Gecko) Chrome/134.0.0.0 Safari/537.36","WebKit","Chrome","134.0.0.0","Windows","10.0","https://hz8g1ckzuq.cognition.run/","en-US,en;q=0.9","3dgv4yuovb0frjk","22","[""Black or African-American""]","No","Male","3340915.900000006","22274","","","{""price_1"":""122"",""price_2"":""130"",""price_3"":""116""}","rating","dtc","repulsion_2","2","washing machines","null","null","null","null","null","null","2","30","40","20","100","90","100","Average lifespan","Energy savings","",""
"","","","","","rating_trial_setup","html-keyboard-response","55","1489592","0.0-3.0-0.26","84","1","2025-04-11 14:36:30","bb671e3ae32f654b8954ea4c4635f915","","Mozilla/5.0 (Windows NT 10.0; Win64; x64) AppleWebKit/537.36 (KHTML, like Gecko) Chrome/134.0.0.0 Safari/537.36","WebKit","Chrome","134.0.0.0","Windows","10.0","https://hz8g1ckzuq.cognition.run/","en-US,en;q=0.9","3dgv4yuovb0frjk","22","[""Black or African-American""]","No","Male","3340915.900000006","null","","<p></p>","null","rating","cdt","attraction_1","1","laptops","null","null","null","null","null","null","2","","","","","","","","","",""
"","","","","","rating_trial","survey-html-form","56","1527757","0.0-3.0-1.26","84","1","2025-04-11 14:36:30","bb671e3ae32f654b8954ea4c4635f915","","Mozilla/5.0 (Windows NT 10.0; Win64; x64) AppleWebKit/537.36 (KHTML, like Gecko) Chrome/134.0.0.0 Safari/537.36","WebKit","Chrome","134.0.0.0","Windows","10.0","https://hz8g1ckzuq.cognition.run/","en-US,en;q=0.9","3dgv4yuovb0frjk","22","[""Black or African-American""]","No","Male","3340915.900000006","38161","","","{""price_1"":""680"",""price_2"":""622"",""price_3"":""700""}","rating","cdt","attraction_1","1","laptops","null","null","null","null","null","null","2","60","50","60","50","60","45","Processing speed","Memory (RAM)","",""
"","","","","","rating_trial_setup","html-keyboard-response","57","1528061","0.0-3.0-0.27","84","1","2025-04-11 14:36:30","bb671e3ae32f654b8954ea4c4635f915","","Mozilla/5.0 (Windows NT 10.0; Win64; x64) AppleWebKit/537.36 (KHTML, like Gecko) Chrome/134.0.0.0 Safari/537.36","WebKit","Chrome","134.0.0.0","Windows","10.0","https://hz8g1ckzuq.cognition.run/","en-US,en;q=0.9","3dgv4yuovb0frjk","22","[""Black or African-American""]","No","Male","3340915.900000006","null","","<p></p>","null","rating","wwb","catch","null","washing machines","95","65","5","40","45","5","1","","","","","","","","","",""
"","","","","","rating_trial","survey-html-form","58","1553858","0.0-3.0-1.27","84","1","2025-04-11 14:36:30","bb671e3ae32f654b8954ea4c4635f915","","Mozilla/5.0 (Windows NT 10.0; Win64; x64) AppleWebKit/537.36 (KHTML, like Gecko) Chrome/134.0.0.0 Safari/537.36","WebKit","Chrome","134.0.0.0","Windows","10.0","https://hz8g1ckzuq.cognition.run/","en-US,en;q=0.9","3dgv4yuovb0frjk","22","[""Black or African-American""]","No","Male","3340915.900000006","25794","","","{""price_1"":""78"",""price_2"":""38"",""price_3"":""87""}","rating","wwb","catch","null","washing machines","95","65","5","40","45","5","1","null","null","null","null","null","null","Average lifespan","Energy savings","",""
"","","","","","rating_trial_setup","html-keyboard-response","59","1554162","0.0-3.0-0.28","84","1","2025-04-11 14:36:30","bb671e3ae32f654b8954ea4c4635f915","","Mozilla/5.0 (Windows NT 10.0; Win64; x64) AppleWebKit/537.36 (KHTML, like Gecko) Chrome/134.0.0.0 Safari/537.36","WebKit","Chrome","134.0.0.0","Windows","10.0","https://hz8g1ckzuq.cognition.run/","en-US,en;q=0.9","3dgv4yuovb0frjk","22","[""Black or African-American""]","No","Male","3340915.900000006","null","","<p></p>","null","rating","ctd","repulsion_1","2","laptops","null","null","null","null","null","null","1","","","","","","","","","",""
"","","","","","rating_trial","survey-html-form","60","1885437","0.0-3.0-1.28","84","1","2025-04-11 14:36:30","bb671e3ae32f654b8954ea4c4635f915","","Mozilla/5.0 (Windows NT 10.0; Win64; x64) AppleWebKit/537.36 (KHTML, like Gecko) Chrome/134.0.0.0 Safari/537.36","WebKit","Chrome","134.0.0.0","Windows","10.0","https://hz8g1ckzuq.cognition.run/","en-US,en;q=0.9","3dgv4yuovb0frjk","22","[""Black or African-American""]","No","Male","3340915.900000006","331272","","","{""price_1"":""558"",""price_2"":""555"",""price_3"":""500""}","rating","ctd","repulsion_1","2","laptops","null","null","null","null","null","null","1","30","40","25","100","90","100","Processing speed","Memory (RAM)","",""
"","","","","","rating_trial_setup","html-keyboard-response","61","1885742","0.0-3.0-0.29","84","1","2025-04-11 14:36:30","bb671e3ae32f654b8954ea4c4635f915","","Mozilla/5.0 (Windows NT 10.0; Win64; x64) AppleWebKit/537.36 (KHTML, like Gecko) Chrome/134.0.0.0 Safari/537.36","WebKit","Chrome","134.0.0.0","Windows","10.0","https://hz8g1ckzuq.cognition.run/","en-US,en;q=0.9","3dgv4yuovb0frjk","22","[""Black or African-American""]","No","Male","3340915.900000006","null","","<p></p>","null","rating","tdc","attraction_2","2","laptops","null","null","null","null","null","null","1","","","","","","","","","",""
"","","","","","rating_trial","survey-html-form","62","1909360","0.0-3.0-1.29","84","1","2025-04-11 14:36:30","bb671e3ae32f654b8954ea4c4635f915","","Mozilla/5.0 (Windows NT 10.0; Win64; x64) AppleWebKit/537.36 (KHTML, like Gecko) Chrome/134.0.0.0 Safari/537.36","WebKit","Chrome","134.0.0.0","Windows","10.0","https://hz8g1ckzuq.cognition.run/","en-US,en;q=0.9","3dgv4yuovb0frjk","22","[""Black or African-American""]","No","Male","3340915.900000006","23615","","","{""price_1"":""545"",""price_2"":""500"",""price_3"":""555""}","rating","tdc","attraction_2","2","laptops","null","null","null","null","null","null","1","50","60","40","60","50","60","Processing speed","Memory (RAM)","",""
"","","","","","rating_trial_setup","html-keyboard-response","63","1909663","0.0-3.0-0.30","84","1","2025-04-11 14:36:30","bb671e3ae32f654b8954ea4c4635f915","","Mozilla/5.0 (Windows NT 10.0; Win64; x64) AppleWebKit/537.36 (KHTML, like Gecko) Chrome/134.0.0.0 Safari/537.36","WebKit","Chrome","134.0.0.0","Windows","10.0","https://hz8g1ckzuq.cognition.run/","en-US,en;q=0.9","3dgv4yuovb0frjk","22","[""Black or African-American""]","No","Male","3340915.900000006","null","","<p></p>","null","rating","tdc","repulsion_1","1","laptops","null","null","null","null","null","null","2","","","","","","","","","",""
"","","","","","rating_trial","survey-html-form","64","1929683","0.0-3.0-1.30","84","1","2025-04-11 14:36:30","bb671e3ae32f654b8954ea4c4635f915","","Mozilla/5.0 (Windows NT 10.0; Win64; x64) AppleWebKit/537.36 (KHTML, like Gecko) Chrome/134.0.0.0 Safari/537.36","WebKit","Chrome","134.0.0.0","Windows","10.0","https://hz8g1ckzuq.cognition.run/","en-US,en;q=0.9","3dgv4yuovb0frjk","22","[""Black or African-American""]","No","Male","3340915.900000006","20017","","","{""price_1"":""670"",""price_2"":""600"",""price_3"":""540""}","rating","tdc","repulsion_1","1","laptops","null","null","null","null","null","null","2","100","90","100","30","40","25","Processing speed","Memory (RAM)","",""
"","","","","","rating_trial_setup","html-keyboard-response","65","1929988","0.0-3.0-0.31","84","1","2025-04-11 14:36:30","bb671e3ae32f654b8954ea4c4635f915","","Mozilla/5.0 (Windows NT 10.0; Win64; x64) AppleWebKit/537.36 (KHTML, like Gecko) Chrome/134.0.0.0 Safari/537.36","WebKit","Chrome","134.0.0.0","Windows","10.0","https://hz8g1ckzuq.cognition.run/","en-US,en;q=0.9","3dgv4yuovb0frjk","22","[""Black or African-American""]","No","Male","3340915.900000006","null","","<p></p>","null","rating","tcd","attraction_2","1","microwave ovens","null","null","null","null","null","null","1","","","","","","","","","",""
"","","","","","rating_trial","survey-html-form","66","1949139","0.0-3.0-1.31","84","1","2025-04-11 14:36:30","bb671e3ae32f654b8954ea4c4635f915","","Mozilla/5.0 (Windows NT 10.0; Win64; x64) AppleWebKit/537.36 (KHTML, like Gecko) Chrome/134.0.0.0 Safari/537.36","WebKit","Chrome","134.0.0.0","Windows","10.0","https://hz8g1ckzuq.cognition.run/","en-US,en;q=0.9","3dgv4yuovb0frjk","22","[""Black or African-American""]","No","Male","3340915.900000006","19148","","","{""price_1"":""98"",""price_2"":""100"",""price_3"":""90""}","rating","tcd","attraction_2","1","microwave ovens","null","null","null","null","null","null","1","60","50","60","50","60","40","Warranty","Cooking power","",""
"","","","","","rating_trial_setup","html-keyboard-response","67","1949444","0.0-3.0-0.32","84","1","2025-04-11 14:36:30","bb671e3ae32f654b8954ea4c4635f915","","Mozilla/5.0 (Windows NT 10.0; Win64; x64) AppleWebKit/537.36 (KHTML, like Gecko) Chrome/134.0.0.0 Safari/537.36","WebKit","Chrome","134.0.0.0","Windows","10.0","https://hz8g1ckzuq.cognition.run/","en-US,en;q=0.9","3dgv4yuovb0frjk","22","[""Black or African-American""]","No","Male","3340915.900000006","null","","<p></p>","null","rating","tdc","repulsion_1","2","washing machines","null","null","null","null","null","null","2","","","","","","","","","",""
"","","","","","rating_trial","survey-html-form","68","1972161","0.0-3.0-1.32","84","1","2025-04-11 14:36:30","bb671e3ae32f654b8954ea4c4635f915","","Mozilla/5.0 (Windows NT 10.0; Win64; x64) AppleWebKit/537.36 (KHTML, like Gecko) Chrome/134.0.0.0 Safari/537.36","WebKit","Chrome","134.0.0.0","Windows","10.0","https://hz8g1ckzuq.cognition.run/","en-US,en;q=0.9","3dgv4yuovb0frjk","22","[""Black or African-American""]","No","Male","3340915.900000006","22713","","","{""price_1"":""106"",""price_2"":""99"",""price_3"":""93""}","rating","tdc","repulsion_1","2","washing machines","null","null","null","null","null","null","2","30","40","25","100","90","100","Average lifespan","Energy savings","",""
"","","","","","rating_trial_setup","html-keyboard-response","69","1972464","0.0-3.0-0.33","84","1","2025-04-11 14:36:30","bb671e3ae32f654b8954ea4c4635f915","","Mozilla/5.0 (Windows NT 10.0; Win64; x64) AppleWebKit/537.36 (KHTML, like Gecko) Chrome/134.0.0.0 Safari/537.36","WebKit","Chrome","134.0.0.0","Windows","10.0","https://hz8g1ckzuq.cognition.run/","en-US,en;q=0.9","3dgv4yuovb0frjk","22","[""Black or African-American""]","No","Male","3340915.900000006","null","","<p></p>","null","rating","dtc","attraction_1","2","washing machines","null","null","null","null","null","null","1","","","","","","","","","",""
"","","","","","rating_trial","survey-html-form","70","1993303","0.0-3.0-1.33","84","1","2025-04-11 14:36:30","bb671e3ae32f654b8954ea4c4635f915","","Mozilla/5.0 (Windows NT 10.0; Win64; x64) AppleWebKit/537.36 (KHTML, like Gecko) Chrome/134.0.0.0 Safari/537.36","WebKit","Chrome","134.0.0.0","Windows","10.0","https://hz8g1ckzuq.cognition.run/","en-US,en;q=0.9","3dgv4yuovb0frjk","22","[""Black or African-American""]","No","Male","3340915.900000006","20835","","","{""price_1"":""111"",""price_2"":""121"",""price_3"":""100""}","rating","dtc","attraction_1","2","washing machines","null","null","null","null","null","null","1","50","60","45","60","50","60","Average lifespan","Energy savings","",""
"","","","","","rating_trial_setup","html-keyboard-response","71","1993606","0.0-3.0-0.34","84","1","2025-04-11 14:36:30","bb671e3ae32f654b8954ea4c4635f915","","Mozilla/5.0 (Windows NT 10.0; Win64; x64) AppleWebKit/537.36 (KHTML, like Gecko) Chrome/134.0.0.0 Safari/537.36","WebKit","Chrome","134.0.0.0","Windows","10.0","https://hz8g1ckzuq.cognition.run/","en-US,en;q=0.9","3dgv4yuovb0frjk","22","[""Black or African-American""]","No","Male","3340915.900000006","null","","<p></p>","null","rating","dct","repulsion_1","1","televisions","null","null","null","null","null","null","1","","","","","","","","","",""
"","","","","","rating_trial","survey-html-form","72","2031170","0.0-3.0-1.34","84","1","2025-04-11 14:36:30","bb671e3ae32f654b8954ea4c4635f915","","Mozilla/5.0 (Windows NT 10.0; Win64; x64) AppleWebKit/537.36 (KHTML, like Gecko) Chrome/134.0.0.0 Safari/537.36","WebKit","Chrome","134.0.0.0","Windows","10.0","https://hz8g1ckzuq.cognition.run/","en-US,en;q=0.9","3dgv4yuovb0frjk","22","[""Black or African-American""]","No","Male","3340915.900000006","37560","","","{""price_1"":""96"",""price_2"":""92"",""price_3"":""99""}","rating","dct","repulsion_1","1","televisions","null","null","null","null","null","null","1","100","90","100","30","40","25","Screen size","Average lifespan","",""
"","","","","","rating_trial_setup","html-keyboard-response","73","2031475","0.0-3.0-0.35","84","1","2025-04-11 14:36:30","bb671e3ae32f654b8954ea4c4635f915","","Mozilla/5.0 (Windows NT 10.0; Win64; x64) AppleWebKit/537.36 (KHTML, like Gecko) Chrome/134.0.0.0 Safari/537.36","WebKit","Chrome","134.0.0.0","Windows","10.0","https://hz8g1ckzuq.cognition.run/","en-US,en;q=0.9","3dgv4yuovb0frjk","22","[""Black or African-American""]","No","Male","3340915.900000006","null","","<p></p>","null","rating","ctd","repulsion_2","2","televisions","null","null","null","null","null","null","2","","","","","","","","","",""
"","","","","","rating_trial","survey-html-form","74","2079939","0.0-3.0-1.35","84","1","2025-04-11 14:36:30","bb671e3ae32f654b8954ea4c4635f915","","Mozilla/5.0 (Windows NT 10.0; Win64; x64) AppleWebKit/537.36 (KHTML, like Gecko) Chrome/134.0.0.0 Safari/537.36","WebKit","Chrome","134.0.0.0","Windows","10.0","https://hz8g1ckzuq.cognition.run/","en-US,en;q=0.9","3dgv4yuovb0frjk","22","[""Black or African-American""]","No","Male","3340915.900000006","48460","","","{""price_1"":""50"",""price_2"":""45"",""price_3"":""43""}","rating","ctd","repulsion_2","2","televisions","null","null","null","null","null","null","2","30","40","20","100","90","100","Screen size","Average lifespan","",""
"","","","","","rating_trial_setup","html-keyboard-response","75","2080242","0.0-3.0-0.36","84","1","2025-04-11 14:36:30","bb671e3ae32f654b8954ea4c4635f915","","Mozilla/5.0 (Windows NT 10.0; Win64; x64) AppleWebKit/537.36 (KHTML, like Gecko) Chrome/134.0.0.0 Safari/537.36","WebKit","Chrome","134.0.0.0","Windows","10.0","https://hz8g1ckzuq.cognition.run/","en-US,en;q=0.9","3dgv4yuovb0frjk","22","[""Black or African-American""]","No","Male","3340915.900000006","null","","<p></p>","null","rating","tdc","attraction_1","1","televisions","null","null","null","null","null","null","1","","","","","","","","","",""
"","","","","","rating_trial","survey-html-form","76","2102328","0.0-3.0-1.36","84","1","2025-04-11 14:36:30","bb671e3ae32f654b8954ea4c4635f915","","Mozilla/5.0 (Windows NT 10.0; Win64; x64) AppleWebKit/537.36 (KHTML, like Gecko) Chrome/134.0.0.0 Safari/537.36","WebKit","Chrome","134.0.0.0","Windows","10.0","https://hz8g1ckzuq.cognition.run/","en-US,en;q=0.9","3dgv4yuovb0frjk","22","[""Black or African-American""]","No","Male","3340915.900000006","22082","","","{""price_1"":""45"",""price_2"":""40"",""price_3"":""40""}","rating","tdc","attraction_1","1","televisions","null","null","null","null","null","null","1","60","50","60","50","60","45","Screen size","Average lifespan","",""
"","","","","","rating_trial_setup","html-keyboard-response","77","2102633","0.0-3.0-0.37","84","1","2025-04-11 14:36:30","bb671e3ae32f654b8954ea4c4635f915","","Mozilla/5.0 (Windows NT 10.0; Win64; x64) AppleWebKit/537.36 (KHTML, like Gecko) Chrome/134.0.0.0 Safari/537.36","WebKit","Chrome","134.0.0.0","Windows","10.0","https://hz8g1ckzuq.cognition.run/","en-US,en;q=0.9","3dgv4yuovb0frjk","22","[""Black or African-American""]","No","Male","3340915.900000006","null","","<p></p>","null","rating","bww","catch","null","televisions","75","50","10","50","10","10","1","","","","","","","","","",""
"","","","","","rating_trial","survey-html-form","78","2126231","0.0-3.0-1.37","84","1","2025-04-11 14:36:30","bb671e3ae32f654b8954ea4c4635f915","","Mozilla/5.0 (Windows NT 10.0; Win64; x64) AppleWebKit/537.36 (KHTML, like Gecko) Chrome/134.0.0.0 Safari/537.36","WebKit","Chrome","134.0.0.0","Windows","10.0","https://hz8g1ckzuq.cognition.run/","en-US,en;q=0.9","3dgv4yuovb0frjk","22","[""Black or African-American""]","No","Male","3340915.900000006","23594","","","{""price_1"":""68"",""price_2"":""28"",""price_3"":""18""}","rating","bww","catch","null","televisions","75","50","10","50","10","10","1","null","null","null","null","null","null","Screen size","Average lifespan","",""
"","","","","","rating_trial_setup","html-keyboard-response","79","2126536","0.0-3.0-0.38","84","1","2025-04-11 14:36:30","bb671e3ae32f654b8954ea4c4635f915","","Mozilla/5.0 (Windows NT 10.0; Win64; x64) AppleWebKit/537.36 (KHTML, like Gecko) Chrome/134.0.0.0 Safari/537.36","WebKit","Chrome","134.0.0.0","Windows","10.0","https://hz8g1ckzuq.cognition.run/","en-US,en;q=0.9","3dgv4yuovb0frjk","22","[""Black or African-American""]","No","Male","3340915.900000006","null","","<p></p>","null","rating","wbw","catch","null","televisions","75","50","40","35","30","50","1","","","","","","","","","",""
"","","","","","rating_trial","survey-html-form","80","2154306","0.0-3.0-1.38","84","1","2025-04-11 14:36:30","bb671e3ae32f654b8954ea4c4635f915","","Mozilla/5.0 (Windows NT 10.0; Win64; x64) AppleWebKit/537.36 (KHTML, like Gecko) Chrome/134.0.0.0 Safari/537.36","WebKit","Chrome","134.0.0.0","Windows","10.0","https://hz8g1ckzuq.cognition.run/","en-US,en;q=0.9","3dgv4yuovb0frjk","22","[""Black or African-American""]","No","Male","3340915.900000006","27766","","","{""price_1"":""51"",""price_2"":""68"",""price_3"":""32""}","rating","wbw","catch","null","televisions","75","50","40","35","30","50","1","null","null","null","null","null","null","Screen size","Average lifespan","",""
"","","","","","rating_trial_setup","html-keyboard-response","81","2154610","0.0-3.0-0.39","84","1","2025-04-11 14:36:30","bb671e3ae32f654b8954ea4c4635f915","","Mozilla/5.0 (Windows NT 10.0; Win64; x64) AppleWebKit/537.36 (KHTML, like Gecko) Chrome/134.0.0.0 Safari/537.36","WebKit","Chrome","134.0.0.0","Windows","10.0","https://hz8g1ckzuq.cognition.run/","en-US,en;q=0.9","3dgv4yuovb0frjk","22","[""Black or African-American""]","No","Male","3340915.900000006","null","","<p></p>","null","rating","ctd","repulsion_2","1","microwave ovens","null","null","null","null","null","null","2","","","","","","","","","",""
"","","","","","rating_trial","survey-html-form","82","2178237","0.0-3.0-1.39","84","1","2025-04-11 14:36:30","bb671e3ae32f654b8954ea4c4635f915","","Mozilla/5.0 (Windows NT 10.0; Win64; x64) AppleWebKit/537.36 (KHTML, like Gecko) Chrome/134.0.0.0 Safari/537.36","WebKit","Chrome","134.0.0.0","Windows","10.0","https://hz8g1ckzuq.cognition.run/","en-US,en;q=0.9","3dgv4yuovb0frjk","22","[""Black or African-American""]","No","Male","3340915.900000006","23623","","","{""price_1"":""98"",""price_2"":""94"",""price_3"":""87""}","rating","ctd","repulsion_2","1","microwave ovens","null","null","null","null","null","null","2","100","90","100","30","40","20","Warranty","Cooking power","",""
"","","","","","","instructions","83","2868358","0.0-4.0","84","1","2025-04-11 14:36:30","bb671e3ae32f654b8954ea4c4635f915","","Mozilla/5.0 (Windows NT 10.0; Win64; x64) AppleWebKit/537.36 (KHTML, like Gecko) Chrome/134.0.0.0 Safari/537.36","WebKit","Chrome","134.0.0.0","Windows","10.0","https://hz8g1ckzuq.cognition.run/","en-US,en;q=0.9","3dgv4yuovb0frjk","22","[""Black or African-American""]","No","Male","3340915.900000006","690116","[{""page_index"":0,""viewing_time"":2645},{""page_index"":1,""viewing_time"":1654},{""page_index"":2,""viewing_time"":2794},{""page_index"":3,""viewing_time"":2936},{""page_index"":4,""viewing_time"":4552},{""page_index"":5,""viewing_time"":3461},{""page_index"":6,""viewing_time"":668789},{""page_index"":7,""viewing_time"":3286}]","","","","","","","","","","","","","","","","","","","","","","","",""
"","","","","","choice_trial_setup","html-keyboard-response","84","2868664","0.0-5.0-0.0","84","1","2025-04-11 14:36:30","bb671e3ae32f654b8954ea4c4635f915","","Mozilla/5.0 (Windows NT 10.0; Win64; x64) AppleWebKit/537.36 (KHTML, like Gecko) Chrome/134.0.0.0 Safari/537.36","WebKit","Chrome","134.0.0.0","Windows","10.0","https://hz8g1ckzuq.cognition.run/","en-US,en;q=0.9","3dgv4yuovb0frjk","22","[""Black or African-American""]","No","Male","3340915.900000006","null","","<p></p>","null","choice","dct","repulsion_1","2","televisions","null","null","null","null","null","null","2","","","","","","","","","",""
"","","","","","choice_trial","survey-html-form","85","2874261","0.0-5.0-1.0","84","1","2025-04-11 14:36:30","bb671e3ae32f654b8954ea4c4635f915","","Mozilla/5.0 (Windows NT 10.0; Win64; x64) AppleWebKit/537.36 (KHTML, like Gecko) Chrome/134.0.0.0 Safari/537.36","WebKit","Chrome","134.0.0.0","Windows","10.0","https://hz8g1ckzuq.cognition.run/","en-US,en;q=0.9","3dgv4yuovb0frjk","22","[""Black or African-American""]","No","Male","3340915.900000006","5593","","","{""product_choice"":""B""}","choice","dct","repulsion_1","2","televisions","null","null","null","null","null","null","2","30","40","25","100","90","100","Screen size","Average lifespan","",""
"","","","","","choice_trial_setup","html-keyboard-response","86","2874567","0.0-5.0-0.1","84","1","2025-04-11 14:36:30","bb671e3ae32f654b8954ea4c4635f915","","Mozilla/5.0 (Windows NT 10.0; Win64; x64) AppleWebKit/537.36 (KHTML, like Gecko) Chrome/134.0.0.0 Safari/537.36","WebKit","Chrome","134.0.0.0","Windows","10.0","https://hz8g1ckzuq.cognition.run/","en-US,en;q=0.9","3dgv4yuovb0frjk","22","[""Black or African-American""]","No","Male","3340915.900000006","null","","<p></p>","null","choice","tdc","attraction_2","2","televisions","null","null","null","null","null","null","2","","","","","","","","","",""
"","","","","","choice_trial","survey-html-form","87","2879205","0.0-5.0-1.1","84","1","2025-04-11 14:36:30","bb671e3ae32f654b8954ea4c4635f915","","Mozilla/5.0 (Windows NT 10.0; Win64; x64) AppleWebKit/537.36 (KHTML, like Gecko) Chrome/134.0.0.0 Safari/537.36","WebKit","Chrome","134.0.0.0","Windows","10.0","https://hz8g1ckzuq.cognition.run/","en-US,en;q=0.9","3dgv4yuovb0frjk","22","[""Black or African-American""]","No","Male","3340915.900000006","4634","","","{""product_choice"":""C""}","choice","tdc","attraction_2","2","televisions","null","null","null","null","null","null","2","50","60","40","60","50","60","Screen size","Average lifespan","",""
"","","","","","choice_trial_setup","html-keyboard-response","88","2879510","0.0-5.0-0.2","84","1","2025-04-11 14:36:30","bb671e3ae32f654b8954ea4c4635f915","","Mozilla/5.0 (Windows NT 10.0; Win64; x64) AppleWebKit/537.36 (KHTML, like Gecko) Chrome/134.0.0.0 Safari/537.36","WebKit","Chrome","134.0.0.0","Windows","10.0","https://hz8g1ckzuq.cognition.run/","en-US,en;q=0.9","3dgv4yuovb0frjk","22","[""Black or African-American""]","No","Male","3340915.900000006","null","","<p></p>","null","choice","dtc","attraction_1","2","washing machines","null","null","null","null","null","null","1","","","","","","","","","",""
"","","","","","choice_trial","survey-html-form","89","2885936","0.0-5.0-1.2","84","1","2025-04-11 14:36:30","bb671e3ae32f654b8954ea4c4635f915","","Mozilla/5.0 (Windows NT 10.0; Win64; x64) AppleWebKit/537.36 (KHTML, like Gecko) Chrome/134.0.0.0 Safari/537.36","WebKit","Chrome","134.0.0.0","Windows","10.0","https://hz8g1ckzuq.cognition.run/","en-US,en;q=0.9","3dgv4yuovb0frjk","22","[""Black or African-American""]","No","Male","3340915.900000006","6422","","","{""product_choice"":""B""}","choice","dtc","attraction_1","2","washing machines","null","null","null","null","null","null","1","50","60","45","60","50","60","Average lifespan","Energy savings","",""
"","","","","","choice_trial_setup","html-keyboard-response","90","2886240","0.0-5.0-0.3","84","1","2025-04-11 14:36:30","bb671e3ae32f654b8954ea4c4635f915","","Mozilla/5.0 (Windows NT 10.0; Win64; x64) AppleWebKit/537.36 (KHTML, like Gecko) Chrome/134.0.0.0 Safari/537.36","WebKit","Chrome","134.0.0.0","Windows","10.0","https://hz8g1ckzuq.cognition.run/","en-US,en;q=0.9","3dgv4yuovb0frjk","22","[""Black or African-American""]","No","Male","3340915.900000006","null","","<p></p>","null","choice","ctd","repulsion_2","2","laptops","null","null","null","null","null","null","1","","","","","","","","","",""
"","","","","","choice_trial","survey-html-form","91","2894428","0.0-5.0-1.3","84","1","2025-04-11 14:36:30","bb671e3ae32f654b8954ea4c4635f915","","Mozilla/5.0 (Windows NT 10.0; Win64; x64) AppleWebKit/537.36 (KHTML, like Gecko) Chrome/134.0.0.0 Safari/537.36","WebKit","Chrome","134.0.0.0","Windows","10.0","https://hz8g1ckzuq.cognition.run/","en-US,en;q=0.9","3dgv4yuovb0frjk","22","[""Black or African-American""]","No","Male","3340915.900000006","8184","","","{""product_choice"":""A""}","choice","ctd","repulsion_2","2","laptops","null","null","null","null","null","null","1","30","40","20","100","90","100","Processing speed","Memory (RAM)","",""
"","","","","","choice_trial_setup","html-keyboard-response","92","2894732","0.0-5.0-0.4","84","1","2025-04-11 14:36:30","bb671e3ae32f654b8954ea4c4635f915","","Mozilla/5.0 (Windows NT 10.0; Win64; x64) AppleWebKit/537.36 (KHTML, like Gecko) Chrome/134.0.0.0 Safari/537.36","WebKit","Chrome","134.0.0.0","Windows","10.0","https://hz8g1ckzuq.cognition.run/","en-US,en;q=0.9","3dgv4yuovb0frjk","22","[""Black or African-American""]","No","Male","3340915.900000006","null","","<p></p>","null","choice","dtc","repulsion_1","2","microwave ovens","null","null","null","null","null","null","2","","","","","","","","","",""
"","","","","","choice_trial","survey-html-form","93","2901426","0.0-5.0-1.4","84","1","2025-04-11 14:36:30","bb671e3ae32f654b8954ea4c4635f915","","Mozilla/5.0 (Windows NT 10.0; Win64; x64) AppleWebKit/537.36 (KHTML, like Gecko) Chrome/134.0.0.0 Safari/537.36","WebKit","Chrome","134.0.0.0","Windows","10.0","https://hz8g1ckzuq.cognition.run/","en-US,en;q=0.9","3dgv4yuovb0frjk","22","[""Black or African-American""]","No","Male","3340915.900000006","6689","","","{""product_choice"":""B""}","choice","dtc","repulsion_1","2","microwave ovens","null","null","null","null","null","null","2","30","40","25","100","90","100","Warranty","Cooking power","",""
"","","","","","choice_trial_setup","html-keyboard-response","94","2901731","0.0-5.0-0.5","84","1","2025-04-11 14:36:30","bb671e3ae32f654b8954ea4c4635f915","","Mozilla/5.0 (Windows NT 10.0; Win64; x64) AppleWebKit/537.36 (KHTML, like Gecko) Chrome/134.0.0.0 Safari/537.36","WebKit","Chrome","134.0.0.0","Windows","10.0","https://hz8g1ckzuq.cognition.run/","en-US,en;q=0.9","3dgv4yuovb0frjk","22","[""Black or African-American""]","No","Male","3340915.900000006","null","","<p></p>","null","choice","tdc","repulsion_1","1","washing machines","null","null","null","null","null","null","1","","","","","","","","","",""
"","","","","","choice_trial","survey-html-form","95","2909973","0.0-5.0-1.5","84","1","2025-04-11 14:36:30","bb671e3ae32f654b8954ea4c4635f915","","Mozilla/5.0 (Windows NT 10.0; Win64; x64) AppleWebKit/537.36 (KHTML, like Gecko) Chrome/134.0.0.0 Safari/537.36","WebKit","Chrome","134.0.0.0","Windows","10.0","https://hz8g1ckzuq.cognition.run/","en-US,en;q=0.9","3dgv4yuovb0frjk","22","[""Black or African-American""]","No","Male","3340915.900000006","8238","","","{""product_choice"":""C""}","choice","tdc","repulsion_1","1","washing machines","null","null","null","null","null","null","1","100","90","100","30","40","25","Average lifespan","Energy savings","",""
"","","","","","choice_trial_setup","html-keyboard-response","96","2910277","0.0-5.0-0.6","84","1","2025-04-11 14:36:30","bb671e3ae32f654b8954ea4c4635f915","","Mozilla/5.0 (Windows NT 10.0; Win64; x64) AppleWebKit/537.36 (KHTML, like Gecko) Chrome/134.0.0.0 Safari/537.36","WebKit","Chrome","134.0.0.0","Windows","10.0","https://hz8g1ckzuq.cognition.run/","en-US,en;q=0.9","3dgv4yuovb0frjk","22","[""Black or African-American""]","No","Male","3340915.900000006","null","","<p></p>","null","choice","bww","catch","null","laptops","50","95","10","40","35","20","2","","","","","","","","","",""
"","","","","","choice_trial","survey-html-form","97","2916212","0.0-5.0-1.6","84","1","2025-04-11 14:36:30","bb671e3ae32f654b8954ea4c4635f915","","Mozilla/5.0 (Windows NT 10.0; Win64; x64) AppleWebKit/537.36 (KHTML, like Gecko) Chrome/134.0.0.0 Safari/537.36","WebKit","Chrome","134.0.0.0","Windows","10.0","https://hz8g1ckzuq.cognition.run/","en-US,en;q=0.9","3dgv4yuovb0frjk","22","[""Black or African-American""]","No","Male","3340915.900000006","5930","","","{""product_choice"":""A""}","choice","bww","catch","null","laptops","50","95","10","40","35","20","2","null","null","null","null","null","null","Processing speed","Memory (RAM)","",""
"","","","","","choice_trial_setup","html-keyboard-response","98","2916518","0.0-5.0-0.7","84","1","2025-04-11 14:36:30","bb671e3ae32f654b8954ea4c4635f915","","Mozilla/5.0 (Windows NT 10.0; Win64; x64) AppleWebKit/537.36 (KHTML, like Gecko) Chrome/134.0.0.0 Safari/537.36","WebKit","Chrome","134.0.0.0","Windows","10.0","https://hz8g1ckzuq.cognition.run/","en-US,en;q=0.9","3dgv4yuovb0frjk","22","[""Black or African-American""]","No","Male","3340915.900000006","null","","<p></p>","null","choice","wwb","catch","null","microwave ovens","85","60","20","10","25","35","1","","","","","","","","","",""
"","","","","","choice_trial","survey-html-form","99","2921010","0.0-5.0-1.7","84","1","2025-04-11 14:36:30","bb671e3ae32f654b8954ea4c4635f915","","Mozilla/5.0 (Windows NT 10.0; Win64; x64) AppleWebKit/537.36 (KHTML, like Gecko) Chrome/134.0.0.0 Safari/537.36","WebKit","Chrome","134.0.0.0","Windows","10.0","https://hz8g1ckzuq.cognition.run/","en-US,en;q=0.9","3dgv4yuovb0frjk","22","[""Black or African-American""]","No","Male","3340915.900000006","4488","","","{""product_choice"":""C""}","choice","wwb","catch","null","microwave ovens","85","60","20","10","25","35","1","null","null","null","null","null","null","Warranty","Cooking power","",""
"","","","","","choice_trial_setup","html-keyboard-response","100","2921316","0.0-5.0-0.8","84","1","2025-04-11 14:36:30","bb671e3ae32f654b8954ea4c4635f915","","Mozilla/5.0 (Windows NT 10.0; Win64; x64) AppleWebKit/537.36 (KHTML, like Gecko) Chrome/134.0.0.0 Safari/537.36","WebKit","Chrome","134.0.0.0","Windows","10.0","https://hz8g1ckzuq.cognition.run/","en-US,en;q=0.9","3dgv4yuovb0frjk","22","[""Black or African-American""]","No","Male","3340915.900000006","null","","<p></p>","null","choice","cdt","repulsion_1","1","laptops","null","null","null","null","null","null","1","","","","","","","","","",""
"","","","","","choice_trial","survey-html-form","101","2926669","0.0-5.0-1.8","84","1","2025-04-11 14:36:30","bb671e3ae32f654b8954ea4c4635f915","","Mozilla/5.0 (Windows NT 10.0; Win64; x64) AppleWebKit/537.36 (KHTML, like Gecko) Chrome/134.0.0.0 Safari/537.36","WebKit","Chrome","134.0.0.0","Windows","10.0","https://hz8g1ckzuq.cognition.run/","en-US,en;q=0.9","3dgv4yuovb0frjk","22","[""Black or African-American""]","No","Male","3340915.900000006","5348","","","{""product_choice"":""C""}","choice","cdt","repulsion_1","1","laptops","null","null","null","null","null","null","1","100","90","100","30","40","25","Processing speed","Memory (RAM)","",""
"","","","","","choice_trial_setup","html-keyboard-response","102","2926975","0.0-5.0-0.9","84","1","2025-04-11 14:36:30","bb671e3ae32f654b8954ea4c4635f915","","Mozilla/5.0 (Windows NT 10.0; Win64; x64) AppleWebKit/537.36 (KHTML, like Gecko) Chrome/134.0.0.0 Safari/537.36","WebKit","Chrome","134.0.0.0","Windows","10.0","https://hz8g1ckzuq.cognition.run/","en-US,en;q=0.9","3dgv4yuovb0frjk","22","[""Black or African-American""]","No","Male","3340915.900000006","null","","<p></p>","null","choice","wbw","catch","null","microwave ovens","55","95","50","40","30","30","2","","","","","","","","","",""
"","","","","","choice_trial","survey-html-form","103","2931154","0.0-5.0-1.9","84","1","2025-04-11 14:36:30","bb671e3ae32f654b8954ea4c4635f915","","Mozilla/5.0 (Windows NT 10.0; Win64; x64) AppleWebKit/537.36 (KHTML, like Gecko) Chrome/134.0.0.0 Safari/537.36","WebKit","Chrome","134.0.0.0","Windows","10.0","https://hz8g1ckzuq.cognition.run/","en-US,en;q=0.9","3dgv4yuovb0frjk","22","[""Black or African-American""]","No","Male","3340915.900000006","4174","","","{""product_choice"":""B""}","choice","wbw","catch","null","microwave ovens","55","95","50","40","30","30","2","null","null","null","null","null","null","Warranty","Cooking power","",""
"","","","","","choice_trial_setup","html-keyboard-response","104","2931459","0.0-5.0-0.10","84","1","2025-04-11 14:36:30","bb671e3ae32f654b8954ea4c4635f915","","Mozilla/5.0 (Windows NT 10.0; Win64; x64) AppleWebKit/537.36 (KHTML, like Gecko) Chrome/134.0.0.0 Safari/537.36","WebKit","Chrome","134.0.0.0","Windows","10.0","https://hz8g1ckzuq.cognition.run/","en-US,en;q=0.9","3dgv4yuovb0frjk","22","[""Black or African-American""]","No","Male","3340915.900000006","null","","<p></p>","null","choice","dtc","attraction_2","2","laptops","null","null","null","null","null","null","1","","","","","","","","","",""
"","","","","","choice_trial","survey-html-form","105","2937540","0.0-5.0-1.10","84","1","2025-04-11 14:36:30","bb671e3ae32f654b8954ea4c4635f915","","Mozilla/5.0 (Windows NT 10.0; Win64; x64) AppleWebKit/537.36 (KHTML, like Gecko) Chrome/134.0.0.0 Safari/537.36","WebKit","Chrome","134.0.0.0","Windows","10.0","https://hz8g1ckzuq.cognition.run/","en-US,en;q=0.9","3dgv4yuovb0frjk","22","[""Black or African-American""]","No","Male","3340915.900000006","6076","","","{""product_choice"":""C""}","choice","dtc","attraction_2","2","laptops","null","null","null","null","null","null","1","50","60","40","60","50","60","Processing speed","Memory (RAM)","",""
"","","","","","choice_trial_setup","html-keyboard-response","106","2937845","0.0-5.0-0.11","84","1","2025-04-11 14:36:30","bb671e3ae32f654b8954ea4c4635f915","","Mozilla/5.0 (Windows NT 10.0; Win64; x64) AppleWebKit/537.36 (KHTML, like Gecko) Chrome/134.0.0.0 Safari/537.36","WebKit","Chrome","134.0.0.0","Windows","10.0","https://hz8g1ckzuq.cognition.run/","en-US,en;q=0.9","3dgv4yuovb0frjk","22","[""Black or African-American""]","No","Male","3340915.900000006","null","","<p></p>","null","choice","dtc","repulsion_2","2","microwave ovens","null","null","null","null","null","null","1","","","","","","","","","",""
"","","","","","choice_trial","survey-html-form","107","2944265","0.0-5.0-1.11","84","1","2025-04-11 14:36:30","bb671e3ae32f654b8954ea4c4635f915","","Mozilla/5.0 (Windows NT 10.0; Win64; x64) AppleWebKit/537.36 (KHTML, like Gecko) Chrome/134.0.0.0 Safari/537.36","WebKit","Chrome","134.0.0.0","Windows","10.0","https://hz8g1ckzuq.cognition.run/","en-US,en;q=0.9","3dgv4yuovb0frjk","22","[""Black or African-American""]","No","Male","3340915.900000006","6416","","","{""product_choice"":""B""}","choice","dtc","repulsion_2","2","microwave ovens","null","null","null","null","null","null","1","30","40","20","100","90","100","Warranty","Cooking power","",""
"","","","","","choice_trial_setup","html-keyboard-response","108","2944570","0.0-5.0-0.12","84","1","2025-04-11 14:36:30","bb671e3ae32f654b8954ea4c4635f915","","Mozilla/5.0 (Windows NT 10.0; Win64; x64) AppleWebKit/537.36 (KHTML, like Gecko) Chrome/134.0.0.0 Safari/537.36","WebKit","Chrome","134.0.0.0","Windows","10.0","https://hz8g1ckzuq.cognition.run/","en-US,en;q=0.9","3dgv4yuovb0frjk","22","[""Black or African-American""]","No","Male","3340915.900000006","null","","<p></p>","null","choice","dct","repulsion_2","2","washing machines","null","null","null","null","null","null","1","","","","","","","","","",""
"","","","","","choice_trial","survey-html-form","109","2952057","0.0-5.0-1.12","84","1","2025-04-11 14:36:30","bb671e3ae32f654b8954ea4c4635f915","","Mozilla/5.0 (Windows NT 10.0; Win64; x64) AppleWebKit/537.36 (KHTML, like Gecko) Chrome/134.0.0.0 Safari/537.36","WebKit","Chrome","134.0.0.0","Windows","10.0","https://hz8g1ckzuq.cognition.run/","en-US,en;q=0.9","3dgv4yuovb0frjk","22","[""Black or African-American""]","No","Male","3340915.900000006","7483","","","{""product_choice"":""C""}","choice","dct","repulsion_2","2","washing machines","null","null","null","null","null","null","1","30","40","20","100","90","100","Average lifespan","Energy savings","",""
"","","","","","choice_trial_setup","html-keyboard-response","110","2952363","0.0-5.0-0.13","84","1","2025-04-11 14:36:30","bb671e3ae32f654b8954ea4c4635f915","","Mozilla/5.0 (Windows NT 10.0; Win64; x64) AppleWebKit/537.36 (KHTML, like Gecko) Chrome/134.0.0.0 Safari/537.36","WebKit","Chrome","134.0.0.0","Windows","10.0","https://hz8g1ckzuq.cognition.run/","en-US,en;q=0.9","3dgv4yuovb0frjk","22","[""Black or African-American""]","No","Male","3340915.900000006","null","","<p></p>","null","choice","wbw","catch","null","washing machines","50","90","50","50","25","10","2","","","","","","","","","",""
"","","","","","choice_trial","survey-html-form","111","2961010","0.0-5.0-1.13","84","1","2025-04-11 14:36:30","bb671e3ae32f654b8954ea4c4635f915","","Mozilla/5.0 (Windows NT 10.0; Win64; x64) AppleWebKit/537.36 (KHTML, like Gecko) Chrome/134.0.0.0 Safari/537.36","WebKit","Chrome","134.0.0.0","Windows","10.0","https://hz8g1ckzuq.cognition.run/","en-US,en;q=0.9","3dgv4yuovb0frjk","22","[""Black or African-American""]","No","Male","3340915.900000006","8642","","","{""product_choice"":""B""}","choice","wbw","catch","null","washing machines","50","90","50","50","25","10","2","null","null","null","null","null","null","Average lifespan","Energy savings","",""
"","","","","","choice_trial_setup","html-keyboard-response","112","2961316","0.0-5.0-0.14","84","1","2025-04-11 14:36:30","bb671e3ae32f654b8954ea4c4635f915","","Mozilla/5.0 (Windows NT 10.0; Win64; x64) AppleWebKit/537.36 (KHTML, like Gecko) Chrome/134.0.0.0 Safari/537.36","WebKit","Chrome","134.0.0.0","Windows","10.0","https://hz8g1ckzuq.cognition.run/","en-US,en;q=0.9","3dgv4yuovb0frjk","22","[""Black or African-American""]","No","Male","3340915.900000006","null","","<p></p>","null","choice","tdc","attraction_2","2","washing machines","null","null","null","null","null","null","2","","","","","","","","","",""
"","","","","","choice_trial","survey-html-form","113","2966083","0.0-5.0-1.14","84","1","2025-04-11 14:36:30","bb671e3ae32f654b8954ea4c4635f915","","Mozilla/5.0 (Windows NT 10.0; Win64; x64) AppleWebKit/537.36 (KHTML, like Gecko) Chrome/134.0.0.0 Safari/537.36","WebKit","Chrome","134.0.0.0","Windows","10.0","https://hz8g1ckzuq.cognition.run/","en-US,en;q=0.9","3dgv4yuovb0frjk","22","[""Black or African-American""]","No","Male","3340915.900000006","4762","","","{""product_choice"":""A""}","choice","tdc","attraction_2","2","washing machines","null","null","null","null","null","null","2","50","60","40","60","50","60","Average lifespan","Energy savings","",""
"","","","","","choice_trial_setup","html-keyboard-response","114","2966389","0.0-5.0-0.15","84","1","2025-04-11 14:36:30","bb671e3ae32f654b8954ea4c4635f915","","Mozilla/5.0 (Windows NT 10.0; Win64; x64) AppleWebKit/537.36 (KHTML, like Gecko) Chrome/134.0.0.0 Safari/537.36","WebKit","Chrome","134.0.0.0","Windows","10.0","https://hz8g1ckzuq.cognition.run/","en-US,en;q=0.9","3dgv4yuovb0frjk","22","[""Black or African-American""]","No","Male","3340915.900000006","null","","<p></p>","null","choice","bww","catch","null","laptops","70","95","25","30","5","5","2","","","","","","","","","",""
"","","","","","choice_trial","survey-html-form","115","2971661","0.0-5.0-1.15","84","1","2025-04-11 14:36:30","bb671e3ae32f654b8954ea4c4635f915","","Mozilla/5.0 (Windows NT 10.0; Win64; x64) AppleWebKit/537.36 (KHTML, like Gecko) Chrome/134.0.0.0 Safari/537.36","WebKit","Chrome","134.0.0.0","Windows","10.0","https://hz8g1ckzuq.cognition.run/","en-US,en;q=0.9","3dgv4yuovb0frjk","22","[""Black or African-American""]","No","Male","3340915.900000006","5266","","","{""product_choice"":""A""}","choice","bww","catch","null","laptops","70","95","25","30","5","5","2","null","null","null","null","null","null","Processing speed","Memory (RAM)","",""
"","","","","","choice_trial_setup","html-keyboard-response","116","2971968","0.0-5.0-0.16","84","1","2025-04-11 14:36:30","bb671e3ae32f654b8954ea4c4635f915","","Mozilla/5.0 (Windows NT 10.0; Win64; x64) AppleWebKit/537.36 (KHTML, like Gecko) Chrome/134.0.0.0 Safari/537.36","WebKit","Chrome","134.0.0.0","Windows","10.0","https://hz8g1ckzuq.cognition.run/","en-US,en;q=0.9","3dgv4yuovb0frjk","22","[""Black or African-American""]","No","Male","3340915.900000006","null","","<p></p>","null","choice","wbw","catch","null","televisions","75","55","10","40","15","20","1","","","","","","","","","",""
"","","","","","choice_trial","survey-html-form","117","2976949","0.0-5.0-1.16","84","1","2025-04-11 14:36:30","bb671e3ae32f654b8954ea4c4635f915","","Mozilla/5.0 (Windows NT 10.0; Win64; x64) AppleWebKit/537.36 (KHTML, like Gecko) Chrome/134.0.0.0 Safari/537.36","WebKit","Chrome","134.0.0.0","Windows","10.0","https://hz8g1ckzuq.cognition.run/","en-US,en;q=0.9","3dgv4yuovb0frjk","22","[""Black or African-American""]","No","Male","3340915.900000006","4976","","","{""product_choice"":""B""}","choice","wbw","catch","null","televisions","75","55","10","40","15","20","1","null","null","null","null","null","null","Screen size","Average lifespan","",""
"","","","","","choice_trial_setup","html-keyboard-response","118","2977255","0.0-5.0-0.17","84","1","2025-04-11 14:36:30","bb671e3ae32f654b8954ea4c4635f915","","Mozilla/5.0 (Windows NT 10.0; Win64; x64) AppleWebKit/537.36 (KHTML, like Gecko) Chrome/134.0.0.0 Safari/537.36","WebKit","Chrome","134.0.0.0","Windows","10.0","https://hz8g1ckzuq.cognition.run/","en-US,en;q=0.9","3dgv4yuovb0frjk","22","[""Black or African-American""]","No","Male","3340915.900000006","null","","<p></p>","null","choice","dtc","repulsion_2","2","televisions","null","null","null","null","null","null","2","","","","","","","","","",""
"","","","","","choice_trial","survey-html-form","119","3112129","0.0-5.0-1.17","84","1","2025-04-11 14:36:30","bb671e3ae32f654b8954ea4c4635f915","","Mozilla/5.0 (Windows NT 10.0; Win64; x64) AppleWebKit/537.36 (KHTML, like Gecko) Chrome/134.0.0.0 Safari/537.36","WebKit","Chrome","134.0.0.0","Windows","10.0","https://hz8g1ckzuq.cognition.run/","en-US,en;q=0.9","3dgv4yuovb0frjk","22","[""Black or African-American""]","No","Male","3340915.900000006","134868","","","{""product_choice"":""C""}","choice","dtc","repulsion_2","2","televisions","null","null","null","null","null","null","2","30","40","20","100","90","100","Screen size","Average lifespan","",""
"","","","","","choice_trial_setup","html-keyboard-response","120","3112438","0.0-5.0-0.18","84","1","2025-04-11 14:36:30","bb671e3ae32f654b8954ea4c4635f915","","Mozilla/5.0 (Windows NT 10.0; Win64; x64) AppleWebKit/537.36 (KHTML, like Gecko) Chrome/134.0.0.0 Safari/537.36","WebKit","Chrome","134.0.0.0","Windows","10.0","https://hz8g1ckzuq.cognition.run/","en-US,en;q=0.9","3dgv4yuovb0frjk","22","[""Black or African-American""]","No","Male","3340915.900000006","null","","<p></p>","null","choice","tdc","attraction_2","1","microwave ovens","null","null","null","null","null","null","1","","","","","","","","","",""
"","","","","","choice_trial","survey-html-form","121","3122523","0.0-5.0-1.18","84","1","2025-04-11 14:36:30","bb671e3ae32f654b8954ea4c4635f915","","Mozilla/5.0 (Windows NT 10.0; Win64; x64) AppleWebKit/537.36 (KHTML, like Gecko) Chrome/134.0.0.0 Safari/537.36","WebKit","Chrome","134.0.0.0","Windows","10.0","https://hz8g1ckzuq.cognition.run/","en-US,en;q=0.9","3dgv4yuovb0frjk","22","[""Black or African-American""]","No","Male","3340915.900000006","10078","","","{""product_choice"":""C""}","choice","tdc","attraction_2","1","microwave ovens","null","null","null","null","null","null","1","60","50","60","50","60","40","Warranty","Cooking power","",""
"","","","","","choice_trial_setup","html-keyboard-response","122","3122831","0.0-5.0-0.19","84","1","2025-04-11 14:36:30","bb671e3ae32f654b8954ea4c4635f915","","Mozilla/5.0 (Windows NT 10.0; Win64; x64) AppleWebKit/537.36 (KHTML, like Gecko) Chrome/134.0.0.0 Safari/537.36","WebKit","Chrome","134.0.0.0","Windows","10.0","https://hz8g1ckzuq.cognition.run/","en-US,en;q=0.9","3dgv4yuovb0frjk","22","[""Black or African-American""]","No","Male","3340915.900000006","null","","<p></p>","null","choice","bww","catch","null","televisions","80","75","5","25","25","40","2","","","","","","","","","",""
"","","","","","choice_trial","survey-html-form","123","3169941","0.0-5.0-1.19","84","1","2025-04-11 14:36:30","bb671e3ae32f654b8954ea4c4635f915","","Mozilla/5.0 (Windows NT 10.0; Win64; x64) AppleWebKit/537.36 (KHTML, like Gecko) Chrome/134.0.0.0 Safari/537.36","WebKit","Chrome","134.0.0.0","Windows","10.0","https://hz8g1ckzuq.cognition.run/","en-US,en;q=0.9","3dgv4yuovb0frjk","22","[""Black or African-American""]","No","Male","3340915.900000006","47103","","","{""product_choice"":""A""}","choice","bww","catch","null","televisions","80","75","5","25","25","40","2","null","null","null","null","null","null","Screen size","Average lifespan","",""
"","","","","","choice_trial_setup","html-keyboard-response","124","3170249","0.0-5.0-0.20","84","1","2025-04-11 14:36:30","bb671e3ae32f654b8954ea4c4635f915","","Mozilla/5.0 (Windows NT 10.0; Win64; x64) AppleWebKit/537.36 (KHTML, like Gecko) Chrome/134.0.0.0 Safari/537.36","WebKit","Chrome","134.0.0.0","Windows","10.0","https://hz8g1ckzuq.cognition.run/","en-US,en;q=0.9","3dgv4yuovb0frjk","22","[""Black or African-American""]","No","Male","3340915.900000006","null","","<p></p>","null","choice","cdt","attraction_1","1","microwave ovens","null","null","null","null","null","null","1","","","","","","","","","",""
"","","","","","choice_trial","survey-html-form","125","3174597","0.0-5.0-1.20","84","1","2025-04-11 14:36:30","bb671e3ae32f654b8954ea4c4635f915","","Mozilla/5.0 (Windows NT 10.0; Win64; x64) AppleWebKit/537.36 (KHTML, like Gecko) Chrome/134.0.0.0 Safari/537.36","WebKit","Chrome","134.0.0.0","Windows","10.0","https://hz8g1ckzuq.cognition.run/","en-US,en;q=0.9","3dgv4yuovb0frjk","22","[""Black or African-American""]","No","Male","3340915.900000006","4341","","","{""product_choice"":""A""}","choice","cdt","attraction_1","1","microwave ovens","null","null","null","null","null","null","1","60","50","60","50","60","45","Warranty","Cooking power","",""
"","","","","","choice_trial_setup","html-keyboard-response","126","3174903","0.0-5.0-0.21","84","1","2025-04-11 14:36:30","bb671e3ae32f654b8954ea4c4635f915","","Mozilla/5.0 (Windows NT 10.0; Win64; x64) AppleWebKit/537.36 (KHTML, like Gecko) Chrome/134.0.0.0 Safari/537.36","WebKit","Chrome","134.0.0.0","Windows","10.0","https://hz8g1ckzuq.cognition.run/","en-US,en;q=0.9","3dgv4yuovb0frjk","22","[""Black or African-American""]","No","Male","3340915.900000006","null","","<p></p>","null","choice","tdc","attraction_1","2","microwave ovens","null","null","null","null","null","null","2","","","","","","","","","",""
"","","","","","choice_trial","survey-html-form","127","3179634","0.0-5.0-1.21","84","1","2025-04-11 14:36:30","bb671e3ae32f654b8954ea4c4635f915","","Mozilla/5.0 (Windows NT 10.0; Win64; x64) AppleWebKit/537.36 (KHTML, like Gecko) Chrome/134.0.0.0 Safari/537.36","WebKit","Chrome","134.0.0.0","Windows","10.0","https://hz8g1ckzuq.cognition.run/","en-US,en;q=0.9","3dgv4yuovb0frjk","22","[""Black or African-American""]","No","Male","3340915.900000006","4723","","","{""product_choice"":""A""}","choice","tdc","attraction_1","2","microwave ovens","null","null","null","null","null","null","2","50","60","45","60","50","60","Warranty","Cooking power","",""
"","","","","","choice_trial_setup","html-keyboard-response","128","3179943","0.0-5.0-0.22","84","1","2025-04-11 14:36:30","bb671e3ae32f654b8954ea4c4635f915","","Mozilla/5.0 (Windows NT 10.0; Win64; x64) AppleWebKit/537.36 (KHTML, like Gecko) Chrome/134.0.0.0 Safari/537.36","WebKit","Chrome","134.0.0.0","Windows","10.0","https://hz8g1ckzuq.cognition.run/","en-US,en;q=0.9","3dgv4yuovb0frjk","22","[""Black or African-American""]","No","Male","3340915.900000006","null","","<p></p>","null","choice","tdc","attraction_2","1","laptops","null","null","null","null","null","null","1","","","","","","","","","",""
"","","","","","choice_trial","survey-html-form","129","3184684","0.0-5.0-1.22","84","1","2025-04-11 14:36:30","bb671e3ae32f654b8954ea4c4635f915","","Mozilla/5.0 (Windows NT 10.0; Win64; x64) AppleWebKit/537.36 (KHTML, like Gecko) Chrome/134.0.0.0 Safari/537.36","WebKit","Chrome","134.0.0.0","Windows","10.0","https://hz8g1ckzuq.cognition.run/","en-US,en;q=0.9","3dgv4yuovb0frjk","22","[""Black or African-American""]","No","Male","3340915.900000006","4734","","","{""product_choice"":""A""}","choice","tdc","attraction_2","1","laptops","null","null","null","null","null","null","1","60","50","60","50","60","40","Processing speed","Memory (RAM)","",""
"","","","","","choice_trial_setup","html-keyboard-response","130","3184990","0.0-5.0-0.23","84","1","2025-04-11 14:36:30","bb671e3ae32f654b8954ea4c4635f915","","Mozilla/5.0 (Windows NT 10.0; Win64; x64) AppleWebKit/537.36 (KHTML, like Gecko) Chrome/134.0.0.0 Safari/537.36","WebKit","Chrome","134.0.0.0","Windows","10.0","https://hz8g1ckzuq.cognition.run/","en-US,en;q=0.9","3dgv4yuovb0frjk","22","[""Black or African-American""]","No","Male","3340915.900000006","null","","<p></p>","null","choice","tdc","repulsion_2","1","televisions","null","null","null","null","null","null","1","","","","","","","","","",""
"","","","","","choice_trial","survey-html-form","131","3189158","0.0-5.0-1.23","84","1","2025-04-11 14:36:30","bb671e3ae32f654b8954ea4c4635f915","","Mozilla/5.0 (Windows NT 10.0; Win64; x64) AppleWebKit/537.36 (KHTML, like Gecko) Chrome/134.0.0.0 Safari/537.36","WebKit","Chrome","134.0.0.0","Windows","10.0","https://hz8g1ckzuq.cognition.run/","en-US,en;q=0.9","3dgv4yuovb0frjk","22","[""Black or African-American""]","No","Male","3340915.900000006","4160","","","{""product_choice"":""A""}","choice","tdc","repulsion_2","1","televisions","null","null","null","null","null","null","1","100","90","100","30","40","20","Screen size","Average lifespan","",""
"","","","","","choice_trial_setup","html-keyboard-response","132","3189468","0.0-5.0-0.24","84","1","2025-04-11 14:36:30","bb671e3ae32f654b8954ea4c4635f915","","Mozilla/5.0 (Windows NT 10.0; Win64; x64) AppleWebKit/537.36 (KHTML, like Gecko) Chrome/134.0.0.0 Safari/537.36","WebKit","Chrome","134.0.0.0","Windows","10.0","https://hz8g1ckzuq.cognition.run/","en-US,en;q=0.9","3dgv4yuovb0frjk","22","[""Black or African-American""]","No","Male","3340915.900000006","null","","<p></p>","null","choice","ctd","attraction_1","1","televisions","null","null","null","null","null","null","2","","","","","","","","","",""
"","","","","","choice_trial","survey-html-form","133","3194001","0.0-5.0-1.24","84","1","2025-04-11 14:36:30","bb671e3ae32f654b8954ea4c4635f915","","Mozilla/5.0 (Windows NT 10.0; Win64; x64) AppleWebKit/537.36 (KHTML, like Gecko) Chrome/134.0.0.0 Safari/537.36","WebKit","Chrome","134.0.0.0","Windows","10.0","https://hz8g1ckzuq.cognition.run/","en-US,en;q=0.9","3dgv4yuovb0frjk","22","[""Black or African-American""]","No","Male","3340915.900000006","4527","","","{""product_choice"":""B""}","choice","ctd","attraction_1","1","televisions","null","null","null","null","null","null","2","60","50","60","50","60","45","Screen size","Average lifespan","",""
"","","","","","choice_trial_setup","html-keyboard-response","134","3194311","0.0-5.0-0.25","84","1","2025-04-11 14:36:30","bb671e3ae32f654b8954ea4c4635f915","","Mozilla/5.0 (Windows NT 10.0; Win64; x64) AppleWebKit/537.36 (KHTML, like Gecko) Chrome/134.0.0.0 Safari/537.36","WebKit","Chrome","134.0.0.0","Windows","10.0","https://hz8g1ckzuq.cognition.run/","en-US,en;q=0.9","3dgv4yuovb0frjk","22","[""Black or African-American""]","No","Male","3340915.900000006","null","","<p></p>","null","choice","cdt","attraction_1","2","laptops","null","null","null","null","null","null","2","","","","","","","","","",""
"","","","","","choice_trial","survey-html-form","135","3198960","0.0-5.0-1.25","84","1","2025-04-11 14:36:30","bb671e3ae32f654b8954ea4c4635f915","","Mozilla/5.0 (Windows NT 10.0; Win64; x64) AppleWebKit/537.36 (KHTML, like Gecko) Chrome/134.0.0.0 Safari/537.36","WebKit","Chrome","134.0.0.0","Windows","10.0","https://hz8g1ckzuq.cognition.run/","en-US,en;q=0.9","3dgv4yuovb0frjk","22","[""Black or African-American""]","No","Male","3340915.900000006","4642","","","{""product_choice"":""A""}","choice","cdt","attraction_1","2","laptops","null","null","null","null","null","null","2","50","60","45","60","50","60","Processing speed","Memory (RAM)","",""
"","","","","","choice_trial_setup","html-keyboard-response","136","3199268","0.0-5.0-0.26","84","1","2025-04-11 14:36:30","bb671e3ae32f654b8954ea4c4635f915","","Mozilla/5.0 (Windows NT 10.0; Win64; x64) AppleWebKit/537.36 (KHTML, like Gecko) Chrome/134.0.0.0 Safari/537.36","WebKit","Chrome","134.0.0.0","Windows","10.0","https://hz8g1ckzuq.cognition.run/","en-US,en;q=0.9","3dgv4yuovb0frjk","22","[""Black or African-American""]","No","Male","3340915.900000006","null","","<p></p>","null","choice","tdc","repulsion_1","1","microwave ovens","null","null","null","null","null","null","1","","","","","","","","","",""
"","","","","","choice_trial","survey-html-form","137","3203610","0.0-5.0-1.26","84","1","2025-04-11 14:36:30","bb671e3ae32f654b8954ea4c4635f915","","Mozilla/5.0 (Windows NT 10.0; Win64; x64) AppleWebKit/537.36 (KHTML, like Gecko) Chrome/134.0.0.0 Safari/537.36","WebKit","Chrome","134.0.0.0","Windows","10.0","https://hz8g1ckzuq.cognition.run/","en-US,en;q=0.9","3dgv4yuovb0frjk","22","[""Black or African-American""]","No","Male","3340915.900000006","4335","","","{""product_choice"":""C""}","choice","tdc","repulsion_1","1","microwave ovens","null","null","null","null","null","null","1","100","90","100","30","40","25","Warranty","Cooking power","",""
"","","","","","choice_trial_setup","html-keyboard-response","138","3203920","0.0-5.0-0.27","84","1","2025-04-11 14:36:30","bb671e3ae32f654b8954ea4c4635f915","","Mozilla/5.0 (Windows NT 10.0; Win64; x64) AppleWebKit/537.36 (KHTML, like Gecko) Chrome/134.0.0.0 Safari/537.36","WebKit","Chrome","134.0.0.0","Windows","10.0","https://hz8g1ckzuq.cognition.run/","en-US,en;q=0.9","3dgv4yuovb0frjk","22","[""Black or African-American""]","No","Male","3340915.900000006","null","","<p></p>","null","choice","dtc","repulsion_1","2","laptops","null","null","null","null","null","null","2","","","","","","","","","",""
"","","","","","choice_trial","survey-html-form","139","3209680","0.0-5.0-1.27","84","1","2025-04-11 14:36:30","bb671e3ae32f654b8954ea4c4635f915","","Mozilla/5.0 (Windows NT 10.0; Win64; x64) AppleWebKit/537.36 (KHTML, like Gecko) Chrome/134.0.0.0 Safari/537.36","WebKit","Chrome","134.0.0.0","Windows","10.0","https://hz8g1ckzuq.cognition.run/","en-US,en;q=0.9","3dgv4yuovb0frjk","22","[""Black or African-American""]","No","Male","3340915.900000006","5753","","","{""product_choice"":""C""}","choice","dtc","repulsion_1","2","laptops","null","null","null","null","null","null","2","30","40","25","100","90","100","Processing speed","Memory (RAM)","",""
"","","","","","choice_trial_setup","html-keyboard-response","140","3209989","0.0-5.0-0.28","84","1","2025-04-11 14:36:30","bb671e3ae32f654b8954ea4c4635f915","","Mozilla/5.0 (Windows NT 10.0; Win64; x64) AppleWebKit/537.36 (KHTML, like Gecko) Chrome/134.0.0.0 Safari/537.36","WebKit","Chrome","134.0.0.0","Windows","10.0","https://hz8g1ckzuq.cognition.run/","en-US,en;q=0.9","3dgv4yuovb0frjk","22","[""Black or African-American""]","No","Male","3340915.900000006","null","","<p></p>","null","choice","dtc","attraction_2","1","televisions","null","null","null","null","null","null","1","","","","","","","","","",""
"","","","","","choice_trial","survey-html-form","141","3214417","0.0-5.0-1.28","84","1","2025-04-11 14:36:30","bb671e3ae32f654b8954ea4c4635f915","","Mozilla/5.0 (Windows NT 10.0; Win64; x64) AppleWebKit/537.36 (KHTML, like Gecko) Chrome/134.0.0.0 Safari/537.36","WebKit","Chrome","134.0.0.0","Windows","10.0","https://hz8g1ckzuq.cognition.run/","en-US,en;q=0.9","3dgv4yuovb0frjk","22","[""Black or African-American""]","No","Male","3340915.900000006","4420","","","{""product_choice"":""B""}","choice","dtc","attraction_2","1","televisions","null","null","null","null","null","null","1","60","50","60","50","60","40","Screen size","Average lifespan","",""
"","","","","","choice_trial_setup","html-keyboard-response","142","3214729","0.0-5.0-0.29","84","1","2025-04-11 14:36:30","bb671e3ae32f654b8954ea4c4635f915","","Mozilla/5.0 (Windows NT 10.0; Win64; x64) AppleWebKit/537.36 (KHTML, like Gecko) Chrome/134.0.0.0 Safari/537.36","WebKit","Chrome","134.0.0.0","Windows","10.0","https://hz8g1ckzuq.cognition.run/","en-US,en;q=0.9","3dgv4yuovb0frjk","22","[""Black or African-American""]","No","Male","3340915.900000006","null","","<p></p>","null","choice","cdt","repulsion_2","1","washing machines","null","null","null","null","null","null","1","","","","","","","","","",""
"","","","","","choice_trial","survey-html-form","143","3219019","0.0-5.0-1.29","84","1","2025-04-11 14:36:30","bb671e3ae32f654b8954ea4c4635f915","","Mozilla/5.0 (Windows NT 10.0; Win64; x64) AppleWebKit/537.36 (KHTML, like Gecko) Chrome/134.0.0.0 Safari/537.36","WebKit","Chrome","134.0.0.0","Windows","10.0","https://hz8g1ckzuq.cognition.run/","en-US,en;q=0.9","3dgv4yuovb0frjk","22","[""Black or African-American""]","No","Male","3340915.900000006","4282","","","{""product_choice"":""A""}","choice","cdt","repulsion_2","1","washing machines","null","null","null","null","null","null","1","100","90","100","30","40","20","Average lifespan","Energy savings","",""
"","","","","","choice_trial_setup","html-keyboard-response","144","3219326","0.0-5.0-0.30","84","1","2025-04-11 14:36:30","bb671e3ae32f654b8954ea4c4635f915","","Mozilla/5.0 (Windows NT 10.0; Win64; x64) AppleWebKit/537.36 (KHTML, like Gecko) Chrome/134.0.0.0 Safari/537.36","WebKit","Chrome","134.0.0.0","Windows","10.0","https://hz8g1ckzuq.cognition.run/","en-US,en;q=0.9","3dgv4yuovb0frjk","22","[""Black or African-American""]","No","Male","3340915.900000006","null","","<p></p>","null","choice","cdt","attraction_2","1","washing machines","null","null","null","null","null","null","1","","","","","","","","","",""
"","","","","","choice_trial","survey-html-form","145","3223098","0.0-5.0-1.30","84","1","2025-04-11 14:36:30","bb671e3ae32f654b8954ea4c4635f915","","Mozilla/5.0 (Windows NT 10.0; Win64; x64) AppleWebKit/537.36 (KHTML, like Gecko) Chrome/134.0.0.0 Safari/537.36","WebKit","Chrome","134.0.0.0","Windows","10.0","https://hz8g1ckzuq.cognition.run/","en-US,en;q=0.9","3dgv4yuovb0frjk","22","[""Black or African-American""]","No","Male","3340915.900000006","3764","","","{""product_choice"":""A""}","choice","cdt","attraction_2","1","washing machines","null","null","null","null","null","null","1","60","50","60","50","60","40","Average lifespan","Energy savings","",""
"","","","","","choice_trial_setup","html-keyboard-response","146","3223407","0.0-5.0-0.31","84","1","2025-04-11 14:36:30","bb671e3ae32f654b8954ea4c4635f915","","Mozilla/5.0 (Windows NT 10.0; Win64; x64) AppleWebKit/537.36 (KHTML, like Gecko) Chrome/134.0.0.0 Safari/537.36","WebKit","Chrome","134.0.0.0","Windows","10.0","https://hz8g1ckzuq.cognition.run/","en-US,en;q=0.9","3dgv4yuovb0frjk","22","[""Black or African-American""]","No","Male","3340915.900000006","null","","<p></p>","null","choice","cdt","attraction_2","2","microwave ovens","null","null","null","null","null","null","2","","","","","","","","","",""
"","","","","","choice_trial","survey-html-form","147","3228017","0.0-5.0-1.31","84","1","2025-04-11 14:36:30","bb671e3ae32f654b8954ea4c4635f915","","Mozilla/5.0 (Windows NT 10.0; Win64; x64) AppleWebKit/537.36 (KHTML, like Gecko) Chrome/134.0.0.0 Safari/537.36","WebKit","Chrome","134.0.0.0","Windows","10.0","https://hz8g1ckzuq.cognition.run/","en-US,en;q=0.9","3dgv4yuovb0frjk","22","[""Black or African-American""]","No","Male","3340915.900000006","4602","","","{""product_choice"":""B""}","choice","cdt","attraction_2","2","microwave ovens","null","null","null","null","null","null","2","50","60","40","60","50","60","Warranty","Cooking power","",""
"","","","","","choice_trial_setup","html-keyboard-response","148","3228327","0.0-5.0-0.32","84","1","2025-04-11 14:36:30","bb671e3ae32f654b8954ea4c4635f915","","Mozilla/5.0 (Windows NT 10.0; Win64; x64) AppleWebKit/537.36 (KHTML, like Gecko) Chrome/134.0.0.0 Safari/537.36","WebKit","Chrome","134.0.0.0","Windows","10.0","https://hz8g1ckzuq.cognition.run/","en-US,en;q=0.9","3dgv4yuovb0frjk","22","[""Black or African-American""]","No","Male","3340915.900000006","null","","<p></p>","null","choice","tcd","repulsion_2","1","microwave ovens","null","null","null","null","null","null","1","","","","","","","","","",""
"","","","","","choice_trial","survey-html-form","149","3232025","0.0-5.0-1.32","84","1","2025-04-11 14:36:30","bb671e3ae32f654b8954ea4c4635f915","","Mozilla/5.0 (Windows NT 10.0; Win64; x64) AppleWebKit/537.36 (KHTML, like Gecko) Chrome/134.0.0.0 Safari/537.36","WebKit","Chrome","134.0.0.0","Windows","10.0","https://hz8g1ckzuq.cognition.run/","en-US,en;q=0.9","3dgv4yuovb0frjk","22","[""Black or African-American""]","No","Male","3340915.900000006","3691","","","{""product_choice"":""B""}","choice","tcd","repulsion_2","1","microwave ovens","null","null","null","null","null","null","1","100","90","100","30","40","20","Warranty","Cooking power","",""
"","","","","","choice_trial_setup","html-keyboard-response","150","3232334","0.0-5.0-0.33","84","1","2025-04-11 14:36:30","bb671e3ae32f654b8954ea4c4635f915","","Mozilla/5.0 (Windows NT 10.0; Win64; x64) AppleWebKit/537.36 (KHTML, like Gecko) Chrome/134.0.0.0 Safari/537.36","WebKit","Chrome","134.0.0.0","Windows","10.0","https://hz8g1ckzuq.cognition.run/","en-US,en;q=0.9","3dgv4yuovb0frjk","22","[""Black or African-American""]","No","Male","3340915.900000006","null","","<p></p>","null","choice","tdc","repulsion_2","1","laptops","null","null","null","null","null","null","2","","","","","","","","","",""
"","","","","","choice_trial","survey-html-form","151","3236635","0.0-5.0-1.33","84","1","2025-04-11 14:36:30","bb671e3ae32f654b8954ea4c4635f915","","Mozilla/5.0 (Windows NT 10.0; Win64; x64) AppleWebKit/537.36 (KHTML, like Gecko) Chrome/134.0.0.0 Safari/537.36","WebKit","Chrome","134.0.0.0","Windows","10.0","https://hz8g1ckzuq.cognition.run/","en-US,en;q=0.9","3dgv4yuovb0frjk","22","[""Black or African-American""]","No","Male","3340915.900000006","4293","","","{""product_choice"":""A""}","choice","tdc","repulsion_2","1","laptops","null","null","null","null","null","null","2","100","90","100","30","40","20","Processing speed","Memory (RAM)","",""
"","","","","","choice_trial_setup","html-keyboard-response","152","3236944","0.0-5.0-0.34","84","1","2025-04-11 14:36:30","bb671e3ae32f654b8954ea4c4635f915","","Mozilla/5.0 (Windows NT 10.0; Win64; x64) AppleWebKit/537.36 (KHTML, like Gecko) Chrome/134.0.0.0 Safari/537.36","WebKit","Chrome","134.0.0.0","Windows","10.0","https://hz8g1ckzuq.cognition.run/","en-US,en;q=0.9","3dgv4yuovb0frjk","22","[""Black or African-American""]","No","Male","3340915.900000006","null","","<p></p>","null","choice","dct","repulsion_1","2","washing machines","null","null","null","null","null","null","1","","","","","","","","","",""
