"success","timeout","failed_images","failed_audio","failed_video","screen_id","trial_type","trial_index","time_elapsed","internal_node_id","run_id","condition","recorded_at","source_code_version","ip","user_agent","device","browser","browser_version","platform","platform_version","referer","accept_language","ppt_id","age","race","ethnicity","gender","exp_duration","rt","view_history","stimulus","response","phase","order","effect","t_high","category","d1_best","d2_best","d1_worst1","d2_worst1","d1_worst2","d2_worst2","first_dim","d1_t","d1_c","d1_d","d2_t","d2_c","d2_d","d1_name","d2_name","strategy_response","question_order"
"true","false","[]","[]","[]","img preload","preload","0","228","0.0-0.0","86","1","2025-04-11 14:37:13","bb671e3ae32f654b8954ea4c4635f915","","Mozilla/5.0 (Windows NT 10.0; Win64; x64) AppleWebKit/537.36 (KHTML, like Gecko) Chrome/135.0.0.0 Safari/537.36 Edg/135.0.0.0","WebKit","Edge","135.0.0.0","Windows","10.0","https://hz8g1ckzuq.cognition.run/","en-US,en;q=0.9","8s2tryubtmknavp","60","[""White""]","No","Female","909588.6999999881","","","","","","","","","","","","","","","","","","","","","","","","","",""
"true","","","","","","fullscreen","1","4602","0.0-1.0","86","1","2025-04-11 14:37:13","bb671e3ae32f654b8954ea4c4635f915","","Mozilla/5.0 (Windows NT 10.0; Win64; x64) AppleWebKit/537.36 (KHTML, like Gecko) Chrome/135.0.0.0 Safari/537.36 Edg/135.0.0.0","WebKit","Edge","135.0.0.0","Windows","10.0","https://hz8g1ckzuq.cognition.run/","en-US,en;q=0.9","8s2tryubtmknavp","60","[""White""]","No","Female","909588.6999999881","3372","","","","","","","","","","","","","","","","","","","","","","","","",""
"","","","","","","instructions","2","66561","0.0-2.0","86","1","2025-04-11 14:37:13","bb671e3ae32f654b8954ea4c4635f915","","Mozilla/5.0 (Windows NT 10.0; Win64; x64) AppleWebKit/537.36 (KHTML, like Gecko) Chrome/135.0.0.0 Safari/537.36 Edg/135.0.0.0","WebKit","Edge","135.0.0.0","Windows","10.0","https://hz8g1ckzuq.cognition.run/","en-US,en;q=0.9","8s2tryubtmknavp","60","[""White""]","No","Female","909588.6999999881","61958","[{""page_index"":0,""viewing_time"":2078},{""page_index"":1,""viewing_time"":2280},{""page_index"":2,""viewing_time"":4816},{""page_index"":3,""viewing_time"":5316},{""page_index"":4,""viewing_time"":8962},{""page_index"":5,""viewing_time"":7162},{""page_index"":6,""viewing_time"":4606},{""page_index"":7,""viewing_time"":16576},{""page_index"":8,""viewing_time"":5730},{""page_index"":9,""viewing_time"":4432}]","","","","","","","","","","","","","","","","","","","","","","","",""
"","","","","","rating_trial_setup","html-keyboard-response","3","66863","0.0-3.0-0.0","86","1","2025-04-11 14:37:13","bb671e3ae32f654b8954ea4c4635f915","","Mozilla/5.0 (Windows NT 10.0; Win64; x64) AppleWebKit/537.36 (KHTML, like Gecko) Chrome/135.0.0.0 Safari/537.36 Edg/135.0.0.0","WebKit","Edge","135.0.0.0","Windows","10.0","https://hz8g1ckzuq.cognition.run/","en-US,en;q=0.9","8s2tryubtmknavp","60","[""White""]","No","Female","909588.6999999881","null","","<p></p>","null","rating","tcd","attraction_1","2","televisions","null","null","null","null","null","null","1","","","","","","","","","",""
"","","","","","rating_trial","survey-html-form","4","88955","0.0-3.0-1.0","86","1","2025-04-11 14:37:13","bb671e3ae32f654b8954ea4c4635f915","","Mozilla/5.0 (Windows NT 10.0; Win64; x64) AppleWebKit/537.36 (KHTML, like Gecko) Chrome/135.0.0.0 Safari/537.36 Edg/135.0.0.0","WebKit","Edge","135.0.0.0","Windows","10.0","https://hz8g1ckzuq.cognition.run/","en-US,en;q=0.9","8s2tryubtmknavp","60","[""White""]","No","Female","909588.6999999881","22091","","","{""price_1"":""125"",""price_2"":""125"",""price_3"":""125""}","rating","tcd","attraction_1","2","televisions","null","null","null","null","null","null","1","50","60","45","60","50","60","Screen size","Average lifespan","",""
"","","","","","rating_trial_setup","html-keyboard-response","5","89258","0.0-3.0-0.1","86","1","2025-04-11 14:37:13","bb671e3ae32f654b8954ea4c4635f915","","Mozilla/5.0 (Windows NT 10.0; Win64; x64) AppleWebKit/537.36 (KHTML, like Gecko) Chrome/135.0.0.0 Safari/537.36 Edg/135.0.0.0","WebKit","Edge","135.0.0.0","Windows","10.0","https://hz8g1ckzuq.cognition.run/","en-US,en;q=0.9","8s2tryubtmknavp","60","[""White""]","No","Female","909588.6999999881","null","","<p></p>","null","rating","ctd","repulsion_2","1","televisions","null","null","null","null","null","null","1","","","","","","","","","",""
"","","","","","rating_trial","survey-html-form","6","106791","0.0-3.0-1.1","86","1","2025-04-11 14:37:13","bb671e3ae32f654b8954ea4c4635f915","","Mozilla/5.0 (Windows NT 10.0; Win64; x64) AppleWebKit/537.36 (KHTML, like Gecko) Chrome/135.0.0.0 Safari/537.36 Edg/135.0.0.0","WebKit","Edge","135.0.0.0","Windows","10.0","https://hz8g1ckzuq.cognition.run/","en-US,en;q=0.9","8s2tryubtmknavp","60","[""White""]","No","Female","909588.6999999881","17532","","","{""price_1"":""500"",""price_2"":""500"",""price_3"":""500""}","rating","ctd","repulsion_2","1","televisions","null","null","null","null","null","null","1","100","90","100","30","40","20","Screen size","Average lifespan","",""
"","","","","","rating_trial_setup","html-keyboard-response","7","107093","0.0-3.0-0.2","86","1","2025-04-11 14:37:13","bb671e3ae32f654b8954ea4c4635f915","","Mozilla/5.0 (Windows NT 10.0; Win64; x64) AppleWebKit/537.36 (KHTML, like Gecko) Chrome/135.0.0.0 Safari/537.36 Edg/135.0.0.0","WebKit","Edge","135.0.0.0","Windows","10.0","https://hz8g1ckzuq.cognition.run/","en-US,en;q=0.9","8s2tryubtmknavp","60","[""White""]","No","Female","909588.6999999881","null","","<p></p>","null","rating","cdt","repulsion_2","1","laptops","null","null","null","null","null","null","2","","","","","","","","","",""
"","","","","","rating_trial","survey-html-form","8","140633","0.0-3.0-1.2","86","1","2025-04-11 14:37:13","bb671e3ae32f654b8954ea4c4635f915","","Mozilla/5.0 (Windows NT 10.0; Win64; x64) AppleWebKit/537.36 (KHTML, like Gecko) Chrome/135.0.0.0 Safari/537.36 Edg/135.0.0.0","WebKit","Edge","135.0.0.0","Windows","10.0","https://hz8g1ckzuq.cognition.run/","en-US,en;q=0.9","8s2tryubtmknavp","60","[""White""]","No","Female","909588.6999999881","33539","","","{""price_1"":""400"",""price_2"":""350"",""price_3"":""300""}","rating","cdt","repulsion_2","1","laptops","null","null","null","null","null","null","2","100","90","100","30","40","20","Processing speed","Memory (RAM)","",""
"","","","","","rating_trial_setup","html-keyboard-response","9","140934","0.0-3.0-0.3","86","1","2025-04-11 14:37:13","bb671e3ae32f654b8954ea4c4635f915","","Mozilla/5.0 (Windows NT 10.0; Win64; x64) AppleWebKit/537.36 (KHTML, like Gecko) Chrome/135.0.0.0 Safari/537.36 Edg/135.0.0.0","WebKit","Edge","135.0.0.0","Windows","10.0","https://hz8g1ckzuq.cognition.run/","en-US,en;q=0.9","8s2tryubtmknavp","60","[""White""]","No","Female","909588.6999999881","null","","<p></p>","null","rating","tdc","attraction_1","2","microwave ovens","null","null","null","null","null","null","1","","","","","","","","","",""
"","","","","","rating_trial","survey-html-form","10","155437","0.0-3.0-1.3","86","1","2025-04-11 14:37:13","bb671e3ae32f654b8954ea4c4635f915","","Mozilla/5.0 (Windows NT 10.0; Win64; x64) AppleWebKit/537.36 (KHTML, like Gecko) Chrome/135.0.0.0 Safari/537.36 Edg/135.0.0.0","WebKit","Edge","135.0.0.0","Windows","10.0","https://hz8g1ckzuq.cognition.run/","en-US,en;q=0.9","8s2tryubtmknavp","60","[""White""]","No","Female","909588.6999999881","14501","","","{""price_1"":""75"",""price_2"":""75"",""price_3"":""75""}","rating","tdc","attraction_1","2","microwave ovens","null","null","null","null","null","null","1","50","60","45","60","50","60","Warranty","Cooking power","",""
"","","","","","rating_trial_setup","html-keyboard-response","11","155739","0.0-3.0-0.4","86","1","2025-04-11 14:37:13","bb671e3ae32f654b8954ea4c4635f915","","Mozilla/5.0 (Windows NT 10.0; Win64; x64) AppleWebKit/537.36 (KHTML, like Gecko) Chrome/135.0.0.0 Safari/537.36 Edg/135.0.0.0","WebKit","Edge","135.0.0.0","Windows","10.0","https://hz8g1ckzuq.cognition.run/","en-US,en;q=0.9","8s2tryubtmknavp","60","[""White""]","No","Female","909588.6999999881","null","","<p></p>","null","rating","dct","attraction_1","1","washing machines","null","null","null","null","null","null","2","","","","","","","","","",""
"","","","","","rating_trial","survey-html-form","12","172001","0.0-3.0-1.4","86","1","2025-04-11 14:37:13","bb671e3ae32f654b8954ea4c4635f915","","Mozilla/5.0 (Windows NT 10.0; Win64; x64) AppleWebKit/537.36 (KHTML, like Gecko) Chrome/135.0.0.0 Safari/537.36 Edg/135.0.0.0","WebKit","Edge","135.0.0.0","Windows","10.0","https://hz8g1ckzuq.cognition.run/","en-US,en;q=0.9","8s2tryubtmknavp","60","[""White""]","No","Female","909588.6999999881","16261","","","{""price_1"":""650"",""price_2"":""650"",""price_3"":""650""}","rating","dct","attraction_1","1","washing machines","null","null","null","null","null","null","2","60","50","60","50","60","45","Average lifespan","Energy savings","",""
"","","","","","rating_trial_setup","html-keyboard-response","13","172302","0.0-3.0-0.5","86","1","2025-04-11 14:37:13","bb671e3ae32f654b8954ea4c4635f915","","Mozilla/5.0 (Windows NT 10.0; Win64; x64) AppleWebKit/537.36 (KHTML, like Gecko) Chrome/135.0.0.0 Safari/537.36 Edg/135.0.0.0","WebKit","Edge","135.0.0.0","Windows","10.0","https://hz8g1ckzuq.cognition.run/","en-US,en;q=0.9","8s2tryubtmknavp","60","[""White""]","No","Female","909588.6999999881","null","","<p></p>","null","rating","wwb","catch","null","televisions","55","95","50","15","5","20","1","","","","","","","","","",""
"","","","","","rating_trial","survey-html-form","14","199889","0.0-3.0-1.5","86","1","2025-04-11 14:37:13","bb671e3ae32f654b8954ea4c4635f915","","Mozilla/5.0 (Windows NT 10.0; Win64; x64) AppleWebKit/537.36 (KHTML, like Gecko) Chrome/135.0.0.0 Safari/537.36 Edg/135.0.0.0","WebKit","Edge","135.0.0.0","Windows","10.0","https://hz8g1ckzuq.cognition.run/","en-US,en;q=0.9","8s2tryubtmknavp","60","[""White""]","No","Female","909588.6999999881","27585","","","{""price_1"":""150"",""price_2"":""75"",""price_3"":""150""}","rating","wwb","catch","null","televisions","55","95","50","15","5","20","1","null","null","null","null","null","null","Screen size","Average lifespan","",""
"","","","","","rating_trial_setup","html-keyboard-response","15","200191","0.0-3.0-0.6","86","1","2025-04-11 14:37:13","bb671e3ae32f654b8954ea4c4635f915","","Mozilla/5.0 (Windows NT 10.0; Win64; x64) AppleWebKit/537.36 (KHTML, like Gecko) Chrome/135.0.0.0 Safari/537.36 Edg/135.0.0.0","WebKit","Edge","135.0.0.0","Windows","10.0","https://hz8g1ckzuq.cognition.run/","en-US,en;q=0.9","8s2tryubtmknavp","60","[""White""]","No","Female","909588.6999999881","null","","<p></p>","null","rating","tcd","attraction_2","2","laptops","null","null","null","null","null","null","1","","","","","","","","","",""
"","","","","","rating_trial","survey-html-form","16","217914","0.0-3.0-1.6","86","1","2025-04-11 14:37:13","bb671e3ae32f654b8954ea4c4635f915","","Mozilla/5.0 (Windows NT 10.0; Win64; x64) AppleWebKit/537.36 (KHTML, like Gecko) Chrome/135.0.0.0 Safari/537.36 Edg/135.0.0.0","WebKit","Edge","135.0.0.0","Windows","10.0","https://hz8g1ckzuq.cognition.run/","en-US,en;q=0.9","8s2tryubtmknavp","60","[""White""]","No","Female","909588.6999999881","17722","","","{""price_1"":""350"",""price_2"":""350"",""price_3"":""350""}","rating","tcd","attraction_2","2","laptops","null","null","null","null","null","null","1","50","60","40","60","50","60","Processing speed","Memory (RAM)","",""
"","","","","","rating_trial_setup","html-keyboard-response","17","218216","0.0-3.0-0.7","86","1","2025-04-11 14:37:13","bb671e3ae32f654b8954ea4c4635f915","","Mozilla/5.0 (Windows NT 10.0; Win64; x64) AppleWebKit/537.36 (KHTML, like Gecko) Chrome/135.0.0.0 Safari/537.36 Edg/135.0.0.0","WebKit","Edge","135.0.0.0","Windows","10.0","https://hz8g1ckzuq.cognition.run/","en-US,en;q=0.9","8s2tryubtmknavp","60","[""White""]","No","Female","909588.6999999881","null","","<p></p>","null","rating","tdc","repulsion_2","2","microwave ovens","null","null","null","null","null","null","2","","","","","","","","","",""
"","","","","","rating_trial","survey-html-form","18","234383","0.0-3.0-1.7","86","1","2025-04-11 14:37:13","bb671e3ae32f654b8954ea4c4635f915","","Mozilla/5.0 (Windows NT 10.0; Win64; x64) AppleWebKit/537.36 (KHTML, like Gecko) Chrome/135.0.0.0 Safari/537.36 Edg/135.0.0.0","WebKit","Edge","135.0.0.0","Windows","10.0","https://hz8g1ckzuq.cognition.run/","en-US,en;q=0.9","8s2tryubtmknavp","60","[""White""]","No","Female","909588.6999999881","16165","","","{""price_1"":""100"",""price_2"":""100"",""price_3"":""95""}","rating","tdc","repulsion_2","2","microwave ovens","null","null","null","null","null","null","2","30","40","20","100","90","100","Warranty","Cooking power","",""
"","","","","","rating_trial_setup","html-keyboard-response","19","234684","0.0-3.0-0.8","86","1","2025-04-11 14:37:13","bb671e3ae32f654b8954ea4c4635f915","","Mozilla/5.0 (Windows NT 10.0; Win64; x64) AppleWebKit/537.36 (KHTML, like Gecko) Chrome/135.0.0.0 Safari/537.36 Edg/135.0.0.0","WebKit","Edge","135.0.0.0","Windows","10.0","https://hz8g1ckzuq.cognition.run/","en-US,en;q=0.9","8s2tryubtmknavp","60","[""White""]","No","Female","909588.6999999881","null","","<p></p>","null","rating","bww","catch","null","laptops","70","90","40","30","35","5","1","","","","","","","","","",""
"","","","","","rating_trial","survey-html-form","20","254511","0.0-3.0-1.8","86","1","2025-04-11 14:37:13","bb671e3ae32f654b8954ea4c4635f915","","Mozilla/5.0 (Windows NT 10.0; Win64; x64) AppleWebKit/537.36 (KHTML, like Gecko) Chrome/135.0.0.0 Safari/537.36 Edg/135.0.0.0","WebKit","Edge","135.0.0.0","Windows","10.0","https://hz8g1ckzuq.cognition.run/","en-US,en;q=0.9","8s2tryubtmknavp","60","[""White""]","No","Female","909588.6999999881","19825","","","{""price_1"":""650"",""price_2"":""350"",""price_3"":""300""}","rating","bww","catch","null","laptops","70","90","40","30","35","5","1","null","null","null","null","null","null","Processing speed","Memory (RAM)","",""
"","","","","","rating_trial_setup","html-keyboard-response","21","254813","0.0-3.0-0.9","86","1","2025-04-11 14:37:13","bb671e3ae32f654b8954ea4c4635f915","","Mozilla/5.0 (Windows NT 10.0; Win64; x64) AppleWebKit/537.36 (KHTML, like Gecko) Chrome/135.0.0.0 Safari/537.36 Edg/135.0.0.0","WebKit","Edge","135.0.0.0","Windows","10.0","https://hz8g1ckzuq.cognition.run/","en-US,en;q=0.9","8s2tryubtmknavp","60","[""White""]","No","Female","909588.6999999881","null","","<p></p>","null","rating","wbw","catch","null","microwave ovens","50","95","50","50","35","25","1","","","","","","","","","",""
"","","","","","rating_trial","survey-html-form","22","268217","0.0-3.0-1.9","86","1","2025-04-11 14:37:13","bb671e3ae32f654b8954ea4c4635f915","","Mozilla/5.0 (Windows NT 10.0; Win64; x64) AppleWebKit/537.36 (KHTML, like Gecko) Chrome/135.0.0.0 Safari/537.36 Edg/135.0.0.0","WebKit","Edge","135.0.0.0","Windows","10.0","https://hz8g1ckzuq.cognition.run/","en-US,en;q=0.9","8s2tryubtmknavp","60","[""White""]","No","Female","909588.6999999881","13403","","","{""price_1"":""75"",""price_2"":""125"",""price_3"":""50""}","rating","wbw","catch","null","microwave ovens","50","95","50","50","35","25","1","null","null","null","null","null","null","Warranty","Cooking power","",""
"","","","","","rating_trial_setup","html-keyboard-response","23","268519","0.0-3.0-0.10","86","1","2025-04-11 14:37:13","bb671e3ae32f654b8954ea4c4635f915","","Mozilla/5.0 (Windows NT 10.0; Win64; x64) AppleWebKit/537.36 (KHTML, like Gecko) Chrome/135.0.0.0 Safari/537.36 Edg/135.0.0.0","WebKit","Edge","135.0.0.0","Windows","10.0","https://hz8g1ckzuq.cognition.run/","en-US,en;q=0.9","8s2tryubtmknavp","60","[""White""]","No","Female","909588.6999999881","null","","<p></p>","null","rating","wbw","catch","null","microwave ovens","60","65","35","30","50","50","2","","","","","","","","","",""
"","","","","","rating_trial","survey-html-form","24","286823","0.0-3.0-1.10","86","1","2025-04-11 14:37:13","bb671e3ae32f654b8954ea4c4635f915","","Mozilla/5.0 (Windows NT 10.0; Win64; x64) AppleWebKit/537.36 (KHTML, like Gecko) Chrome/135.0.0.0 Safari/537.36 Edg/135.0.0.0","WebKit","Edge","135.0.0.0","Windows","10.0","https://hz8g1ckzuq.cognition.run/","en-US,en;q=0.9","8s2tryubtmknavp","60","[""White""]","No","Female","909588.6999999881","18303","","","{""price_1"":""50"",""price_2"":""75"",""price_3"":""65""}","rating","wbw","catch","null","microwave ovens","60","65","35","30","50","50","2","null","null","null","null","null","null","Warranty","Cooking power","",""
"","","","","","rating_trial_setup","html-keyboard-response","25","287125","0.0-3.0-0.11","86","1","2025-04-11 14:37:13","bb671e3ae32f654b8954ea4c4635f915","","Mozilla/5.0 (Windows NT 10.0; Win64; x64) AppleWebKit/537.36 (KHTML, like Gecko) Chrome/135.0.0.0 Safari/537.36 Edg/135.0.0.0","WebKit","Edge","135.0.0.0","Windows","10.0","https://hz8g1ckzuq.cognition.run/","en-US,en;q=0.9","8s2tryubtmknavp","60","[""White""]","No","Female","909588.6999999881","null","","<p></p>","null","rating","cdt","attraction_2","2","microwave ovens","null","null","null","null","null","null","2","","","","","","","","","",""
"","","","","","rating_trial","survey-html-form","26","295267","0.0-3.0-1.11","86","1","2025-04-11 14:37:13","bb671e3ae32f654b8954ea4c4635f915","","Mozilla/5.0 (Windows NT 10.0; Win64; x64) AppleWebKit/537.36 (KHTML, like Gecko) Chrome/135.0.0.0 Safari/537.36 Edg/135.0.0.0","WebKit","Edge","135.0.0.0","Windows","10.0","https://hz8g1ckzuq.cognition.run/","en-US,en;q=0.9","8s2tryubtmknavp","60","[""White""]","No","Female","909588.6999999881","8140","","","{""price_1"":""50"",""price_2"":""75"",""price_3"":""75""}","rating","cdt","attraction_2","2","microwave ovens","null","null","null","null","null","null","2","50","60","40","60","50","60","Warranty","Cooking power","",""
"","","","","","rating_trial_setup","html-keyboard-response","27","295568","0.0-3.0-0.12","86","1","2025-04-11 14:37:13","bb671e3ae32f654b8954ea4c4635f915","","Mozilla/5.0 (Windows NT 10.0; Win64; x64) AppleWebKit/537.36 (KHTML, like Gecko) Chrome/135.0.0.0 Safari/537.36 Edg/135.0.0.0","WebKit","Edge","135.0.0.0","Windows","10.0","https://hz8g1ckzuq.cognition.run/","en-US,en;q=0.9","8s2tryubtmknavp","60","[""White""]","No","Female","909588.6999999881","null","","<p></p>","null","rating","tdc","attraction_1","1","laptops","null","null","null","null","null","null","2","","","","","","","","","",""
"","","","","","rating_trial","survey-html-form","28","316889","0.0-3.0-1.12","86","1","2025-04-11 14:37:13","bb671e3ae32f654b8954ea4c4635f915","","Mozilla/5.0 (Windows NT 10.0; Win64; x64) AppleWebKit/537.36 (KHTML, like Gecko) Chrome/135.0.0.0 Safari/537.36 Edg/135.0.0.0","WebKit","Edge","135.0.0.0","Windows","10.0","https://hz8g1ckzuq.cognition.run/","en-US,en;q=0.9","8s2tryubtmknavp","60","[""White""]","No","Female","909588.6999999881","21319","","","{""price_1"":""225"",""price_2"":""225"",""price_3"":""200""}","rating","tdc","attraction_1","1","laptops","null","null","null","null","null","null","2","60","50","60","50","60","45","Processing speed","Memory (RAM)","",""
"","","","","","rating_trial_setup","html-keyboard-response","29","317190","0.0-3.0-0.13","86","1","2025-04-11 14:37:13","bb671e3ae32f654b8954ea4c4635f915","","Mozilla/5.0 (Windows NT 10.0; Win64; x64) AppleWebKit/537.36 (KHTML, like Gecko) Chrome/135.0.0.0 Safari/537.36 Edg/135.0.0.0","WebKit","Edge","135.0.0.0","Windows","10.0","https://hz8g1ckzuq.cognition.run/","en-US,en;q=0.9","8s2tryubtmknavp","60","[""White""]","No","Female","909588.6999999881","null","","<p></p>","null","rating","tdc","repulsion_2","2","televisions","null","null","null","null","null","null","2","","","","","","","","","",""
"","","","","","rating_trial","survey-html-form","30","331835","0.0-3.0-1.13","86","1","2025-04-11 14:37:13","bb671e3ae32f654b8954ea4c4635f915","","Mozilla/5.0 (Windows NT 10.0; Win64; x64) AppleWebKit/537.36 (KHTML, like Gecko) Chrome/135.0.0.0 Safari/537.36 Edg/135.0.0.0","WebKit","Edge","135.0.0.0","Windows","10.0","https://hz8g1ckzuq.cognition.run/","en-US,en;q=0.9","8s2tryubtmknavp","60","[""White""]","No","Female","909588.6999999881","14643","","","{""price_1"":""300"",""price_2"":""250"",""price_3"":""350""}","rating","tdc","repulsion_2","2","televisions","null","null","null","null","null","null","2","30","40","20","100","90","100","Screen size","Average lifespan","",""
"","","","","","rating_trial_setup","html-keyboard-response","31","332136","0.0-3.0-0.14","86","1","2025-04-11 14:37:13","bb671e3ae32f654b8954ea4c4635f915","","Mozilla/5.0 (Windows NT 10.0; Win64; x64) AppleWebKit/537.36 (KHTML, like Gecko) Chrome/135.0.0.0 Safari/537.36 Edg/135.0.0.0","WebKit","Edge","135.0.0.0","Windows","10.0","https://hz8g1ckzuq.cognition.run/","en-US,en;q=0.9","8s2tryubtmknavp","60","[""White""]","No","Female","909588.6999999881","null","","<p></p>","null","rating","dct","attraction_2","2","washing machines","null","null","null","null","null","null","2","","","","","","","","","",""
"","","","","","rating_trial","survey-html-form","32","340637","0.0-3.0-1.14","86","1","2025-04-11 14:37:13","bb671e3ae32f654b8954ea4c4635f915","","Mozilla/5.0 (Windows NT 10.0; Win64; x64) AppleWebKit/537.36 (KHTML, like Gecko) Chrome/135.0.0.0 Safari/537.36 Edg/135.0.0.0","WebKit","Edge","135.0.0.0","Windows","10.0","https://hz8g1ckzuq.cognition.run/","en-US,en;q=0.9","8s2tryubtmknavp","60","[""White""]","No","Female","909588.6999999881","8499","","","{""price_1"":""600"",""price_2"":""600"",""price_3"":""600""}","rating","dct","attraction_2","2","washing machines","null","null","null","null","null","null","2","50","60","40","60","50","60","Average lifespan","Energy savings","",""
"","","","","","rating_trial_setup","html-keyboard-response","33","340939","0.0-3.0-0.15","86","1","2025-04-11 14:37:13","bb671e3ae32f654b8954ea4c4635f915","","Mozilla/5.0 (Windows NT 10.0; Win64; x64) AppleWebKit/537.36 (KHTML, like Gecko) Chrome/135.0.0.0 Safari/537.36 Edg/135.0.0.0","WebKit","Edge","135.0.0.0","Windows","10.0","https://hz8g1ckzuq.cognition.run/","en-US,en;q=0.9","8s2tryubtmknavp","60","[""White""]","No","Female","909588.6999999881","null","","<p></p>","null","rating","dtc","attraction_2","1","televisions","null","null","null","null","null","null","1","","","","","","","","","",""
"","","","","","rating_trial","survey-html-form","34","356418","0.0-3.0-1.15","86","1","2025-04-11 14:37:13","bb671e3ae32f654b8954ea4c4635f915","","Mozilla/5.0 (Windows NT 10.0; Win64; x64) AppleWebKit/537.36 (KHTML, like Gecko) Chrome/135.0.0.0 Safari/537.36 Edg/135.0.0.0","WebKit","Edge","135.0.0.0","Windows","10.0","https://hz8g1ckzuq.cognition.run/","en-US,en;q=0.9","8s2tryubtmknavp","60","[""White""]","No","Female","909588.6999999881","15478","","","{""price_1"":""250"",""price_2"":""250"",""price_3"":""200""}","rating","dtc","attraction_2","1","televisions","null","null","null","null","null","null","1","60","50","60","50","60","40","Screen size","Average lifespan","",""
"","","","","","rating_trial_setup","html-keyboard-response","35","356722","0.0-3.0-0.16","86","1","2025-04-11 14:37:13","bb671e3ae32f654b8954ea4c4635f915","","Mozilla/5.0 (Windows NT 10.0; Win64; x64) AppleWebKit/537.36 (KHTML, like Gecko) Chrome/135.0.0.0 Safari/537.36 Edg/135.0.0.0","WebKit","Edge","135.0.0.0","Windows","10.0","https://hz8g1ckzuq.cognition.run/","en-US,en;q=0.9","8s2tryubtmknavp","60","[""White""]","No","Female","909588.6999999881","null","","<p></p>","null","rating","ctd","attraction_1","1","microwave ovens","null","null","null","null","null","null","1","","","","","","","","","",""
"","","","","","rating_trial","survey-html-form","36","370510","0.0-3.0-1.16","86","1","2025-04-11 14:37:13","bb671e3ae32f654b8954ea4c4635f915","","Mozilla/5.0 (Windows NT 10.0; Win64; x64) AppleWebKit/537.36 (KHTML, like Gecko) Chrome/135.0.0.0 Safari/537.36 Edg/135.0.0.0","WebKit","Edge","135.0.0.0","Windows","10.0","https://hz8g1ckzuq.cognition.run/","en-US,en;q=0.9","8s2tryubtmknavp","60","[""White""]","No","Female","909588.6999999881","13787","","","{""price_1"":""80"",""price_2"":""75"",""price_3"":""60""}","rating","ctd","attraction_1","1","microwave ovens","null","null","null","null","null","null","1","60","50","60","50","60","45","Warranty","Cooking power","",""
"","","","","","rating_trial_setup","html-keyboard-response","37","370814","0.0-3.0-0.17","86","1","2025-04-11 14:37:13","bb671e3ae32f654b8954ea4c4635f915","","Mozilla/5.0 (Windows NT 10.0; Win64; x64) AppleWebKit/537.36 (KHTML, like Gecko) Chrome/135.0.0.0 Safari/537.36 Edg/135.0.0.0","WebKit","Edge","135.0.0.0","Windows","10.0","https://hz8g1ckzuq.cognition.run/","en-US,en;q=0.9","8s2tryubtmknavp","60","[""White""]","No","Female","909588.6999999881","null","","<p></p>","null","rating","tcd","repulsion_1","1","washing machines","null","null","null","null","null","null","1","","","","","","","","","",""
"","","","","","rating_trial","survey-html-form","38","380168","0.0-3.0-1.17","86","1","2025-04-11 14:37:13","bb671e3ae32f654b8954ea4c4635f915","","Mozilla/5.0 (Windows NT 10.0; Win64; x64) AppleWebKit/537.36 (KHTML, like Gecko) Chrome/135.0.0.0 Safari/537.36 Edg/135.0.0.0","WebKit","Edge","135.0.0.0","Windows","10.0","https://hz8g1ckzuq.cognition.run/","en-US,en;q=0.9","8s2tryubtmknavp","60","[""White""]","No","Female","909588.6999999881","9354","","","{""price_1"":""650"",""price_2"":""600"",""price_3"":""650""}","rating","tcd","repulsion_1","1","washing machines","null","null","null","null","null","null","1","100","90","100","30","40","25","Average lifespan","Energy savings","",""
"","","","","","rating_trial_setup","html-keyboard-response","39","380471","0.0-3.0-0.18","86","1","2025-04-11 14:37:13","bb671e3ae32f654b8954ea4c4635f915","","Mozilla/5.0 (Windows NT 10.0; Win64; x64) AppleWebKit/537.36 (KHTML, like Gecko) Chrome/135.0.0.0 Safari/537.36 Edg/135.0.0.0","WebKit","Edge","135.0.0.0","Windows","10.0","https://hz8g1ckzuq.cognition.run/","en-US,en;q=0.9","8s2tryubtmknavp","60","[""White""]","No","Female","909588.6999999881","null","","<p></p>","null","rating","tcd","repulsion_1","2","washing machines","null","null","null","null","null","null","2","","","","","","","","","",""
"","","","","","rating_trial","survey-html-form","40","389106","0.0-3.0-1.18","86","1","2025-04-11 14:37:13","bb671e3ae32f654b8954ea4c4635f915","","Mozilla/5.0 (Windows NT 10.0; Win64; x64) AppleWebKit/537.36 (KHTML, like Gecko) Chrome/135.0.0.0 Safari/537.36 Edg/135.0.0.0","WebKit","Edge","135.0.0.0","Windows","10.0","https://hz8g1ckzuq.cognition.run/","en-US,en;q=0.9","8s2tryubtmknavp","60","[""White""]","No","Female","909588.6999999881","8634","","","{""price_1"":""500"",""price_2"":""500"",""price_3"":""500""}","rating","tcd","repulsion_1","2","washing machines","null","null","null","null","null","null","2","30","40","25","100","90","100","Average lifespan","Energy savings","",""
"","","","","","rating_trial_setup","html-keyboard-response","41","389408","0.0-3.0-0.19","86","1","2025-04-11 14:37:13","bb671e3ae32f654b8954ea4c4635f915","","Mozilla/5.0 (Windows NT 10.0; Win64; x64) AppleWebKit/537.36 (KHTML, like Gecko) Chrome/135.0.0.0 Safari/537.36 Edg/135.0.0.0","WebKit","Edge","135.0.0.0","Windows","10.0","https://hz8g1ckzuq.cognition.run/","en-US,en;q=0.9","8s2tryubtmknavp","60","[""White""]","No","Female","909588.6999999881","null","","<p></p>","null","rating","dct","attraction_2","2","televisions","null","null","null","null","null","null","2","","","","","","","","","",""
"","","","","","rating_trial","survey-html-form","42","407447","0.0-3.0-1.19","86","1","2025-04-11 14:37:13","bb671e3ae32f654b8954ea4c4635f915","","Mozilla/5.0 (Windows NT 10.0; Win64; x64) AppleWebKit/537.36 (KHTML, like Gecko) Chrome/135.0.0.0 Safari/537.36 Edg/135.0.0.0","WebKit","Edge","135.0.0.0","Windows","10.0","https://hz8g1ckzuq.cognition.run/","en-US,en;q=0.9","8s2tryubtmknavp","60","[""White""]","No","Female","909588.6999999881","18037","","","{""price_1"":""75"",""price_2"":""100"",""price_3"":""85""}","rating","dct","attraction_2","2","televisions","null","null","null","null","null","null","2","50","60","40","60","50","60","Screen size","Average lifespan","",""
"","","","","","rating_trial_setup","html-keyboard-response","43","407749","0.0-3.0-0.20","86","1","2025-04-11 14:37:13","bb671e3ae32f654b8954ea4c4635f915","","Mozilla/5.0 (Windows NT 10.0; Win64; x64) AppleWebKit/537.36 (KHTML, like Gecko) Chrome/135.0.0.0 Safari/537.36 Edg/135.0.0.0","WebKit","Edge","135.0.0.0","Windows","10.0","https://hz8g1ckzuq.cognition.run/","en-US,en;q=0.9","8s2tryubtmknavp","60","[""White""]","No","Female","909588.6999999881","null","","<p></p>","null","rating","wwb","catch","null","laptops","55","50","50","15","5","5","1","","","","","","","","","",""
"","","","","","rating_trial","survey-html-form","44","436014","0.0-3.0-1.20","86","1","2025-04-11 14:37:13","bb671e3ae32f654b8954ea4c4635f915","","Mozilla/5.0 (Windows NT 10.0; Win64; x64) AppleWebKit/537.36 (KHTML, like Gecko) Chrome/135.0.0.0 Safari/537.36 Edg/135.0.0.0","WebKit","Edge","135.0.0.0","Windows","10.0","https://hz8g1ckzuq.cognition.run/","en-US,en;q=0.9","8s2tryubtmknavp","60","[""White""]","No","Female","909588.6999999881","28264","","","{""price_1"":""300"",""price_2"":""100"",""price_3"":""300""}","rating","wwb","catch","null","laptops","55","50","50","15","5","5","1","null","null","null","null","null","null","Processing speed","Memory (RAM)","",""
"","","","","","rating_trial_setup","html-keyboard-response","45","436318","0.0-3.0-0.21","86","1","2025-04-11 14:37:13","bb671e3ae32f654b8954ea4c4635f915","","Mozilla/5.0 (Windows NT 10.0; Win64; x64) AppleWebKit/537.36 (KHTML, like Gecko) Chrome/135.0.0.0 Safari/537.36 Edg/135.0.0.0","WebKit","Edge","135.0.0.0","Windows","10.0","https://hz8g1ckzuq.cognition.run/","en-US,en;q=0.9","8s2tryubtmknavp","60","[""White""]","No","Female","909588.6999999881","null","","<p></p>","null","rating","dtc","repulsion_2","2","washing machines","null","null","null","null","null","null","2","","","","","","","","","",""
"","","","","","rating_trial","survey-html-form","46","443428","0.0-3.0-1.21","86","1","2025-04-11 14:37:13","bb671e3ae32f654b8954ea4c4635f915","","Mozilla/5.0 (Windows NT 10.0; Win64; x64) AppleWebKit/537.36 (KHTML, like Gecko) Chrome/135.0.0.0 Safari/537.36 Edg/135.0.0.0","WebKit","Edge","135.0.0.0","Windows","10.0","https://hz8g1ckzuq.cognition.run/","en-US,en;q=0.9","8s2tryubtmknavp","60","[""White""]","No","Female","909588.6999999881","7109","","","{""price_1"":""500"",""price_2"":""500"",""price_3"":""400""}","rating","dtc","repulsion_2","2","washing machines","null","null","null","null","null","null","2","30","40","20","100","90","100","Average lifespan","Energy savings","",""
"","","","","","rating_trial_setup","html-keyboard-response","47","443730","0.0-3.0-0.22","86","1","2025-04-11 14:37:13","bb671e3ae32f654b8954ea4c4635f915","","Mozilla/5.0 (Windows NT 10.0; Win64; x64) AppleWebKit/537.36 (KHTML, like Gecko) Chrome/135.0.0.0 Safari/537.36 Edg/135.0.0.0","WebKit","Edge","135.0.0.0","Windows","10.0","https://hz8g1ckzuq.cognition.run/","en-US,en;q=0.9","8s2tryubtmknavp","60","[""White""]","No","Female","909588.6999999881","null","","<p></p>","null","rating","cdt","repulsion_1","2","televisions","null","null","null","null","null","null","2","","","","","","","","","",""
"","","","","","rating_trial","survey-html-form","48","455870","0.0-3.0-1.22","86","1","2025-04-11 14:37:13","bb671e3ae32f654b8954ea4c4635f915","","Mozilla/5.0 (Windows NT 10.0; Win64; x64) AppleWebKit/537.36 (KHTML, like Gecko) Chrome/135.0.0.0 Safari/537.36 Edg/135.0.0.0","WebKit","Edge","135.0.0.0","Windows","10.0","https://hz8g1ckzuq.cognition.run/","en-US,en;q=0.9","8s2tryubtmknavp","60","[""White""]","No","Female","909588.6999999881","12138","","","{""price_1"":""100"",""price_2"":""50"",""price_3"":""60""}","rating","cdt","repulsion_1","2","televisions","null","null","null","null","null","null","2","30","40","25","100","90","100","Screen size","Average lifespan","",""
"","","","","","rating_trial_setup","html-keyboard-response","49","456172","0.0-3.0-0.23","86","1","2025-04-11 14:37:13","bb671e3ae32f654b8954ea4c4635f915","","Mozilla/5.0 (Windows NT 10.0; Win64; x64) AppleWebKit/537.36 (KHTML, like Gecko) Chrome/135.0.0.0 Safari/537.36 Edg/135.0.0.0","WebKit","Edge","135.0.0.0","Windows","10.0","https://hz8g1ckzuq.cognition.run/","en-US,en;q=0.9","8s2tryubtmknavp","60","[""White""]","No","Female","909588.6999999881","null","","<p></p>","null","rating","ctd","repulsion_2","2","laptops","null","null","null","null","null","null","2","","","","","","","","","",""
"","","","","","rating_trial","survey-html-form","50","470200","0.0-3.0-1.23","86","1","2025-04-11 14:37:13","bb671e3ae32f654b8954ea4c4635f915","","Mozilla/5.0 (Windows NT 10.0; Win64; x64) AppleWebKit/537.36 (KHTML, like Gecko) Chrome/135.0.0.0 Safari/537.36 Edg/135.0.0.0","WebKit","Edge","135.0.0.0","Windows","10.0","https://hz8g1ckzuq.cognition.run/","en-US,en;q=0.9","8s2tryubtmknavp","60","[""White""]","No","Female","909588.6999999881","14026","","","{""price_1"":""400"",""price_2"":""400"",""price_3"":""400""}","rating","ctd","repulsion_2","2","laptops","null","null","null","null","null","null","2","30","40","20","100","90","100","Processing speed","Memory (RAM)","",""
"","","","","","rating_trial_setup","html-keyboard-response","51","470503","0.0-3.0-0.24","86","1","2025-04-11 14:37:13","bb671e3ae32f654b8954ea4c4635f915","","Mozilla/5.0 (Windows NT 10.0; Win64; x64) AppleWebKit/537.36 (KHTML, like Gecko) Chrome/135.0.0.0 Safari/537.36 Edg/135.0.0.0","WebKit","Edge","135.0.0.0","Windows","10.0","https://hz8g1ckzuq.cognition.run/","en-US,en;q=0.9","8s2tryubtmknavp","60","[""White""]","No","Female","909588.6999999881","null","","<p></p>","null","rating","dct","attraction_2","1","laptops","null","null","null","null","null","null","1","","","","","","","","","",""
"","","","","","rating_trial","survey-html-form","52","478432","0.0-3.0-1.24","86","1","2025-04-11 14:37:13","bb671e3ae32f654b8954ea4c4635f915","","Mozilla/5.0 (Windows NT 10.0; Win64; x64) AppleWebKit/537.36 (KHTML, like Gecko) Chrome/135.0.0.0 Safari/537.36 Edg/135.0.0.0","WebKit","Edge","135.0.0.0","Windows","10.0","https://hz8g1ckzuq.cognition.run/","en-US,en;q=0.9","8s2tryubtmknavp","60","[""White""]","No","Female","909588.6999999881","7928","","","{""price_1"":""200"",""price_2"":""200"",""price_3"":""200""}","rating","dct","attraction_2","1","laptops","null","null","null","null","null","null","1","60","50","60","50","60","40","Processing speed","Memory (RAM)","",""
"","","","","","rating_trial_setup","html-keyboard-response","53","478749","0.0-3.0-0.25","86","1","2025-04-11 14:37:13","bb671e3ae32f654b8954ea4c4635f915","","Mozilla/5.0 (Windows NT 10.0; Win64; x64) AppleWebKit/537.36 (KHTML, like Gecko) Chrome/135.0.0.0 Safari/537.36 Edg/135.0.0.0","WebKit","Edge","135.0.0.0","Windows","10.0","https://hz8g1ckzuq.cognition.run/","en-US,en;q=0.9","8s2tryubtmknavp","60","[""White""]","No","Female","909588.6999999881","null","","<p></p>","null","rating","dtc","repulsion_1","1","laptops","null","null","null","null","null","null","2","","","","","","","","","",""
"","","","","","rating_trial","survey-html-form","54","487232","0.0-3.0-1.25","86","1","2025-04-11 14:37:13","bb671e3ae32f654b8954ea4c4635f915","","Mozilla/5.0 (Windows NT 10.0; Win64; x64) AppleWebKit/537.36 (KHTML, like Gecko) Chrome/135.0.0.0 Safari/537.36 Edg/135.0.0.0","WebKit","Edge","135.0.0.0","Windows","10.0","https://hz8g1ckzuq.cognition.run/","en-US,en;q=0.9","8s2tryubtmknavp","60","[""White""]","No","Female","909588.6999999881","8482","","","{""price_1"":""400"",""price_2"":""400"",""price_3"":""400""}","rating","dtc","repulsion_1","1","laptops","null","null","null","null","null","null","2","100","90","100","30","40","25","Processing speed","Memory (RAM)","",""
"","","","","","rating_trial_setup","html-keyboard-response","55","487544","0.0-3.0-0.26","86","1","2025-04-11 14:37:13","bb671e3ae32f654b8954ea4c4635f915","","Mozilla/5.0 (Windows NT 10.0; Win64; x64) AppleWebKit/537.36 (KHTML, like Gecko) Chrome/135.0.0.0 Safari/537.36 Edg/135.0.0.0","WebKit","Edge","135.0.0.0","Windows","10.0","https://hz8g1ckzuq.cognition.run/","en-US,en;q=0.9","8s2tryubtmknavp","60","[""White""]","No","Female","909588.6999999881","null","","<p></p>","null","rating","wwb","catch","null","televisions","55","50","50","40","5","35","2","","","","","","","","","",""
"","","","","","rating_trial","survey-html-form","56","498394","0.0-3.0-1.26","86","1","2025-04-11 14:37:13","bb671e3ae32f654b8954ea4c4635f915","","Mozilla/5.0 (Windows NT 10.0; Win64; x64) AppleWebKit/537.36 (KHTML, like Gecko) Chrome/135.0.0.0 Safari/537.36 Edg/135.0.0.0","WebKit","Edge","135.0.0.0","Windows","10.0","https://hz8g1ckzuq.cognition.run/","en-US,en;q=0.9","8s2tryubtmknavp","60","[""White""]","No","Female","909588.6999999881","10849","","","{""price_1"":""75"",""price_2"":""50"",""price_3"":""75""}","rating","wwb","catch","null","televisions","55","50","50","40","5","35","2","null","null","null","null","null","null","Screen size","Average lifespan","",""
"","","","","","rating_trial_setup","html-keyboard-response","57","498697","0.0-3.0-0.27","86","1","2025-04-11 14:37:13","bb671e3ae32f654b8954ea4c4635f915","","Mozilla/5.0 (Windows NT 10.0; Win64; x64) AppleWebKit/537.36 (KHTML, like Gecko) Chrome/135.0.0.0 Safari/537.36 Edg/135.0.0.0","WebKit","Edge","135.0.0.0","Windows","10.0","https://hz8g1ckzuq.cognition.run/","en-US,en;q=0.9","8s2tryubtmknavp","60","[""White""]","No","Female","909588.6999999881","null","","<p></p>","null","rating","tdc","repulsion_2","1","washing machines","null","null","null","null","null","null","2","","","","","","","","","",""
"","","","","","rating_trial","survey-html-form","58","508664","0.0-3.0-1.27","86","1","2025-04-11 14:37:13","bb671e3ae32f654b8954ea4c4635f915","","Mozilla/5.0 (Windows NT 10.0; Win64; x64) AppleWebKit/537.36 (KHTML, like Gecko) Chrome/135.0.0.0 Safari/537.36 Edg/135.0.0.0","WebKit","Edge","135.0.0.0","Windows","10.0","https://hz8g1ckzuq.cognition.run/","en-US,en;q=0.9","8s2tryubtmknavp","60","[""White""]","No","Female","909588.6999999881","9966","","","{""price_1"":""700"",""price_2"":""700"",""price_3"":""650""}","rating","tdc","repulsion_2","1","washing machines","null","null","null","null","null","null","2","100","90","100","30","40","20","Average lifespan","Energy savings","",""
"","","","","","rating_trial_setup","html-keyboard-response","59","508968","0.0-3.0-0.28","86","1","2025-04-11 14:37:13","bb671e3ae32f654b8954ea4c4635f915","","Mozilla/5.0 (Windows NT 10.0; Win64; x64) AppleWebKit/537.36 (KHTML, like Gecko) Chrome/135.0.0.0 Safari/537.36 Edg/135.0.0.0","WebKit","Edge","135.0.0.0","Windows","10.0","https://hz8g1ckzuq.cognition.run/","en-US,en;q=0.9","8s2tryubtmknavp","60","[""White""]","No","Female","909588.6999999881","null","","<p></p>","null","rating","tdc","repulsion_1","2","laptops","null","null","null","null","null","null","1","","","","","","","","","",""
"","","","","","rating_trial","survey-html-form","60","522625","0.0-3.0-1.28","86","1","2025-04-11 14:37:13","bb671e3ae32f654b8954ea4c4635f915","","Mozilla/5.0 (Windows NT 10.0; Win64; x64) AppleWebKit/537.36 (KHTML, like Gecko) Chrome/135.0.0.0 Safari/537.36 Edg/135.0.0.0","WebKit","Edge","135.0.0.0","Windows","10.0","https://hz8g1ckzuq.cognition.run/","en-US,en;q=0.9","8s2tryubtmknavp","60","[""White""]","No","Female","909588.6999999881","13655","","","{""price_1"":""300"",""price_2"":""200"",""price_3"":""400""}","rating","tdc","repulsion_1","2","laptops","null","null","null","null","null","null","1","30","40","25","100","90","100","Processing speed","Memory (RAM)","",""
"","","","","","rating_trial_setup","html-keyboard-response","61","522928","0.0-3.0-0.29","86","1","2025-04-11 14:37:13","bb671e3ae32f654b8954ea4c4635f915","","Mozilla/5.0 (Windows NT 10.0; Win64; x64) AppleWebKit/537.36 (KHTML, like Gecko) Chrome/135.0.0.0 Safari/537.36 Edg/135.0.0.0","WebKit","Edge","135.0.0.0","Windows","10.0","https://hz8g1ckzuq.cognition.run/","en-US,en;q=0.9","8s2tryubtmknavp","60","[""White""]","No","Female","909588.6999999881","null","","<p></p>","null","rating","wwb","catch","null","washing machines","70","95","50","35","30","45","2","","","","","","","","","",""
"","","","","","rating_trial","survey-html-form","62","531880","0.0-3.0-1.29","86","1","2025-04-11 14:37:13","bb671e3ae32f654b8954ea4c4635f915","","Mozilla/5.0 (Windows NT 10.0; Win64; x64) AppleWebKit/537.36 (KHTML, like Gecko) Chrome/135.0.0.0 Safari/537.36 Edg/135.0.0.0","WebKit","Edge","135.0.0.0","Windows","10.0","https://hz8g1ckzuq.cognition.run/","en-US,en;q=0.9","8s2tryubtmknavp","60","[""White""]","No","Female","909588.6999999881","8951","","","{""price_1"":""400"",""price_2"":""400"",""price_3"":""400""}","rating","wwb","catch","null","washing machines","70","95","50","35","30","45","2","null","null","null","null","null","null","Average lifespan","Energy savings","",""
"","","","","","rating_trial_setup","html-keyboard-response","63","532182","0.0-3.0-0.30","86","1","2025-04-11 14:37:13","bb671e3ae32f654b8954ea4c4635f915","","Mozilla/5.0 (Windows NT 10.0; Win64; x64) AppleWebKit/537.36 (KHTML, like Gecko) Chrome/135.0.0.0 Safari/537.36 Edg/135.0.0.0","WebKit","Edge","135.0.0.0","Windows","10.0","https://hz8g1ckzuq.cognition.run/","en-US,en;q=0.9","8s2tryubtmknavp","60","[""White""]","No","Female","909588.6999999881","null","","<p></p>","null","rating","cdt","attraction_1","2","laptops","null","null","null","null","null","null","1","","","","","","","","","",""
"","","","","","rating_trial","survey-html-form","64","543274","0.0-3.0-1.30","86","1","2025-04-11 14:37:13","bb671e3ae32f654b8954ea4c4635f915","","Mozilla/5.0 (Windows NT 10.0; Win64; x64) AppleWebKit/537.36 (KHTML, like Gecko) Chrome/135.0.0.0 Safari/537.36 Edg/135.0.0.0","WebKit","Edge","135.0.0.0","Windows","10.0","https://hz8g1ckzuq.cognition.run/","en-US,en;q=0.9","8s2tryubtmknavp","60","[""White""]","No","Female","909588.6999999881","11090","","","{""price_1"":""300"",""price_2"":""300"",""price_3"":""300""}","rating","cdt","attraction_1","2","laptops","null","null","null","null","null","null","1","50","60","45","60","50","60","Processing speed","Memory (RAM)","",""
"","","","","","rating_trial_setup","html-keyboard-response","65","543577","0.0-3.0-0.31","86","1","2025-04-11 14:37:13","bb671e3ae32f654b8954ea4c4635f915","","Mozilla/5.0 (Windows NT 10.0; Win64; x64) AppleWebKit/537.36 (KHTML, like Gecko) Chrome/135.0.0.0 Safari/537.36 Edg/135.0.0.0","WebKit","Edge","135.0.0.0","Windows","10.0","https://hz8g1ckzuq.cognition.run/","en-US,en;q=0.9","8s2tryubtmknavp","60","[""White""]","No","Female","909588.6999999881","null","","<p></p>","null","rating","dct","repulsion_2","1","microwave ovens","null","null","null","null","null","null","2","","","","","","","","","",""
"","","","","","rating_trial","survey-html-form","66","551170","0.0-3.0-1.31","86","1","2025-04-11 14:37:13","bb671e3ae32f654b8954ea4c4635f915","","Mozilla/5.0 (Windows NT 10.0; Win64; x64) AppleWebKit/537.36 (KHTML, like Gecko) Chrome/135.0.0.0 Safari/537.36 Edg/135.0.0.0","WebKit","Edge","135.0.0.0","Windows","10.0","https://hz8g1ckzuq.cognition.run/","en-US,en;q=0.9","8s2tryubtmknavp","60","[""White""]","No","Female","909588.6999999881","7591","","","{""price_1"":""30"",""price_2"":""40"",""price_3"":""35""}","rating","dct","repulsion_2","1","microwave ovens","null","null","null","null","null","null","2","100","90","100","30","40","20","Warranty","Cooking power","",""
"","","","","","rating_trial_setup","html-keyboard-response","67","551473","0.0-3.0-0.32","86","1","2025-04-11 14:37:13","bb671e3ae32f654b8954ea4c4635f915","","Mozilla/5.0 (Windows NT 10.0; Win64; x64) AppleWebKit/537.36 (KHTML, like Gecko) Chrome/135.0.0.0 Safari/537.36 Edg/135.0.0.0","WebKit","Edge","135.0.0.0","Windows","10.0","https://hz8g1ckzuq.cognition.run/","en-US,en;q=0.9","8s2tryubtmknavp","60","[""White""]","No","Female","909588.6999999881","null","","<p></p>","null","rating","tdc","attraction_2","1","washing machines","null","null","null","null","null","null","1","","","","","","","","","",""
"","","","","","rating_trial","survey-html-form","68","559756","0.0-3.0-1.32","86","1","2025-04-11 14:37:13","bb671e3ae32f654b8954ea4c4635f915","","Mozilla/5.0 (Windows NT 10.0; Win64; x64) AppleWebKit/537.36 (KHTML, like Gecko) Chrome/135.0.0.0 Safari/537.36 Edg/135.0.0.0","WebKit","Edge","135.0.0.0","Windows","10.0","https://hz8g1ckzuq.cognition.run/","en-US,en;q=0.9","8s2tryubtmknavp","60","[""White""]","No","Female","909588.6999999881","8282","","","{""price_1"":""500"",""price_2"":""500"",""price_3"":""450""}","rating","tdc","attraction_2","1","washing machines","null","null","null","null","null","null","1","60","50","60","50","60","40","Average lifespan","Energy savings","",""
"","","","","","rating_trial_setup","html-keyboard-response","69","560059","0.0-3.0-0.33","86","1","2025-04-11 14:37:13","bb671e3ae32f654b8954ea4c4635f915","","Mozilla/5.0 (Windows NT 10.0; Win64; x64) AppleWebKit/537.36 (KHTML, like Gecko) Chrome/135.0.0.0 Safari/537.36 Edg/135.0.0.0","WebKit","Edge","135.0.0.0","Windows","10.0","https://hz8g1ckzuq.cognition.run/","en-US,en;q=0.9","8s2tryubtmknavp","60","[""White""]","No","Female","909588.6999999881","null","","<p></p>","null","rating","dtc","repulsion_1","1","televisions","null","null","null","null","null","null","2","","","","","","","","","",""
"","","","","","rating_trial","survey-html-form","70","571292","0.0-3.0-1.33","86","1","2025-04-11 14:37:13","bb671e3ae32f654b8954ea4c4635f915","","Mozilla/5.0 (Windows NT 10.0; Win64; x64) AppleWebKit/537.36 (KHTML, like Gecko) Chrome/135.0.0.0 Safari/537.36 Edg/135.0.0.0","WebKit","Edge","135.0.0.0","Windows","10.0","https://hz8g1ckzuq.cognition.run/","en-US,en;q=0.9","8s2tryubtmknavp","60","[""White""]","No","Female","909588.6999999881","11232","","","{""price_1"":""700"",""price_2"":""700"",""price_3"":""600""}","rating","dtc","repulsion_1","1","televisions","null","null","null","null","null","null","2","100","90","100","30","40","25","Screen size","Average lifespan","",""
"","","","","","rating_trial_setup","html-keyboard-response","71","571595","0.0-3.0-0.34","86","1","2025-04-11 14:37:13","bb671e3ae32f654b8954ea4c4635f915","","Mozilla/5.0 (Windows NT 10.0; Win64; x64) AppleWebKit/537.36 (KHTML, like Gecko) Chrome/135.0.0.0 Safari/537.36 Edg/135.0.0.0","WebKit","Edge","135.0.0.0","Windows","10.0","https://hz8g1ckzuq.cognition.run/","en-US,en;q=0.9","8s2tryubtmknavp","60","[""White""]","No","Female","909588.6999999881","null","","<p></p>","null","rating","ctd","attraction_1","2","washing machines","null","null","null","null","null","null","1","","","","","","","","","",""
"","","","","","rating_trial","survey-html-form","72","585792","0.0-3.0-1.34","86","1","2025-04-11 14:37:13","bb671e3ae32f654b8954ea4c4635f915","","Mozilla/5.0 (Windows NT 10.0; Win64; x64) AppleWebKit/537.36 (KHTML, like Gecko) Chrome/135.0.0.0 Safari/537.36 Edg/135.0.0.0","WebKit","Edge","135.0.0.0","Windows","10.0","https://hz8g1ckzuq.cognition.run/","en-US,en;q=0.9","8s2tryubtmknavp","60","[""White""]","No","Female","909588.6999999881","14196","","","{""price_1"":""500"",""price_2"":""500"",""price_3"":""500""}","rating","ctd","attraction_1","2","washing machines","null","null","null","null","null","null","1","50","60","45","60","50","60","Average lifespan","Energy savings","",""
"","","","","","rating_trial_setup","html-keyboard-response","73","586095","0.0-3.0-0.35","86","1","2025-04-11 14:37:13","bb671e3ae32f654b8954ea4c4635f915","","Mozilla/5.0 (Windows NT 10.0; Win64; x64) AppleWebKit/537.36 (KHTML, like Gecko) Chrome/135.0.0.0 Safari/537.36 Edg/135.0.0.0","WebKit","Edge","135.0.0.0","Windows","10.0","https://hz8g1ckzuq.cognition.run/","en-US,en;q=0.9","8s2tryubtmknavp","60","[""White""]","No","Female","909588.6999999881","null","","<p></p>","null","rating","cdt","repulsion_1","2","microwave ovens","null","null","null","null","null","null","1","","","","","","","","","",""
"","","","","","rating_trial","survey-html-form","74","594418","0.0-3.0-1.35","86","1","2025-04-11 14:37:13","bb671e3ae32f654b8954ea4c4635f915","","Mozilla/5.0 (Windows NT 10.0; Win64; x64) AppleWebKit/537.36 (KHTML, like Gecko) Chrome/135.0.0.0 Safari/537.36 Edg/135.0.0.0","WebKit","Edge","135.0.0.0","Windows","10.0","https://hz8g1ckzuq.cognition.run/","en-US,en;q=0.9","8s2tryubtmknavp","60","[""White""]","No","Female","909588.6999999881","8321","","","{""price_1"":""90"",""price_2"":""100"",""price_3"":""100""}","rating","cdt","repulsion_1","2","microwave ovens","null","null","null","null","null","null","1","30","40","25","100","90","100","Warranty","Cooking power","",""
"","","","","","rating_trial_setup","html-keyboard-response","75","594721","0.0-3.0-0.36","86","1","2025-04-11 14:37:13","bb671e3ae32f654b8954ea4c4635f915","","Mozilla/5.0 (Windows NT 10.0; Win64; x64) AppleWebKit/537.36 (KHTML, like Gecko) Chrome/135.0.0.0 Safari/537.36 Edg/135.0.0.0","WebKit","Edge","135.0.0.0","Windows","10.0","https://hz8g1ckzuq.cognition.run/","en-US,en;q=0.9","8s2tryubtmknavp","60","[""White""]","No","Female","909588.6999999881","null","","<p></p>","null","rating","dct","attraction_2","1","microwave ovens","null","null","null","null","null","null","2","","","","","","","","","",""
"","","","","","rating_trial","survey-html-form","76","602232","0.0-3.0-1.36","86","1","2025-04-11 14:37:13","bb671e3ae32f654b8954ea4c4635f915","","Mozilla/5.0 (Windows NT 10.0; Win64; x64) AppleWebKit/537.36 (KHTML, like Gecko) Chrome/135.0.0.0 Safari/537.36 Edg/135.0.0.0","WebKit","Edge","135.0.0.0","Windows","10.0","https://hz8g1ckzuq.cognition.run/","en-US,en;q=0.9","8s2tryubtmknavp","60","[""White""]","No","Female","909588.6999999881","7509","","","{""price_1"":""40"",""price_2"":""60"",""price_3"":""50""}","rating","dct","attraction_2","1","microwave ovens","null","null","null","null","null","null","2","60","50","60","50","60","40","Warranty","Cooking power","",""
"","","","","","rating_trial_setup","html-keyboard-response","77","602535","0.0-3.0-0.37","86","1","2025-04-11 14:37:13","bb671e3ae32f654b8954ea4c4635f915","","Mozilla/5.0 (Windows NT 10.0; Win64; x64) AppleWebKit/537.36 (KHTML, like Gecko) Chrome/135.0.0.0 Safari/537.36 Edg/135.0.0.0","WebKit","Edge","135.0.0.0","Windows","10.0","https://hz8g1ckzuq.cognition.run/","en-US,en;q=0.9","8s2tryubtmknavp","60","[""White""]","No","Female","909588.6999999881","null","","<p></p>","null","rating","tcd","repulsion_1","1","microwave ovens","null","null","null","null","null","null","1","","","","","","","","","",""
"","","","","","rating_trial","survey-html-form","78","611970","0.0-3.0-1.37","86","1","2025-04-11 14:37:13","bb671e3ae32f654b8954ea4c4635f915","","Mozilla/5.0 (Windows NT 10.0; Win64; x64) AppleWebKit/537.36 (KHTML, like Gecko) Chrome/135.0.0.0 Safari/537.36 Edg/135.0.0.0","WebKit","Edge","135.0.0.0","Windows","10.0","https://hz8g1ckzuq.cognition.run/","en-US,en;q=0.9","8s2tryubtmknavp","60","[""White""]","No","Female","909588.6999999881","9434","","","{""price_1"":""50"",""price_2"":""70"",""price_3"":""50""}","rating","tcd","repulsion_1","1","microwave ovens","null","null","null","null","null","null","1","100","90","100","30","40","25","Warranty","Cooking power","",""
"","","","","","rating_trial_setup","html-keyboard-response","79","612274","0.0-3.0-0.38","86","1","2025-04-11 14:37:13","bb671e3ae32f654b8954ea4c4635f915","","Mozilla/5.0 (Windows NT 10.0; Win64; x64) AppleWebKit/537.36 (KHTML, like Gecko) Chrome/135.0.0.0 Safari/537.36 Edg/135.0.0.0","WebKit","Edge","135.0.0.0","Windows","10.0","https://hz8g1ckzuq.cognition.run/","en-US,en;q=0.9","8s2tryubtmknavp","60","[""White""]","No","Female","909588.6999999881","null","","<p></p>","null","rating","wbw","catch","null","washing machines","65","60","50","35","30","25","1","","","","","","","","","",""
"","","","","","rating_trial","survey-html-form","80","622558","0.0-3.0-1.38","86","1","2025-04-11 14:37:13","bb671e3ae32f654b8954ea4c4635f915","","Mozilla/5.0 (Windows NT 10.0; Win64; x64) AppleWebKit/537.36 (KHTML, like Gecko) Chrome/135.0.0.0 Safari/537.36 Edg/135.0.0.0","WebKit","Edge","135.0.0.0","Windows","10.0","https://hz8g1ckzuq.cognition.run/","en-US,en;q=0.9","8s2tryubtmknavp","60","[""White""]","No","Female","909588.6999999881","10283","","","{""price_1"":""300"",""price_2"":""400"",""price_3"":""300""}","rating","wbw","catch","null","washing machines","65","60","50","35","30","25","1","null","null","null","null","null","null","Average lifespan","Energy savings","",""
"","","","","","rating_trial_setup","html-keyboard-response","81","622862","0.0-3.0-0.39","86","1","2025-04-11 14:37:13","bb671e3ae32f654b8954ea4c4635f915","","Mozilla/5.0 (Windows NT 10.0; Win64; x64) AppleWebKit/537.36 (KHTML, like Gecko) Chrome/135.0.0.0 Safari/537.36 Edg/135.0.0.0","WebKit","Edge","135.0.0.0","Windows","10.0","https://hz8g1ckzuq.cognition.run/","en-US,en;q=0.9","8s2tryubtmknavp","60","[""White""]","No","Female","909588.6999999881","null","","<p></p>","null","rating","dct","attraction_1","1","televisions","null","null","null","null","null","null","2","","","","","","","","","",""
"","","","","","rating_trial","survey-html-form","82","634546","0.0-3.0-1.39","86","1","2025-04-11 14:37:13","bb671e3ae32f654b8954ea4c4635f915","","Mozilla/5.0 (Windows NT 10.0; Win64; x64) AppleWebKit/537.36 (KHTML, like Gecko) Chrome/135.0.0.0 Safari/537.36 Edg/135.0.0.0","WebKit","Edge","135.0.0.0","Windows","10.0","https://hz8g1ckzuq.cognition.run/","en-US,en;q=0.9","8s2tryubtmknavp","60","[""White""]","No","Female","909588.6999999881","11682","","","{""price_1"":""300"",""price_2"":""300"",""price_3"":""300""}","rating","dct","attraction_1","1","televisions","null","null","null","null","null","null","2","60","50","60","50","60","45","Screen size","Average lifespan","",""
"","","","","","","instructions","83","659776","0.0-4.0","86","1","2025-04-11 14:37:13","bb671e3ae32f654b8954ea4c4635f915","","Mozilla/5.0 (Windows NT 10.0; Win64; x64) AppleWebKit/537.36 (KHTML, like Gecko) Chrome/135.0.0.0 Safari/537.36 Edg/135.0.0.0","WebKit","Edge","135.0.0.0","Windows","10.0","https://hz8g1ckzuq.cognition.run/","en-US,en;q=0.9","8s2tryubtmknavp","60","[""White""]","No","Female","909588.6999999881","25228","[{""page_index"":0,""viewing_time"":1717},{""page_index"":1,""viewing_time"":1120},{""page_index"":2,""viewing_time"":5614},{""page_index"":3,""viewing_time"":3686},{""page_index"":4,""viewing_time"":2326},{""page_index"":5,""viewing_time"":2694},{""page_index"":6,""viewing_time"":3938},{""page_index"":7,""viewing_time"":4132}]","","","","","","","","","","","","","","","","","","","","","","","",""
"","","","","","choice_trial_setup","html-keyboard-response","84","660078","0.0-5.0-0.0","86","1","2025-04-11 14:37:13","bb671e3ae32f654b8954ea4c4635f915","","Mozilla/5.0 (Windows NT 10.0; Win64; x64) AppleWebKit/537.36 (KHTML, like Gecko) Chrome/135.0.0.0 Safari/537.36 Edg/135.0.0.0","WebKit","Edge","135.0.0.0","Windows","10.0","https://hz8g1ckzuq.cognition.run/","en-US,en;q=0.9","8s2tryubtmknavp","60","[""White""]","No","Female","909588.6999999881","null","","<p></p>","null","choice","tcd","attraction_2","2","washing machines","null","null","null","null","null","null","2","","","","","","","","","",""
"","","","","","choice_trial","survey-html-form","85","667604","0.0-5.0-1.0","86","1","2025-04-11 14:37:13","bb671e3ae32f654b8954ea4c4635f915","","Mozilla/5.0 (Windows NT 10.0; Win64; x64) AppleWebKit/537.36 (KHTML, like Gecko) Chrome/135.0.0.0 Safari/537.36 Edg/135.0.0.0","WebKit","Edge","135.0.0.0","Windows","10.0","https://hz8g1ckzuq.cognition.run/","en-US,en;q=0.9","8s2tryubtmknavp","60","[""White""]","No","Female","909588.6999999881","7523","","","{""product_choice"":""B""}","choice","tcd","attraction_2","2","washing machines","null","null","null","null","null","null","2","50","60","40","60","50","60","Average lifespan","Energy savings","",""
"","","","","","choice_trial_setup","html-keyboard-response","86","667907","0.0-5.0-0.1","86","1","2025-04-11 14:37:13","bb671e3ae32f654b8954ea4c4635f915","","Mozilla/5.0 (Windows NT 10.0; Win64; x64) AppleWebKit/537.36 (KHTML, like Gecko) Chrome/135.0.0.0 Safari/537.36 Edg/135.0.0.0","WebKit","Edge","135.0.0.0","Windows","10.0","https://hz8g1ckzuq.cognition.run/","en-US,en;q=0.9","8s2tryubtmknavp","60","[""White""]","No","Female","909588.6999999881","null","","<p></p>","null","choice","tdc","attraction_1","1","microwave ovens","null","null","null","null","null","null","2","","","","","","","","","",""
"","","","","","choice_trial","survey-html-form","87","671042","0.0-5.0-1.1","86","1","2025-04-11 14:37:13","bb671e3ae32f654b8954ea4c4635f915","","Mozilla/5.0 (Windows NT 10.0; Win64; x64) AppleWebKit/537.36 (KHTML, like Gecko) Chrome/135.0.0.0 Safari/537.36 Edg/135.0.0.0","WebKit","Edge","135.0.0.0","Windows","10.0","https://hz8g1ckzuq.cognition.run/","en-US,en;q=0.9","8s2tryubtmknavp","60","[""White""]","No","Female","909588.6999999881","3134","","","{""product_choice"":""C""}","choice","tdc","attraction_1","1","microwave ovens","null","null","null","null","null","null","2","60","50","60","50","60","45","Warranty","Cooking power","",""
"","","","","","choice_trial_setup","html-keyboard-response","88","671345","0.0-5.0-0.2","86","1","2025-04-11 14:37:13","bb671e3ae32f654b8954ea4c4635f915","","Mozilla/5.0 (Windows NT 10.0; Win64; x64) AppleWebKit/537.36 (KHTML, like Gecko) Chrome/135.0.0.0 Safari/537.36 Edg/135.0.0.0","WebKit","Edge","135.0.0.0","Windows","10.0","https://hz8g1ckzuq.cognition.run/","en-US,en;q=0.9","8s2tryubtmknavp","60","[""White""]","No","Female","909588.6999999881","null","","<p></p>","null","choice","cdt","attraction_2","2","microwave ovens","null","null","null","null","null","null","1","","","","","","","","","",""
"","","","","","choice_trial","survey-html-form","89","676610","0.0-5.0-1.2","86","1","2025-04-11 14:37:13","bb671e3ae32f654b8954ea4c4635f915","","Mozilla/5.0 (Windows NT 10.0; Win64; x64) AppleWebKit/537.36 (KHTML, like Gecko) Chrome/135.0.0.0 Safari/537.36 Edg/135.0.0.0","WebKit","Edge","135.0.0.0","Windows","10.0","https://hz8g1ckzuq.cognition.run/","en-US,en;q=0.9","8s2tryubtmknavp","60","[""White""]","No","Female","909588.6999999881","5263","","","{""product_choice"":""C""}","choice","cdt","attraction_2","2","microwave ovens","null","null","null","null","null","null","1","50","60","40","60","50","60","Warranty","Cooking power","",""
"","","","","","choice_trial_setup","html-keyboard-response","90","676913","0.0-5.0-0.3","86","1","2025-04-11 14:37:13","bb671e3ae32f654b8954ea4c4635f915","","Mozilla/5.0 (Windows NT 10.0; Win64; x64) AppleWebKit/537.36 (KHTML, like Gecko) Chrome/135.0.0.0 Safari/537.36 Edg/135.0.0.0","WebKit","Edge","135.0.0.0","Windows","10.0","https://hz8g1ckzuq.cognition.run/","en-US,en;q=0.9","8s2tryubtmknavp","60","[""White""]","No","Female","909588.6999999881","null","","<p></p>","null","choice","cdt","repulsion_1","1","washing machines","null","null","null","null","null","null","2","","","","","","","","","",""
"","","","","","choice_trial","survey-html-form","91","682558","0.0-5.0-1.3","86","1","2025-04-11 14:37:13","bb671e3ae32f654b8954ea4c4635f915","","Mozilla/5.0 (Windows NT 10.0; Win64; x64) AppleWebKit/537.36 (KHTML, like Gecko) Chrome/135.0.0.0 Safari/537.36 Edg/135.0.0.0","WebKit","Edge","135.0.0.0","Windows","10.0","https://hz8g1ckzuq.cognition.run/","en-US,en;q=0.9","8s2tryubtmknavp","60","[""White""]","No","Female","909588.6999999881","5642","","","{""product_choice"":""C""}","choice","cdt","repulsion_1","1","washing machines","null","null","null","null","null","null","2","100","90","100","30","40","25","Average lifespan","Energy savings","",""
"","","","","","choice_trial_setup","html-keyboard-response","92","682861","0.0-5.0-0.4","86","1","2025-04-11 14:37:13","bb671e3ae32f654b8954ea4c4635f915","","Mozilla/5.0 (Windows NT 10.0; Win64; x64) AppleWebKit/537.36 (KHTML, like Gecko) Chrome/135.0.0.0 Safari/537.36 Edg/135.0.0.0","WebKit","Edge","135.0.0.0","Windows","10.0","https://hz8g1ckzuq.cognition.run/","en-US,en;q=0.9","8s2tryubtmknavp","60","[""White""]","No","Female","909588.6999999881","null","","<p></p>","null","choice","ctd","repulsion_1","2","microwave ovens","null","null","null","null","null","null","1","","","","","","","","","",""
"","","","","","choice_trial","survey-html-form","93","686536","0.0-5.0-1.4","86","1","2025-04-11 14:37:13","bb671e3ae32f654b8954ea4c4635f915","","Mozilla/5.0 (Windows NT 10.0; Win64; x64) AppleWebKit/537.36 (KHTML, like Gecko) Chrome/135.0.0.0 Safari/537.36 Edg/135.0.0.0","WebKit","Edge","135.0.0.0","Windows","10.0","https://hz8g1ckzuq.cognition.run/","en-US,en;q=0.9","8s2tryubtmknavp","60","[""White""]","No","Female","909588.6999999881","3673","","","{""product_choice"":""B""}","choice","ctd","repulsion_1","2","microwave ovens","null","null","null","null","null","null","1","30","40","25","100","90","100","Warranty","Cooking power","",""
"","","","","","choice_trial_setup","html-keyboard-response","94","686838","0.0-5.0-0.5","86","1","2025-04-11 14:37:13","bb671e3ae32f654b8954ea4c4635f915","","Mozilla/5.0 (Windows NT 10.0; Win64; x64) AppleWebKit/537.36 (KHTML, like Gecko) Chrome/135.0.0.0 Safari/537.36 Edg/135.0.0.0","WebKit","Edge","135.0.0.0","Windows","10.0","https://hz8g1ckzuq.cognition.run/","en-US,en;q=0.9","8s2tryubtmknavp","60","[""White""]","No","Female","909588.6999999881","null","","<p></p>","null","choice","ctd","repulsion_1","1","microwave ovens","null","null","null","null","null","null","1","","","","","","","","","",""
"","","","","","choice_trial","survey-html-form","95","690224","0.0-5.0-1.5","86","1","2025-04-11 14:37:13","bb671e3ae32f654b8954ea4c4635f915","","Mozilla/5.0 (Windows NT 10.0; Win64; x64) AppleWebKit/537.36 (KHTML, like Gecko) Chrome/135.0.0.0 Safari/537.36 Edg/135.0.0.0","WebKit","Edge","135.0.0.0","Windows","10.0","https://hz8g1ckzuq.cognition.run/","en-US,en;q=0.9","8s2tryubtmknavp","60","[""White""]","No","Female","909588.6999999881","3383","","","{""product_choice"":""A""}","choice","ctd","repulsion_1","1","microwave ovens","null","null","null","null","null","null","1","100","90","100","30","40","25","Warranty","Cooking power","",""
"","","","","","choice_trial_setup","html-keyboard-response","96","690528","0.0-5.0-0.6","86","1","2025-04-11 14:37:13","bb671e3ae32f654b8954ea4c4635f915","","Mozilla/5.0 (Windows NT 10.0; Win64; x64) AppleWebKit/537.36 (KHTML, like Gecko) Chrome/135.0.0.0 Safari/537.36 Edg/135.0.0.0","WebKit","Edge","135.0.0.0","Windows","10.0","https://hz8g1ckzuq.cognition.run/","en-US,en;q=0.9","8s2tryubtmknavp","60","[""White""]","No","Female","909588.6999999881","null","","<p></p>","null","choice","dtc","repulsion_1","1","laptops","null","null","null","null","null","null","2","","","","","","","","","",""
"","","","","","choice_trial","survey-html-form","97","694436","0.0-5.0-1.6","86","1","2025-04-11 14:37:13","bb671e3ae32f654b8954ea4c4635f915","","Mozilla/5.0 (Windows NT 10.0; Win64; x64) AppleWebKit/537.36 (KHTML, like Gecko) Chrome/135.0.0.0 Safari/537.36 Edg/135.0.0.0","WebKit","Edge","135.0.0.0","Windows","10.0","https://hz8g1ckzuq.cognition.run/","en-US,en;q=0.9","8s2tryubtmknavp","60","[""White""]","No","Female","909588.6999999881","3906","","","{""product_choice"":""B""}","choice","dtc","repulsion_1","1","laptops","null","null","null","null","null","null","2","100","90","100","30","40","25","Processing speed","Memory (RAM)","",""
"","","","","","choice_trial_setup","html-keyboard-response","98","694739","0.0-5.0-0.7","86","1","2025-04-11 14:37:13","bb671e3ae32f654b8954ea4c4635f915","","Mozilla/5.0 (Windows NT 10.0; Win64; x64) AppleWebKit/537.36 (KHTML, like Gecko) Chrome/135.0.0.0 Safari/537.36 Edg/135.0.0.0","WebKit","Edge","135.0.0.0","Windows","10.0","https://hz8g1ckzuq.cognition.run/","en-US,en;q=0.9","8s2tryubtmknavp","60","[""White""]","No","Female","909588.6999999881","null","","<p></p>","null","choice","ctd","attraction_1","1","televisions","null","null","null","null","null","null","2","","","","","","","","","",""
"","","","","","choice_trial","survey-html-form","99","699274","0.0-5.0-1.7","86","1","2025-04-11 14:37:13","bb671e3ae32f654b8954ea4c4635f915","","Mozilla/5.0 (Windows NT 10.0; Win64; x64) AppleWebKit/537.36 (KHTML, like Gecko) Chrome/135.0.0.0 Safari/537.36 Edg/135.0.0.0","WebKit","Edge","135.0.0.0","Windows","10.0","https://hz8g1ckzuq.cognition.run/","en-US,en;q=0.9","8s2tryubtmknavp","60","[""White""]","No","Female","909588.6999999881","4532","","","{""product_choice"":""B""}","choice","ctd","attraction_1","1","televisions","null","null","null","null","null","null","2","60","50","60","50","60","45","Screen size","Average lifespan","",""
"","","","","","choice_trial_setup","html-keyboard-response","100","699578","0.0-5.0-0.8","86","1","2025-04-11 14:37:13","bb671e3ae32f654b8954ea4c4635f915","","Mozilla/5.0 (Windows NT 10.0; Win64; x64) AppleWebKit/537.36 (KHTML, like Gecko) Chrome/135.0.0.0 Safari/537.36 Edg/135.0.0.0","WebKit","Edge","135.0.0.0","Windows","10.0","https://hz8g1ckzuq.cognition.run/","en-US,en;q=0.9","8s2tryubtmknavp","60","[""White""]","No","Female","909588.6999999881","null","","<p></p>","null","choice","tcd","attraction_2","2","televisions","null","null","null","null","null","null","2","","","","","","","","","",""
"","","","","","choice_trial","survey-html-form","101","703142","0.0-5.0-1.8","86","1","2025-04-11 14:37:13","bb671e3ae32f654b8954ea4c4635f915","","Mozilla/5.0 (Windows NT 10.0; Win64; x64) AppleWebKit/537.36 (KHTML, like Gecko) Chrome/135.0.0.0 Safari/537.36 Edg/135.0.0.0","WebKit","Edge","135.0.0.0","Windows","10.0","https://hz8g1ckzuq.cognition.run/","en-US,en;q=0.9","8s2tryubtmknavp","60","[""White""]","No","Female","909588.6999999881","3562","","","{""product_choice"":""B""}","choice","tcd","attraction_2","2","televisions","null","null","null","null","null","null","2","50","60","40","60","50","60","Screen size","Average lifespan","",""
"","","","","","choice_trial_setup","html-keyboard-response","102","703445","0.0-5.0-0.9","86","1","2025-04-11 14:37:13","bb671e3ae32f654b8954ea4c4635f915","","Mozilla/5.0 (Windows NT 10.0; Win64; x64) AppleWebKit/537.36 (KHTML, like Gecko) Chrome/135.0.0.0 Safari/537.36 Edg/135.0.0.0","WebKit","Edge","135.0.0.0","Windows","10.0","https://hz8g1ckzuq.cognition.run/","en-US,en;q=0.9","8s2tryubtmknavp","60","[""White""]","No","Female","909588.6999999881","null","","<p></p>","null","choice","tdc","attraction_2","1","laptops","null","null","null","null","null","null","2","","","","","","","","","",""
"","","","","","choice_trial","survey-html-form","103","709316","0.0-5.0-1.9","86","1","2025-04-11 14:37:13","bb671e3ae32f654b8954ea4c4635f915","","Mozilla/5.0 (Windows NT 10.0; Win64; x64) AppleWebKit/537.36 (KHTML, like Gecko) Chrome/135.0.0.0 Safari/537.36 Edg/135.0.0.0","WebKit","Edge","135.0.0.0","Windows","10.0","https://hz8g1ckzuq.cognition.run/","en-US,en;q=0.9","8s2tryubtmknavp","60","[""White""]","No","Female","909588.6999999881","5869","","","{""product_choice"":""A""}","choice","tdc","attraction_2","1","laptops","null","null","null","null","null","null","2","60","50","60","50","60","40","Processing speed","Memory (RAM)","",""
"","","","","","choice_trial_setup","html-keyboard-response","104","709619","0.0-5.0-0.10","86","1","2025-04-11 14:37:13","bb671e3ae32f654b8954ea4c4635f915","","Mozilla/5.0 (Windows NT 10.0; Win64; x64) AppleWebKit/537.36 (KHTML, like Gecko) Chrome/135.0.0.0 Safari/537.36 Edg/135.0.0.0","WebKit","Edge","135.0.0.0","Windows","10.0","https://hz8g1ckzuq.cognition.run/","en-US,en;q=0.9","8s2tryubtmknavp","60","[""White""]","No","Female","909588.6999999881","null","","<p></p>","null","choice","tdc","repulsion_2","2","laptops","null","null","null","null","null","null","2","","","","","","","","","",""
"","","","","","choice_trial","survey-html-form","105","712200","0.0-5.0-1.10","86","1","2025-04-11 14:37:13","bb671e3ae32f654b8954ea4c4635f915","","Mozilla/5.0 (Windows NT 10.0; Win64; x64) AppleWebKit/537.36 (KHTML, like Gecko) Chrome/135.0.0.0 Safari/537.36 Edg/135.0.0.0","WebKit","Edge","135.0.0.0","Windows","10.0","https://hz8g1ckzuq.cognition.run/","en-US,en;q=0.9","8s2tryubtmknavp","60","[""White""]","No","Female","909588.6999999881","2579","","","{""product_choice"":""C""}","choice","tdc","repulsion_2","2","laptops","null","null","null","null","null","null","2","30","40","20","100","90","100","Processing speed","Memory (RAM)","",""
"","","","","","choice_trial_setup","html-keyboard-response","106","712503","0.0-5.0-0.11","86","1","2025-04-11 14:37:13","bb671e3ae32f654b8954ea4c4635f915","","Mozilla/5.0 (Windows NT 10.0; Win64; x64) AppleWebKit/537.36 (KHTML, like Gecko) Chrome/135.0.0.0 Safari/537.36 Edg/135.0.0.0","WebKit","Edge","135.0.0.0","Windows","10.0","https://hz8g1ckzuq.cognition.run/","en-US,en;q=0.9","8s2tryubtmknavp","60","[""White""]","No","Female","909588.6999999881","null","","<p></p>","null","choice","ctd","repulsion_2","1","televisions","null","null","null","null","null","null","1","","","","","","","","","",""
"","","","","","choice_trial","survey-html-form","107","716790","0.0-5.0-1.11","86","1","2025-04-11 14:37:13","bb671e3ae32f654b8954ea4c4635f915","","Mozilla/5.0 (Windows NT 10.0; Win64; x64) AppleWebKit/537.36 (KHTML, like Gecko) Chrome/135.0.0.0 Safari/537.36 Edg/135.0.0.0","WebKit","Edge","135.0.0.0","Windows","10.0","https://hz8g1ckzuq.cognition.run/","en-US,en;q=0.9","8s2tryubtmknavp","60","[""White""]","No","Female","909588.6999999881","4284","","","{""product_choice"":""B""}","choice","ctd","repulsion_2","1","televisions","null","null","null","null","null","null","1","100","90","100","30","40","20","Screen size","Average lifespan","",""
"","","","","","choice_trial_setup","html-keyboard-response","108","717093","0.0-5.0-0.12","86","1","2025-04-11 14:37:13","bb671e3ae32f654b8954ea4c4635f915","","Mozilla/5.0 (Windows NT 10.0; Win64; x64) AppleWebKit/537.36 (KHTML, like Gecko) Chrome/135.0.0.0 Safari/537.36 Edg/135.0.0.0","WebKit","Edge","135.0.0.0","Windows","10.0","https://hz8g1ckzuq.cognition.run/","en-US,en;q=0.9","8s2tryubtmknavp","60","[""White""]","No","Female","909588.6999999881","null","","<p></p>","null","choice","dtc","repulsion_2","2","microwave ovens","null","null","null","null","null","null","2","","","","","","","","","",""
"","","","","","choice_trial","survey-html-form","109","720532","0.0-5.0-1.12","86","1","2025-04-11 14:37:13","bb671e3ae32f654b8954ea4c4635f915","","Mozilla/5.0 (Windows NT 10.0; Win64; x64) AppleWebKit/537.36 (KHTML, like Gecko) Chrome/135.0.0.0 Safari/537.36 Edg/135.0.0.0","WebKit","Edge","135.0.0.0","Windows","10.0","https://hz8g1ckzuq.cognition.run/","en-US,en;q=0.9","8s2tryubtmknavp","60","[""White""]","No","Female","909588.6999999881","3436","","","{""product_choice"":""B""}","choice","dtc","repulsion_2","2","microwave ovens","null","null","null","null","null","null","2","30","40","20","100","90","100","Warranty","Cooking power","",""
"","","","","","choice_trial_setup","html-keyboard-response","110","720836","0.0-5.0-0.13","86","1","2025-04-11 14:37:13","bb671e3ae32f654b8954ea4c4635f915","","Mozilla/5.0 (Windows NT 10.0; Win64; x64) AppleWebKit/537.36 (KHTML, like Gecko) Chrome/135.0.0.0 Safari/537.36 Edg/135.0.0.0","WebKit","Edge","135.0.0.0","Windows","10.0","https://hz8g1ckzuq.cognition.run/","en-US,en;q=0.9","8s2tryubtmknavp","60","[""White""]","No","Female","909588.6999999881","null","","<p></p>","null","choice","wbw","catch","null","microwave ovens","75","80","15","45","10","50","1","","","","","","","","","",""
"","","","","","choice_trial","survey-html-form","111","723020","0.0-5.0-1.13","86","1","2025-04-11 14:37:13","bb671e3ae32f654b8954ea4c4635f915","","Mozilla/5.0 (Windows NT 10.0; Win64; x64) AppleWebKit/537.36 (KHTML, like Gecko) Chrome/135.0.0.0 Safari/537.36 Edg/135.0.0.0","WebKit","Edge","135.0.0.0","Windows","10.0","https://hz8g1ckzuq.cognition.run/","en-US,en;q=0.9","8s2tryubtmknavp","60","[""White""]","No","Female","909588.6999999881","2181","","","{""product_choice"":""B""}","choice","wbw","catch","null","microwave ovens","75","80","15","45","10","50","1","null","null","null","null","null","null","Warranty","Cooking power","",""
"","","","","","choice_trial_setup","html-keyboard-response","112","723323","0.0-5.0-0.14","86","1","2025-04-11 14:37:13","bb671e3ae32f654b8954ea4c4635f915","","Mozilla/5.0 (Windows NT 10.0; Win64; x64) AppleWebKit/537.36 (KHTML, like Gecko) Chrome/135.0.0.0 Safari/537.36 Edg/135.0.0.0","WebKit","Edge","135.0.0.0","Windows","10.0","https://hz8g1ckzuq.cognition.run/","en-US,en;q=0.9","8s2tryubtmknavp","60","[""White""]","No","Female","909588.6999999881","null","","<p></p>","null","choice","bww","catch","null","televisions","90","55","50","30","35","10","1","","","","","","","","","",""
"","","","","","choice_trial","survey-html-form","113","726662","0.0-5.0-1.14","86","1","2025-04-11 14:37:13","bb671e3ae32f654b8954ea4c4635f915","","Mozilla/5.0 (Windows NT 10.0; Win64; x64) AppleWebKit/537.36 (KHTML, like Gecko) Chrome/135.0.0.0 Safari/537.36 Edg/135.0.0.0","WebKit","Edge","135.0.0.0","Windows","10.0","https://hz8g1ckzuq.cognition.run/","en-US,en;q=0.9","8s2tryubtmknavp","60","[""White""]","No","Female","909588.6999999881","3337","","","{""product_choice"":""A""}","choice","bww","catch","null","televisions","90","55","50","30","35","10","1","null","null","null","null","null","null","Screen size","Average lifespan","",""
"","","","","","choice_trial_setup","html-keyboard-response","114","726965","0.0-5.0-0.15","86","1","2025-04-11 14:37:13","bb671e3ae32f654b8954ea4c4635f915","","Mozilla/5.0 (Windows NT 10.0; Win64; x64) AppleWebKit/537.36 (KHTML, like Gecko) Chrome/135.0.0.0 Safari/537.36 Edg/135.0.0.0","WebKit","Edge","135.0.0.0","Windows","10.0","https://hz8g1ckzuq.cognition.run/","en-US,en;q=0.9","8s2tryubtmknavp","60","[""White""]","No","Female","909588.6999999881","null","","<p></p>","null","choice","dtc","attraction_1","2","laptops","null","null","null","null","null","null","1","","","","","","","","","",""
"","","","","","choice_trial","survey-html-form","115","730084","0.0-5.0-1.15","86","1","2025-04-11 14:37:13","bb671e3ae32f654b8954ea4c4635f915","","Mozilla/5.0 (Windows NT 10.0; Win64; x64) AppleWebKit/537.36 (KHTML, like Gecko) Chrome/135.0.0.0 Safari/537.36 Edg/135.0.0.0","WebKit","Edge","135.0.0.0","Windows","10.0","https://hz8g1ckzuq.cognition.run/","en-US,en;q=0.9","8s2tryubtmknavp","60","[""White""]","No","Female","909588.6999999881","3116","","","{""product_choice"":""C""}","choice","dtc","attraction_1","2","laptops","null","null","null","null","null","null","1","50","60","45","60","50","60","Processing speed","Memory (RAM)","",""
"","","","","","choice_trial_setup","html-keyboard-response","116","730388","0.0-5.0-0.16","86","1","2025-04-11 14:37:13","bb671e3ae32f654b8954ea4c4635f915","","Mozilla/5.0 (Windows NT 10.0; Win64; x64) AppleWebKit/537.36 (KHTML, like Gecko) Chrome/135.0.0.0 Safari/537.36 Edg/135.0.0.0","WebKit","Edge","135.0.0.0","Windows","10.0","https://hz8g1ckzuq.cognition.run/","en-US,en;q=0.9","8s2tryubtmknavp","60","[""White""]","No","Female","909588.6999999881","null","","<p></p>","null","choice","dct","repulsion_2","1","laptops","null","null","null","null","null","null","2","","","","","","","","","",""
"","","","","","choice_trial","survey-html-form","117","734154","0.0-5.0-1.16","86","1","2025-04-11 14:37:13","bb671e3ae32f654b8954ea4c4635f915","","Mozilla/5.0 (Windows NT 10.0; Win64; x64) AppleWebKit/537.36 (KHTML, like Gecko) Chrome/135.0.0.0 Safari/537.36 Edg/135.0.0.0","WebKit","Edge","135.0.0.0","Windows","10.0","https://hz8g1ckzuq.cognition.run/","en-US,en;q=0.9","8s2tryubtmknavp","60","[""White""]","No","Female","909588.6999999881","3764","","","{""product_choice"":""C""}","choice","dct","repulsion_2","1","laptops","null","null","null","null","null","null","2","100","90","100","30","40","20","Processing speed","Memory (RAM)","",""
"","","","","","choice_trial_setup","html-keyboard-response","118","734457","0.0-5.0-0.17","86","1","2025-04-11 14:37:13","bb671e3ae32f654b8954ea4c4635f915","","Mozilla/5.0 (Windows NT 10.0; Win64; x64) AppleWebKit/537.36 (KHTML, like Gecko) Chrome/135.0.0.0 Safari/537.36 Edg/135.0.0.0","WebKit","Edge","135.0.0.0","Windows","10.0","https://hz8g1ckzuq.cognition.run/","en-US,en;q=0.9","8s2tryubtmknavp","60","[""White""]","No","Female","909588.6999999881","null","","<p></p>","null","choice","wbw","catch","null","laptops","90","90","25","5","20","40","1","","","","","","","","","",""
"","","","","","choice_trial","survey-html-form","119","737580","0.0-5.0-1.17","86","1","2025-04-11 14:37:13","bb671e3ae32f654b8954ea4c4635f915","","Mozilla/5.0 (Windows NT 10.0; Win64; x64) AppleWebKit/537.36 (KHTML, like Gecko) Chrome/135.0.0.0 Safari/537.36 Edg/135.0.0.0","WebKit","Edge","135.0.0.0","Windows","10.0","https://hz8g1ckzuq.cognition.run/","en-US,en;q=0.9","8s2tryubtmknavp","60","[""White""]","No","Female","909588.6999999881","3120","","","{""product_choice"":""B""}","choice","wbw","catch","null","laptops","90","90","25","5","20","40","1","null","null","null","null","null","null","Processing speed","Memory (RAM)","",""
"","","","","","choice_trial_setup","html-keyboard-response","120","737883","0.0-5.0-0.18","86","1","2025-04-11 14:37:13","bb671e3ae32f654b8954ea4c4635f915","","Mozilla/5.0 (Windows NT 10.0; Win64; x64) AppleWebKit/537.36 (KHTML, like Gecko) Chrome/135.0.0.0 Safari/537.36 Edg/135.0.0.0","WebKit","Edge","135.0.0.0","Windows","10.0","https://hz8g1ckzuq.cognition.run/","en-US,en;q=0.9","8s2tryubtmknavp","60","[""White""]","No","Female","909588.6999999881","null","","<p></p>","null","choice","cdt","attraction_2","1","televisions","null","null","null","null","null","null","1","","","","","","","","","",""
"","","","","","choice_trial","survey-html-form","121","742570","0.0-5.0-1.18","86","1","2025-04-11 14:37:13","bb671e3ae32f654b8954ea4c4635f915","","Mozilla/5.0 (Windows NT 10.0; Win64; x64) AppleWebKit/537.36 (KHTML, like Gecko) Chrome/135.0.0.0 Safari/537.36 Edg/135.0.0.0","WebKit","Edge","135.0.0.0","Windows","10.0","https://hz8g1ckzuq.cognition.run/","en-US,en;q=0.9","8s2tryubtmknavp","60","[""White""]","No","Female","909588.6999999881","4684","","","{""product_choice"":""C""}","choice","cdt","attraction_2","1","televisions","null","null","null","null","null","null","1","60","50","60","50","60","40","Screen size","Average lifespan","",""
"","","","","","choice_trial_setup","html-keyboard-response","122","742874","0.0-5.0-0.19","86","1","2025-04-11 14:37:13","bb671e3ae32f654b8954ea4c4635f915","","Mozilla/5.0 (Windows NT 10.0; Win64; x64) AppleWebKit/537.36 (KHTML, like Gecko) Chrome/135.0.0.0 Safari/537.36 Edg/135.0.0.0","WebKit","Edge","135.0.0.0","Windows","10.0","https://hz8g1ckzuq.cognition.run/","en-US,en;q=0.9","8s2tryubtmknavp","60","[""White""]","No","Female","909588.6999999881","null","","<p></p>","null","choice","tcd","repulsion_1","2","televisions","null","null","null","null","null","null","2","","","","","","","","","",""
"","","","","","choice_trial","survey-html-form","123","746362","0.0-5.0-1.19","86","1","2025-04-11 14:37:13","bb671e3ae32f654b8954ea4c4635f915","","Mozilla/5.0 (Windows NT 10.0; Win64; x64) AppleWebKit/537.36 (KHTML, like Gecko) Chrome/135.0.0.0 Safari/537.36 Edg/135.0.0.0","WebKit","Edge","135.0.0.0","Windows","10.0","https://hz8g1ckzuq.cognition.run/","en-US,en;q=0.9","8s2tryubtmknavp","60","[""White""]","No","Female","909588.6999999881","3485","","","{""product_choice"":""B""}","choice","tcd","repulsion_1","2","televisions","null","null","null","null","null","null","2","30","40","25","100","90","100","Screen size","Average lifespan","",""
"","","","","","choice_trial_setup","html-keyboard-response","124","746665","0.0-5.0-0.20","86","1","2025-04-11 14:37:13","bb671e3ae32f654b8954ea4c4635f915","","Mozilla/5.0 (Windows NT 10.0; Win64; x64) AppleWebKit/537.36 (KHTML, like Gecko) Chrome/135.0.0.0 Safari/537.36 Edg/135.0.0.0","WebKit","Edge","135.0.0.0","Windows","10.0","https://hz8g1ckzuq.cognition.run/","en-US,en;q=0.9","8s2tryubtmknavp","60","[""White""]","No","Female","909588.6999999881","null","","<p></p>","null","choice","wbw","catch","null","microwave ovens","60","80","10","50","15","20","2","","","","","","","","","",""
"","","","","","choice_trial","survey-html-form","125","755889","0.0-5.0-1.20","86","1","2025-04-11 14:37:13","bb671e3ae32f654b8954ea4c4635f915","","Mozilla/5.0 (Windows NT 10.0; Win64; x64) AppleWebKit/537.36 (KHTML, like Gecko) Chrome/135.0.0.0 Safari/537.36 Edg/135.0.0.0","WebKit","Edge","135.0.0.0","Windows","10.0","https://hz8g1ckzuq.cognition.run/","en-US,en;q=0.9","8s2tryubtmknavp","60","[""White""]","No","Female","909588.6999999881","9221","","","{""product_choice"":""B""}","choice","wbw","catch","null","microwave ovens","60","80","10","50","15","20","2","null","null","null","null","null","null","Warranty","Cooking power","",""
"","","","","","choice_trial_setup","html-keyboard-response","126","756193","0.0-5.0-0.21","86","1","2025-04-11 14:37:13","bb671e3ae32f654b8954ea4c4635f915","","Mozilla/5.0 (Windows NT 10.0; Win64; x64) AppleWebKit/537.36 (KHTML, like Gecko) Chrome/135.0.0.0 Safari/537.36 Edg/135.0.0.0","WebKit","Edge","135.0.0.0","Windows","10.0","https://hz8g1ckzuq.cognition.run/","en-US,en;q=0.9","8s2tryubtmknavp","60","[""White""]","No","Female","909588.6999999881","null","","<p></p>","null","choice","dtc","repulsion_1","1","televisions","null","null","null","null","null","null","2","","","","","","","","","",""
"","","","","","choice_trial","survey-html-form","127","759910","0.0-5.0-1.21","86","1","2025-04-11 14:37:13","bb671e3ae32f654b8954ea4c4635f915","","Mozilla/5.0 (Windows NT 10.0; Win64; x64) AppleWebKit/537.36 (KHTML, like Gecko) Chrome/135.0.0.0 Safari/537.36 Edg/135.0.0.0","WebKit","Edge","135.0.0.0","Windows","10.0","https://hz8g1ckzuq.cognition.run/","en-US,en;q=0.9","8s2tryubtmknavp","60","[""White""]","No","Female","909588.6999999881","3714","","","{""product_choice"":""B""}","choice","dtc","repulsion_1","1","televisions","null","null","null","null","null","null","2","100","90","100","30","40","25","Screen size","Average lifespan","",""
"","","","","","choice_trial_setup","html-keyboard-response","128","760228","0.0-5.0-0.22","86","1","2025-04-11 14:37:13","bb671e3ae32f654b8954ea4c4635f915","","Mozilla/5.0 (Windows NT 10.0; Win64; x64) AppleWebKit/537.36 (KHTML, like Gecko) Chrome/135.0.0.0 Safari/537.36 Edg/135.0.0.0","WebKit","Edge","135.0.0.0","Windows","10.0","https://hz8g1ckzuq.cognition.run/","en-US,en;q=0.9","8s2tryubtmknavp","60","[""White""]","No","Female","909588.6999999881","null","","<p></p>","null","choice","dtc","attraction_1","2","microwave ovens","null","null","null","null","null","null","1","","","","","","","","","",""
"","","","","","choice_trial","survey-html-form","129","763738","0.0-5.0-1.22","86","1","2025-04-11 14:37:13","bb671e3ae32f654b8954ea4c4635f915","","Mozilla/5.0 (Windows NT 10.0; Win64; x64) AppleWebKit/537.36 (KHTML, like Gecko) Chrome/135.0.0.0 Safari/537.36 Edg/135.0.0.0","WebKit","Edge","135.0.0.0","Windows","10.0","https://hz8g1ckzuq.cognition.run/","en-US,en;q=0.9","8s2tryubtmknavp","60","[""White""]","No","Female","909588.6999999881","3507","","","{""product_choice"":""B""}","choice","dtc","attraction_1","2","microwave ovens","null","null","null","null","null","null","1","50","60","45","60","50","60","Warranty","Cooking power","",""
"","","","","","choice_trial_setup","html-keyboard-response","130","764041","0.0-5.0-0.23","86","1","2025-04-11 14:37:13","bb671e3ae32f654b8954ea4c4635f915","","Mozilla/5.0 (Windows NT 10.0; Win64; x64) AppleWebKit/537.36 (KHTML, like Gecko) Chrome/135.0.0.0 Safari/537.36 Edg/135.0.0.0","WebKit","Edge","135.0.0.0","Windows","10.0","https://hz8g1ckzuq.cognition.run/","en-US,en;q=0.9","8s2tryubtmknavp","60","[""White""]","No","Female","909588.6999999881","null","","<p></p>","null","choice","tcd","attraction_1","2","televisions","null","null","null","null","null","null","2","","","","","","","","","",""
"","","","","","choice_trial","survey-html-form","131","769800","0.0-5.0-1.23","86","1","2025-04-11 14:37:13","bb671e3ae32f654b8954ea4c4635f915","","Mozilla/5.0 (Windows NT 10.0; Win64; x64) AppleWebKit/537.36 (KHTML, like Gecko) Chrome/135.0.0.0 Safari/537.36 Edg/135.0.0.0","WebKit","Edge","135.0.0.0","Windows","10.0","https://hz8g1ckzuq.cognition.run/","en-US,en;q=0.9","8s2tryubtmknavp","60","[""White""]","No","Female","909588.6999999881","5756","","","{""product_choice"":""B""}","choice","tcd","attraction_1","2","televisions","null","null","null","null","null","null","2","50","60","45","60","50","60","Screen size","Average lifespan","",""
"","","","","","choice_trial_setup","html-keyboard-response","132","770104","0.0-5.0-0.24","86","1","2025-04-11 14:37:13","bb671e3ae32f654b8954ea4c4635f915","","Mozilla/5.0 (Windows NT 10.0; Win64; x64) AppleWebKit/537.36 (KHTML, like Gecko) Chrome/135.0.0.0 Safari/537.36 Edg/135.0.0.0","WebKit","Edge","135.0.0.0","Windows","10.0","https://hz8g1ckzuq.cognition.run/","en-US,en;q=0.9","8s2tryubtmknavp","60","[""White""]","No","Female","909588.6999999881","null","","<p></p>","null","choice","tdc","repulsion_1","2","washing machines","null","null","null","null","null","null","1","","","","","","","","","",""
"","","","","","choice_trial","survey-html-form","133","773379","0.0-5.0-1.24","86","1","2025-04-11 14:37:13","bb671e3ae32f654b8954ea4c4635f915","","Mozilla/5.0 (Windows NT 10.0; Win64; x64) AppleWebKit/537.36 (KHTML, like Gecko) Chrome/135.0.0.0 Safari/537.36 Edg/135.0.0.0","WebKit","Edge","135.0.0.0","Windows","10.0","https://hz8g1ckzuq.cognition.run/","en-US,en;q=0.9","8s2tryubtmknavp","60","[""White""]","No","Female","909588.6999999881","3273","","","{""product_choice"":""C""}","choice","tdc","repulsion_1","2","washing machines","null","null","null","null","null","null","1","30","40","25","100","90","100","Average lifespan","Energy savings","",""
"","","","","","choice_trial_setup","html-keyboard-response","134","773682","0.0-5.0-0.25","86","1","2025-04-11 14:37:13","bb671e3ae32f654b8954ea4c4635f915","","Mozilla/5.0 (Windows NT 10.0; Win64; x64) AppleWebKit/537.36 (KHTML, like Gecko) Chrome/135.0.0.0 Safari/537.36 Edg/135.0.0.0","WebKit","Edge","135.0.0.0","Windows","10.0","https://hz8g1ckzuq.cognition.run/","en-US,en;q=0.9","8s2tryubtmknavp","60","[""White""]","No","Female","909588.6999999881","null","","<p></p>","null","choice","ctd","attraction_1","1","laptops","null","null","null","null","null","null","1","","","","","","","","","",""
"","","","","","choice_trial","survey-html-form","135","776660","0.0-5.0-1.25","86","1","2025-04-11 14:37:13","bb671e3ae32f654b8954ea4c4635f915","","Mozilla/5.0 (Windows NT 10.0; Win64; x64) AppleWebKit/537.36 (KHTML, like Gecko) Chrome/135.0.0.0 Safari/537.36 Edg/135.0.0.0","WebKit","Edge","135.0.0.0","Windows","10.0","https://hz8g1ckzuq.cognition.run/","en-US,en;q=0.9","8s2tryubtmknavp","60","[""White""]","No","Female","909588.6999999881","2975","","","{""product_choice"":""B""}","choice","ctd","attraction_1","1","laptops","null","null","null","null","null","null","1","60","50","60","50","60","45","Processing speed","Memory (RAM)","",""
"","","","","","choice_trial_setup","html-keyboard-response","136","776964","0.0-5.0-0.26","86","1","2025-04-11 14:37:13","bb671e3ae32f654b8954ea4c4635f915","","Mozilla/5.0 (Windows NT 10.0; Win64; x64) AppleWebKit/537.36 (KHTML, like Gecko) Chrome/135.0.0.0 Safari/537.36 Edg/135.0.0.0","WebKit","Edge","135.0.0.0","Windows","10.0","https://hz8g1ckzuq.cognition.run/","en-US,en;q=0.9","8s2tryubtmknavp","60","[""White""]","No","Female","909588.6999999881","null","","<p></p>","null","choice","ctd","repulsion_2","2","washing machines","null","null","null","null","null","null","1","","","","","","","","","",""
"","","","","","choice_trial","survey-html-form","137","781386","0.0-5.0-1.26","86","1","2025-04-11 14:37:13","bb671e3ae32f654b8954ea4c4635f915","","Mozilla/5.0 (Windows NT 10.0; Win64; x64) AppleWebKit/537.36 (KHTML, like Gecko) Chrome/135.0.0.0 Safari/537.36 Edg/135.0.0.0","WebKit","Edge","135.0.0.0","Windows","10.0","https://hz8g1ckzuq.cognition.run/","en-US,en;q=0.9","8s2tryubtmknavp","60","[""White""]","No","Female","909588.6999999881","4419","","","{""product_choice"":""A""}","choice","ctd","repulsion_2","2","washing machines","null","null","null","null","null","null","1","30","40","20","100","90","100","Average lifespan","Energy savings","",""
"","","","","","choice_trial_setup","html-keyboard-response","138","781690","0.0-5.0-0.27","86","1","2025-04-11 14:37:13","bb671e3ae32f654b8954ea4c4635f915","","Mozilla/5.0 (Windows NT 10.0; Win64; x64) AppleWebKit/537.36 (KHTML, like Gecko) Chrome/135.0.0.0 Safari/537.36 Edg/135.0.0.0","WebKit","Edge","135.0.0.0","Windows","10.0","https://hz8g1ckzuq.cognition.run/","en-US,en;q=0.9","8s2tryubtmknavp","60","[""White""]","No","Female","909588.6999999881","null","","<p></p>","null","choice","wbw","catch","null","laptops","85","75","5","25","15","35","1","","","","","","","","","",""
"","","","","","choice_trial","survey-html-form","139","790198","0.0-5.0-1.27","86","1","2025-04-11 14:37:13","bb671e3ae32f654b8954ea4c4635f915","","Mozilla/5.0 (Windows NT 10.0; Win64; x64) AppleWebKit/537.36 (KHTML, like Gecko) Chrome/135.0.0.0 Safari/537.36 Edg/135.0.0.0","WebKit","Edge","135.0.0.0","Windows","10.0","https://hz8g1ckzuq.cognition.run/","en-US,en;q=0.9","8s2tryubtmknavp","60","[""White""]","No","Female","909588.6999999881","8505","","","{""product_choice"":""B""}","choice","wbw","catch","null","laptops","85","75","5","25","15","35","1","null","null","null","null","null","null","Processing speed","Memory (RAM)","",""
"","","","","","choice_trial_setup","html-keyboard-response","140","790501","0.0-5.0-0.28","86","1","2025-04-11 14:37:13","bb671e3ae32f654b8954ea4c4635f915","","Mozilla/5.0 (Windows NT 10.0; Win64; x64) AppleWebKit/537.36 (KHTML, like Gecko) Chrome/135.0.0.0 Safari/537.36 Edg/135.0.0.0","WebKit","Edge","135.0.0.0","Windows","10.0","https://hz8g1ckzuq.cognition.run/","en-US,en;q=0.9","8s2tryubtmknavp","60","[""White""]","No","Female","909588.6999999881","null","","<p></p>","null","choice","tdc","repulsion_2","2","televisions","null","null","null","null","null","null","2","","","","","","","","","",""
"","","","","","choice_trial","survey-html-form","141","794636","0.0-5.0-1.28","86","1","2025-04-11 14:37:13","bb671e3ae32f654b8954ea4c4635f915","","Mozilla/5.0 (Windows NT 10.0; Win64; x64) AppleWebKit/537.36 (KHTML, like Gecko) Chrome/135.0.0.0 Safari/537.36 Edg/135.0.0.0","WebKit","Edge","135.0.0.0","Windows","10.0","https://hz8g1ckzuq.cognition.run/","en-US,en;q=0.9","8s2tryubtmknavp","60","[""White""]","No","Female","909588.6999999881","4132","","","{""product_choice"":""C""}","choice","tdc","repulsion_2","2","televisions","null","null","null","null","null","null","2","30","40","20","100","90","100","Screen size","Average lifespan","",""
"","","","","","choice_trial_setup","html-keyboard-response","142","794940","0.0-5.0-0.29","86","1","2025-04-11 14:37:13","bb671e3ae32f654b8954ea4c4635f915","","Mozilla/5.0 (Windows NT 10.0; Win64; x64) AppleWebKit/537.36 (KHTML, like Gecko) Chrome/135.0.0.0 Safari/537.36 Edg/135.0.0.0","WebKit","Edge","135.0.0.0","Windows","10.0","https://hz8g1ckzuq.cognition.run/","en-US,en;q=0.9","8s2tryubtmknavp","60","[""White""]","No","Female","909588.6999999881","null","","<p></p>","null","choice","ctd","attraction_2","1","microwave ovens","null","null","null","null","null","null","2","","","","","","","","","",""
"","","","","","choice_trial","survey-html-form","143","799630","0.0-5.0-1.29","86","1","2025-04-11 14:37:13","bb671e3ae32f654b8954ea4c4635f915","","Mozilla/5.0 (Windows NT 10.0; Win64; x64) AppleWebKit/537.36 (KHTML, like Gecko) Chrome/135.0.0.0 Safari/537.36 Edg/135.0.0.0","WebKit","Edge","135.0.0.0","Windows","10.0","https://hz8g1ckzuq.cognition.run/","en-US,en;q=0.9","8s2tryubtmknavp","60","[""White""]","No","Female","909588.6999999881","4687","","","{""product_choice"":""A""}","choice","ctd","attraction_2","1","microwave ovens","null","null","null","null","null","null","2","60","50","60","50","60","40","Warranty","Cooking power","",""
"","","","","","choice_trial_setup","html-keyboard-response","144","799933","0.0-5.0-0.30","86","1","2025-04-11 14:37:13","bb671e3ae32f654b8954ea4c4635f915","","Mozilla/5.0 (Windows NT 10.0; Win64; x64) AppleWebKit/537.36 (KHTML, like Gecko) Chrome/135.0.0.0 Safari/537.36 Edg/135.0.0.0","WebKit","Edge","135.0.0.0","Windows","10.0","https://hz8g1ckzuq.cognition.run/","en-US,en;q=0.9","8s2tryubtmknavp","60","[""White""]","No","Female","909588.6999999881","null","","<p></p>","null","choice","bww","catch","null","washing machines","55","60","35","5","50","35","1","","","","","","","","","",""
"","","","","","choice_trial","survey-html-form","145","806272","0.0-5.0-1.30","86","1","2025-04-11 14:37:13","bb671e3ae32f654b8954ea4c4635f915","","Mozilla/5.0 (Windows NT 10.0; Win64; x64) AppleWebKit/537.36 (KHTML, like Gecko) Chrome/135.0.0.0 Safari/537.36 Edg/135.0.0.0","WebKit","Edge","135.0.0.0","Windows","10.0","https://hz8g1ckzuq.cognition.run/","en-US,en;q=0.9","8s2tryubtmknavp","60","[""White""]","No","Female","909588.6999999881","6335","","","{""product_choice"":""A""}","choice","bww","catch","null","washing machines","55","60","35","5","50","35","1","null","null","null","null","null","null","Average lifespan","Energy savings","",""
"","","","","","choice_trial_setup","html-keyboard-response","146","806575","0.0-5.0-0.31","86","1","2025-04-11 14:37:13","bb671e3ae32f654b8954ea4c4635f915","","Mozilla/5.0 (Windows NT 10.0; Win64; x64) AppleWebKit/537.36 (KHTML, like Gecko) Chrome/135.0.0.0 Safari/537.36 Edg/135.0.0.0","WebKit","Edge","135.0.0.0","Windows","10.0","https://hz8g1ckzuq.cognition.run/","en-US,en;q=0.9","8s2tryubtmknavp","60","[""White""]","No","Female","909588.6999999881","null","","<p></p>","null","choice","dtc","attraction_2","2","laptops","null","null","null","null","null","null","1","","","","","","","","","",""
"","","","","","choice_trial","survey-html-form","147","809414","0.0-5.0-1.31","86","1","2025-04-11 14:37:13","bb671e3ae32f654b8954ea4c4635f915","","Mozilla/5.0 (Windows NT 10.0; Win64; x64) AppleWebKit/537.36 (KHTML, like Gecko) Chrome/135.0.0.0 Safari/537.36 Edg/135.0.0.0","WebKit","Edge","135.0.0.0","Windows","10.0","https://hz8g1ckzuq.cognition.run/","en-US,en;q=0.9","8s2tryubtmknavp","60","[""White""]","No","Female","909588.6999999881","2835","","","{""product_choice"":""C""}","choice","dtc","attraction_2","2","laptops","null","null","null","null","null","null","1","50","60","40","60","50","60","Processing speed","Memory (RAM)","",""
"","","","","","choice_trial_setup","html-keyboard-response","148","809718","0.0-5.0-0.32","86","1","2025-04-11 14:37:13","bb671e3ae32f654b8954ea4c4635f915","","Mozilla/5.0 (Windows NT 10.0; Win64; x64) AppleWebKit/537.36 (KHTML, like Gecko) Chrome/135.0.0.0 Safari/537.36 Edg/135.0.0.0","WebKit","Edge","135.0.0.0","Windows","10.0","https://hz8g1ckzuq.cognition.run/","en-US,en;q=0.9","8s2tryubtmknavp","60","[""White""]","No","Female","909588.6999999881","null","","<p></p>","null","choice","ctd","attraction_1","1","washing machines","null","null","null","null","null","null","2","","","","","","","","","",""
"","","","","","choice_trial","survey-html-form","149","813762","0.0-5.0-1.32","86","1","2025-04-11 14:37:13","bb671e3ae32f654b8954ea4c4635f915","","Mozilla/5.0 (Windows NT 10.0; Win64; x64) AppleWebKit/537.36 (KHTML, like Gecko) Chrome/135.0.0.0 Safari/537.36 Edg/135.0.0.0","WebKit","Edge","135.0.0.0","Windows","10.0","https://hz8g1ckzuq.cognition.run/","en-US,en;q=0.9","8s2tryubtmknavp","60","[""White""]","No","Female","909588.6999999881","4041","","","{""product_choice"":""B""}","choice","ctd","attraction_1","1","washing machines","null","null","null","null","null","null","2","60","50","60","50","60","45","Average lifespan","Energy savings","",""
"","","","","","choice_trial_setup","html-keyboard-response","150","814065","0.0-5.0-0.33","86","1","2025-04-11 14:37:13","bb671e3ae32f654b8954ea4c4635f915","","Mozilla/5.0 (Windows NT 10.0; Win64; x64) AppleWebKit/537.36 (KHTML, like Gecko) Chrome/135.0.0.0 Safari/537.36 Edg/135.0.0.0","WebKit","Edge","135.0.0.0","Windows","10.0","https://hz8g1ckzuq.cognition.run/","en-US,en;q=0.9","8s2tryubtmknavp","60","[""White""]","No","Female","909588.6999999881","null","","<p></p>","null","choice","wbw","catch","null","washing machines","55","60","15","20","5","45","1","","","","","","","","","",""
"","","","","","choice_trial","survey-html-form","151","817347","0.0-5.0-1.33","86","1","2025-04-11 14:37:13","bb671e3ae32f654b8954ea4c4635f915","","Mozilla/5.0 (Windows NT 10.0; Win64; x64) AppleWebKit/537.36 (KHTML, like Gecko) Chrome/135.0.0.0 Safari/537.36 Edg/135.0.0.0","WebKit","Edge","135.0.0.0","Windows","10.0","https://hz8g1ckzuq.cognition.run/","en-US,en;q=0.9","8s2tryubtmknavp","60","[""White""]","No","Female","909588.6999999881","3279","","","{""product_choice"":""B""}","choice","wbw","catch","null","washing machines","55","60","15","20","5","45","1","null","null","null","null","null","null","Average lifespan","Energy savings","",""
"","","","","","choice_trial_setup","html-keyboard-response","152","817652","0.0-5.0-0.34","86","1","2025-04-11 14:37:13","bb671e3ae32f654b8954ea4c4635f915","","Mozilla/5.0 (Windows NT 10.0; Win64; x64) AppleWebKit/537.36 (KHTML, like Gecko) Chrome/135.0.0.0 Safari/537.36 Edg/135.0.0.0","WebKit","Edge","135.0.0.0","Windows","10.0","https://hz8g1ckzuq.cognition.run/","en-US,en;q=0.9","8s2tryubtmknavp","60","[""White""]","No","Female","909588.6999999881","null","","<p></p>","null","choice","dtc","repulsion_2","1","washing machines","null","null","null","null","null","null","2","","","","","","","","","",""
"","","","","","choice_trial","survey-html-form","153","820476","0.0-5.0-1.34","86","1","2025-04-11 14:37:13","bb671e3ae32f654b8954ea4c4635f915","","Mozilla/5.0 (Windows NT 10.0; Win64; x64) AppleWebKit/537.36 (KHTML, like Gecko) Chrome/135.0.0.0 Safari/537.36 Edg/135.0.0.0","WebKit","Edge","135.0.0.0","Windows","10.0","https://hz8g1ckzuq.cognition.run/","en-US,en;q=0.9","8s2tryubtmknavp","60","[""White""]","No","Female","909588.6999999881","2820","","","{""product_choice"":""B""}","choice","dtc","repulsion_2","1","washing machines","null","null","null","null","null","null","2","100","90","100","30","40","20","Average lifespan","Energy savings","",""
"","","","","","choice_trial_setup","html-keyboard-response","154","820780","0.0-5.0-0.35","86","1","2025-04-11 14:37:13","bb671e3ae32f654b8954ea4c4635f915","","Mozilla/5.0 (Windows NT 10.0; Win64; x64) AppleWebKit/537.36 (KHTML, like Gecko) Chrome/135.0.0.0 Safari/537.36 Edg/135.0.0.0","WebKit","Edge","135.0.0.0","Windows","10.0","https://hz8g1ckzuq.cognition.run/","en-US,en;q=0.9","8s2tryubtmknavp","60","[""White""]","No","Female","909588.6999999881","null","","<p></p>","null","choice","tcd","repulsion_2","1","microwave ovens","null","null","null","null","null","null","1","","","","","","","","","",""
