"success","timeout","failed_images","failed_audio","failed_video","screen_id","trial_type","trial_index","time_elapsed","internal_node_id","run_id","condition","recorded_at","source_code_version","ip","user_agent","device","browser","browser_version","platform","platform_version","referer","accept_language","ppt_id","age","race","ethnicity","gender","exp_duration","rt","view_history","stimulus","response","phase","order","effect","t_high","category","d1_best","d2_best","d1_worst1","d2_worst1","d1_worst2","d2_worst2","first_dim","d1_t","d1_c","d1_d","d2_t","d2_c","d2_d","d1_name","d2_name","strategy_response","question_order"
"true","false","[]","[]","[]","img preload","preload","0","5310","0.0-0.0","87","1","2025-04-11 14:37:16","bb671e3ae32f654b8954ea4c4635f915","","Mozilla/5.0 (Windows NT 10.0; Win64; x64) AppleWebKit/537.36 (KHTML, like Gecko) Chrome/130.0.0.0 Safari/537.36","WebKit","Chrome","130.0.0.0","Windows","10.0","https://hz8g1ckzuq.cognition.run/","en,en-US;q=0.9","dt157yj28cwmu29","28","[""White""]","No","Female","4499543.5","","","","","","","","","","","","","","","","","","","","","","","","","",""
"true","","","","","","fullscreen","1","9714","0.0-1.0","87","1","2025-04-11 14:37:16","bb671e3ae32f654b8954ea4c4635f915","","Mozilla/5.0 (Windows NT 10.0; Win64; x64) AppleWebKit/537.36 (KHTML, like Gecko) Chrome/130.0.0.0 Safari/537.36","WebKit","Chrome","130.0.0.0","Windows","10.0","https://hz8g1ckzuq.cognition.run/","en,en-US;q=0.9","dt157yj28cwmu29","28","[""White""]","No","Female","4499543.5","3398","","","","","","","","","","","","","","","","","","","","","","","","",""
"","","","","","","instructions","2","262237","0.0-2.0","87","1","2025-04-11 14:37:16","bb671e3ae32f654b8954ea4c4635f915","","Mozilla/5.0 (Windows NT 10.0; Win64; x64) AppleWebKit/537.36 (KHTML, like Gecko) Chrome/130.0.0.0 Safari/537.36","WebKit","Chrome","130.0.0.0","Windows","10.0","https://hz8g1ckzuq.cognition.run/","en,en-US;q=0.9","dt157yj28cwmu29","28","[""White""]","No","Female","4499543.5","252523","[{""page_index"":0,""viewing_time"":4029},{""page_index"":1,""viewing_time"":5952},{""page_index"":2,""viewing_time"":4752},{""page_index"":3,""viewing_time"":4162},{""page_index"":2,""viewing_time"":47534},{""page_index"":3,""viewing_time"":22534},{""page_index"":4,""viewing_time"":22514},{""page_index"":5,""viewing_time"":48502},{""page_index"":6,""viewing_time"":41504},{""page_index"":7,""viewing_time"":37984},{""page_index"":8,""viewing_time"":9325},{""page_index"":9,""viewing_time"":3731}]","","","","","","","","","","","","","","","","","","","","","","","",""
"","","","","","rating_trial_setup","html-keyboard-response","3","262541","0.0-3.0-0.0","87","1","2025-04-11 14:37:16","bb671e3ae32f654b8954ea4c4635f915","","Mozilla/5.0 (Windows NT 10.0; Win64; x64) AppleWebKit/537.36 (KHTML, like Gecko) Chrome/130.0.0.0 Safari/537.36","WebKit","Chrome","130.0.0.0","Windows","10.0","https://hz8g1ckzuq.cognition.run/","en,en-US;q=0.9","dt157yj28cwmu29","28","[""White""]","No","Female","4499543.5","null","","<p></p>","null","rating","tdc","repulsion_1","1","microwave ovens","null","null","null","null","null","null","1","","","","","","","","","",""
"","","","","","rating_trial","survey-html-form","4","413098","0.0-3.0-1.0","87","1","2025-04-11 14:37:16","bb671e3ae32f654b8954ea4c4635f915","","Mozilla/5.0 (Windows NT 10.0; Win64; x64) AppleWebKit/537.36 (KHTML, like Gecko) Chrome/130.0.0.0 Safari/537.36","WebKit","Chrome","130.0.0.0","Windows","10.0","https://hz8g1ckzuq.cognition.run/","en,en-US;q=0.9","dt157yj28cwmu29","28","[""White""]","No","Female","4499543.5","150554","","","{""price_1"":""300"",""price_2"":""250"",""price_3"":""350""}","rating","tdc","repulsion_1","1","microwave ovens","null","null","null","null","null","null","1","100","90","100","30","40","25","Warranty","Cooking power","",""
"","","","","","rating_trial_setup","html-keyboard-response","5","413401","0.0-3.0-0.1","87","1","2025-04-11 14:37:16","bb671e3ae32f654b8954ea4c4635f915","","Mozilla/5.0 (Windows NT 10.0; Win64; x64) AppleWebKit/537.36 (KHTML, like Gecko) Chrome/130.0.0.0 Safari/537.36","WebKit","Chrome","130.0.0.0","Windows","10.0","https://hz8g1ckzuq.cognition.run/","en,en-US;q=0.9","dt157yj28cwmu29","28","[""White""]","No","Female","4499543.5","null","","<p></p>","null","rating","ctd","attraction_1","1","televisions","null","null","null","null","null","null","2","","","","","","","","","",""
"","","","","","rating_trial","survey-html-form","6","626119","0.0-3.0-1.1","87","1","2025-04-11 14:37:16","bb671e3ae32f654b8954ea4c4635f915","","Mozilla/5.0 (Windows NT 10.0; Win64; x64) AppleWebKit/537.36 (KHTML, like Gecko) Chrome/130.0.0.0 Safari/537.36","WebKit","Chrome","130.0.0.0","Windows","10.0","https://hz8g1ckzuq.cognition.run/","en,en-US;q=0.9","dt157yj28cwmu29","28","[""White""]","No","Female","4499543.5","212716","","","{""price_1"":""500"",""price_2"":""500"",""price_3"":""450""}","rating","ctd","attraction_1","1","televisions","null","null","null","null","null","null","2","60","50","60","50","60","45","Screen size","Average lifespan","",""
"","","","","","rating_trial_setup","html-keyboard-response","7","626422","0.0-3.0-0.2","87","1","2025-04-11 14:37:16","bb671e3ae32f654b8954ea4c4635f915","","Mozilla/5.0 (Windows NT 10.0; Win64; x64) AppleWebKit/537.36 (KHTML, like Gecko) Chrome/130.0.0.0 Safari/537.36","WebKit","Chrome","130.0.0.0","Windows","10.0","https://hz8g1ckzuq.cognition.run/","en,en-US;q=0.9","dt157yj28cwmu29","28","[""White""]","No","Female","4499543.5","null","","<p></p>","null","rating","cdt","repulsion_1","1","televisions","null","null","null","null","null","null","2","","","","","","","","","",""
"","","","","","rating_trial","survey-html-form","8","724914","0.0-3.0-1.2","87","1","2025-04-11 14:37:16","bb671e3ae32f654b8954ea4c4635f915","","Mozilla/5.0 (Windows NT 10.0; Win64; x64) AppleWebKit/537.36 (KHTML, like Gecko) Chrome/130.0.0.0 Safari/537.36","WebKit","Chrome","130.0.0.0","Windows","10.0","https://hz8g1ckzuq.cognition.run/","en,en-US;q=0.9","dt157yj28cwmu29","28","[""White""]","No","Female","4499543.5","98490","","","{""price_1"":""1300"",""price_2"":""1300"",""price_3"":""1500""}","rating","cdt","repulsion_1","1","televisions","null","null","null","null","null","null","2","100","90","100","30","40","25","Screen size","Average lifespan","",""
"","","","","","rating_trial_setup","html-keyboard-response","9","725217","0.0-3.0-0.3","87","1","2025-04-11 14:37:16","bb671e3ae32f654b8954ea4c4635f915","","Mozilla/5.0 (Windows NT 10.0; Win64; x64) AppleWebKit/537.36 (KHTML, like Gecko) Chrome/130.0.0.0 Safari/537.36","WebKit","Chrome","130.0.0.0","Windows","10.0","https://hz8g1ckzuq.cognition.run/","en,en-US;q=0.9","dt157yj28cwmu29","28","[""White""]","No","Female","4499543.5","null","","<p></p>","null","rating","dct","attraction_1","1","microwave ovens","null","null","null","null","null","null","1","","","","","","","","","",""
"","","","","","rating_trial","survey-html-form","10","1063932","0.0-3.0-1.3","87","1","2025-04-11 14:37:16","bb671e3ae32f654b8954ea4c4635f915","","Mozilla/5.0 (Windows NT 10.0; Win64; x64) AppleWebKit/537.36 (KHTML, like Gecko) Chrome/130.0.0.0 Safari/537.36","WebKit","Chrome","130.0.0.0","Windows","10.0","https://hz8g1ckzuq.cognition.run/","en,en-US;q=0.9","dt157yj28cwmu29","28","[""White""]","No","Female","4499543.5","338713","","","{""price_1"":""315"",""price_2"":""330"",""price_3"":""330""}","rating","dct","attraction_1","1","microwave ovens","null","null","null","null","null","null","1","60","50","60","50","60","45","Warranty","Cooking power","",""
"","","","","","rating_trial_setup","html-keyboard-response","11","1064236","0.0-3.0-0.4","87","1","2025-04-11 14:37:16","bb671e3ae32f654b8954ea4c4635f915","","Mozilla/5.0 (Windows NT 10.0; Win64; x64) AppleWebKit/537.36 (KHTML, like Gecko) Chrome/130.0.0.0 Safari/537.36","WebKit","Chrome","130.0.0.0","Windows","10.0","https://hz8g1ckzuq.cognition.run/","en,en-US;q=0.9","dt157yj28cwmu29","28","[""White""]","No","Female","4499543.5","null","","<p></p>","null","rating","bww","catch","null","microwave ovens","90","90","25","35","5","10","1","","","","","","","","","",""
"","","","","","rating_trial","survey-html-form","12","1217940","0.0-3.0-1.4","87","1","2025-04-11 14:37:16","bb671e3ae32f654b8954ea4c4635f915","","Mozilla/5.0 (Windows NT 10.0; Win64; x64) AppleWebKit/537.36 (KHTML, like Gecko) Chrome/130.0.0.0 Safari/537.36","WebKit","Chrome","130.0.0.0","Windows","10.0","https://hz8g1ckzuq.cognition.run/","en,en-US;q=0.9","dt157yj28cwmu29","28","[""White""]","No","Female","4499543.5","153703","","","{""price_1"":""540"",""price_2"":""180"",""price_3"":""45""}","rating","bww","catch","null","microwave ovens","90","90","25","35","5","10","1","null","null","null","null","null","null","Warranty","Cooking power","",""
"","","","","","rating_trial_setup","html-keyboard-response","13","1218243","0.0-3.0-0.5","87","1","2025-04-11 14:37:16","bb671e3ae32f654b8954ea4c4635f915","","Mozilla/5.0 (Windows NT 10.0; Win64; x64) AppleWebKit/537.36 (KHTML, like Gecko) Chrome/130.0.0.0 Safari/537.36","WebKit","Chrome","130.0.0.0","Windows","10.0","https://hz8g1ckzuq.cognition.run/","en,en-US;q=0.9","dt157yj28cwmu29","28","[""White""]","No","Female","4499543.5","null","","<p></p>","null","rating","dtc","repulsion_1","2","microwave ovens","null","null","null","null","null","null","1","","","","","","","","","",""
"","","","","","rating_trial","survey-html-form","14","1297594","0.0-3.0-1.5","87","1","2025-04-11 14:37:16","bb671e3ae32f654b8954ea4c4635f915","","Mozilla/5.0 (Windows NT 10.0; Win64; x64) AppleWebKit/537.36 (KHTML, like Gecko) Chrome/130.0.0.0 Safari/537.36","WebKit","Chrome","130.0.0.0","Windows","10.0","https://hz8g1ckzuq.cognition.run/","en,en-US;q=0.9","dt157yj28cwmu29","28","[""White""]","No","Female","4499543.5","79347","","","{""price_1"":""375"",""price_2"":""390"",""price_3"":""390""}","rating","dtc","repulsion_1","2","microwave ovens","null","null","null","null","null","null","1","30","40","25","100","90","100","Warranty","Cooking power","",""
"","","","","","rating_trial_setup","html-keyboard-response","15","1297897","0.0-3.0-0.6","87","1","2025-04-11 14:37:16","bb671e3ae32f654b8954ea4c4635f915","","Mozilla/5.0 (Windows NT 10.0; Win64; x64) AppleWebKit/537.36 (KHTML, like Gecko) Chrome/130.0.0.0 Safari/537.36","WebKit","Chrome","130.0.0.0","Windows","10.0","https://hz8g1ckzuq.cognition.run/","en,en-US;q=0.9","dt157yj28cwmu29","28","[""White""]","No","Female","4499543.5","null","","<p></p>","null","rating","wwb","catch","null","laptops","75","60","10","25","20","45","1","","","","","","","","","",""
"","","","","","rating_trial","survey-html-form","16","1740992","0.0-3.0-1.6","87","1","2025-04-11 14:37:16","bb671e3ae32f654b8954ea4c4635f915","","Mozilla/5.0 (Windows NT 10.0; Win64; x64) AppleWebKit/537.36 (KHTML, like Gecko) Chrome/130.0.0.0 Safari/537.36","WebKit","Chrome","130.0.0.0","Windows","10.0","https://hz8g1ckzuq.cognition.run/","en,en-US;q=0.9","dt157yj28cwmu29","28","[""White""]","No","Female","4499543.5","443093","","","{""price_1"":""1050"",""price_2"":""1950"",""price_3"":""4050""}","rating","wwb","catch","null","laptops","75","60","10","25","20","45","1","null","null","null","null","null","null","Processing speed","Memory (RAM)","",""
"","","","","","rating_trial_setup","html-keyboard-response","17","1741296","0.0-3.0-0.7","87","1","2025-04-11 14:37:16","bb671e3ae32f654b8954ea4c4635f915","","Mozilla/5.0 (Windows NT 10.0; Win64; x64) AppleWebKit/537.36 (KHTML, like Gecko) Chrome/130.0.0.0 Safari/537.36","WebKit","Chrome","130.0.0.0","Windows","10.0","https://hz8g1ckzuq.cognition.run/","en,en-US;q=0.9","dt157yj28cwmu29","28","[""White""]","No","Female","4499543.5","null","","<p></p>","null","rating","cdt","attraction_2","1","laptops","null","null","null","null","null","null","1","","","","","","","","","",""
"","","","","","rating_trial","survey-html-form","18","1774469","0.0-3.0-1.7","87","1","2025-04-11 14:37:16","bb671e3ae32f654b8954ea4c4635f915","","Mozilla/5.0 (Windows NT 10.0; Win64; x64) AppleWebKit/537.36 (KHTML, like Gecko) Chrome/130.0.0.0 Safari/537.36","WebKit","Chrome","130.0.0.0","Windows","10.0","https://hz8g1ckzuq.cognition.run/","en,en-US;q=0.9","dt157yj28cwmu29","28","[""White""]","No","Female","4499543.5","33171","","","{""price_1"":""3300"",""price_2"":""3000"",""price_3"":""3300""}","rating","cdt","attraction_2","1","laptops","null","null","null","null","null","null","1","60","50","60","50","60","40","Processing speed","Memory (RAM)","",""
"","","","","","rating_trial_setup","html-keyboard-response","19","1774773","0.0-3.0-0.8","87","1","2025-04-11 14:37:16","bb671e3ae32f654b8954ea4c4635f915","","Mozilla/5.0 (Windows NT 10.0; Win64; x64) AppleWebKit/537.36 (KHTML, like Gecko) Chrome/130.0.0.0 Safari/537.36","WebKit","Chrome","130.0.0.0","Windows","10.0","https://hz8g1ckzuq.cognition.run/","en,en-US;q=0.9","dt157yj28cwmu29","28","[""White""]","No","Female","4499543.5","null","","<p></p>","null","rating","dct","repulsion_2","2","televisions","null","null","null","null","null","null","2","","","","","","","","","",""
"","","","","","rating_trial","survey-html-form","20","1936965","0.0-3.0-1.8","87","1","2025-04-11 14:37:16","bb671e3ae32f654b8954ea4c4635f915","","Mozilla/5.0 (Windows NT 10.0; Win64; x64) AppleWebKit/537.36 (KHTML, like Gecko) Chrome/130.0.0.0 Safari/537.36","WebKit","Chrome","130.0.0.0","Windows","10.0","https://hz8g1ckzuq.cognition.run/","en,en-US;q=0.9","dt157yj28cwmu29","28","[""White""]","No","Female","4499543.5","162187","","","{""price_1"":""4800"",""price_2"":""5200"",""price_3"":""5200""}","rating","dct","repulsion_2","2","televisions","null","null","null","null","null","null","2","30","40","20","100","90","100","Screen size","Average lifespan","",""
"","","","","","rating_trial_setup","html-keyboard-response","21","1937269","0.0-3.0-0.9","87","1","2025-04-11 14:37:16","bb671e3ae32f654b8954ea4c4635f915","","Mozilla/5.0 (Windows NT 10.0; Win64; x64) AppleWebKit/537.36 (KHTML, like Gecko) Chrome/130.0.0.0 Safari/537.36","WebKit","Chrome","130.0.0.0","Windows","10.0","https://hz8g1ckzuq.cognition.run/","en,en-US;q=0.9","dt157yj28cwmu29","28","[""White""]","No","Female","4499543.5","null","","<p></p>","null","rating","tdc","repulsion_2","1","washing machines","null","null","null","null","null","null","1","","","","","","","","","",""
"","","","","","rating_trial","survey-html-form","22","2100556","0.0-3.0-1.9","87","1","2025-04-11 14:37:16","bb671e3ae32f654b8954ea4c4635f915","","Mozilla/5.0 (Windows NT 10.0; Win64; x64) AppleWebKit/537.36 (KHTML, like Gecko) Chrome/130.0.0.0 Safari/537.36","WebKit","Chrome","130.0.0.0","Windows","10.0","https://hz8g1ckzuq.cognition.run/","en,en-US;q=0.9","dt157yj28cwmu29","28","[""White""]","No","Female","4499543.5","163284","","","{""price_1"":""496"",""price_2"":""458"",""price_3"":""496""}","rating","tdc","repulsion_2","1","washing machines","null","null","null","null","null","null","1","100","90","100","30","40","20","Average lifespan","Energy savings","",""
"","","","","","rating_trial_setup","html-keyboard-response","23","2100859","0.0-3.0-0.10","87","1","2025-04-11 14:37:16","bb671e3ae32f654b8954ea4c4635f915","","Mozilla/5.0 (Windows NT 10.0; Win64; x64) AppleWebKit/537.36 (KHTML, like Gecko) Chrome/130.0.0.0 Safari/537.36","WebKit","Chrome","130.0.0.0","Windows","10.0","https://hz8g1ckzuq.cognition.run/","en,en-US;q=0.9","dt157yj28cwmu29","28","[""White""]","No","Female","4499543.5","null","","<p></p>","null","rating","wbw","catch","null","microwave ovens","80","75","40","5","45","50","2","","","","","","","","","",""
"","","","","","rating_trial","survey-html-form","24","2304837","0.0-3.0-1.10","87","1","2025-04-11 14:37:16","bb671e3ae32f654b8954ea4c4635f915","","Mozilla/5.0 (Windows NT 10.0; Win64; x64) AppleWebKit/537.36 (KHTML, like Gecko) Chrome/130.0.0.0 Safari/537.36","WebKit","Chrome","130.0.0.0","Windows","10.0","https://hz8g1ckzuq.cognition.run/","en,en-US;q=0.9","dt157yj28cwmu29","28","[""White""]","No","Female","4499543.5","203974","","","{""price_1"":""113"",""price_2"":""389"",""price_3"":""238""}","rating","wbw","catch","null","microwave ovens","80","75","40","5","45","50","2","null","null","null","null","null","null","Warranty","Cooking power","",""
"","","","","","rating_trial_setup","html-keyboard-response","25","2305141","0.0-3.0-0.11","87","1","2025-04-11 14:37:16","bb671e3ae32f654b8954ea4c4635f915","","Mozilla/5.0 (Windows NT 10.0; Win64; x64) AppleWebKit/537.36 (KHTML, like Gecko) Chrome/130.0.0.0 Safari/537.36","WebKit","Chrome","130.0.0.0","Windows","10.0","https://hz8g1ckzuq.cognition.run/","en,en-US;q=0.9","dt157yj28cwmu29","28","[""White""]","No","Female","4499543.5","null","","<p></p>","null","rating","dct","attraction_2","1","microwave ovens","null","null","null","null","null","null","2","","","","","","","","","",""
"","","","","","rating_trial","survey-html-form","26","2437786","0.0-3.0-1.11","87","1","2025-04-11 14:37:16","bb671e3ae32f654b8954ea4c4635f915","","Mozilla/5.0 (Windows NT 10.0; Win64; x64) AppleWebKit/537.36 (KHTML, like Gecko) Chrome/130.0.0.0 Safari/537.36","WebKit","Chrome","130.0.0.0","Windows","10.0","https://hz8g1ckzuq.cognition.run/","en,en-US;q=0.9","dt157yj28cwmu29","28","[""White""]","No","Female","4499543.5","132642","","","{""price_1"":""250"",""price_2"":""275"",""price_3"":""275""}","rating","dct","attraction_2","1","microwave ovens","null","null","null","null","null","null","2","60","50","60","50","60","40","Warranty","Cooking power","",""
"","","","","","rating_trial_setup","html-keyboard-response","27","2438090","0.0-3.0-0.12","87","1","2025-04-11 14:37:16","bb671e3ae32f654b8954ea4c4635f915","","Mozilla/5.0 (Windows NT 10.0; Win64; x64) AppleWebKit/537.36 (KHTML, like Gecko) Chrome/130.0.0.0 Safari/537.36","WebKit","Chrome","130.0.0.0","Windows","10.0","https://hz8g1ckzuq.cognition.run/","en,en-US;q=0.9","dt157yj28cwmu29","28","[""White""]","No","Female","4499543.5","null","","<p></p>","null","rating","dct","repulsion_2","1","laptops","null","null","null","null","null","null","1","","","","","","","","","",""
"","","","","","rating_trial","survey-html-form","28","2528740","0.0-3.0-1.12","87","1","2025-04-11 14:37:16","bb671e3ae32f654b8954ea4c4635f915","","Mozilla/5.0 (Windows NT 10.0; Win64; x64) AppleWebKit/537.36 (KHTML, like Gecko) Chrome/130.0.0.0 Safari/537.36","WebKit","Chrome","130.0.0.0","Windows","10.0","https://hz8g1ckzuq.cognition.run/","en,en-US;q=0.9","dt157yj28cwmu29","28","[""White""]","No","Female","4499543.5","90648","","","{""price_1"":""1800"",""price_2"":""1950"",""price_3"":""1950""}","rating","dct","repulsion_2","1","laptops","null","null","null","null","null","null","1","100","90","100","30","40","20","Processing speed","Memory (RAM)","",""
"","","","","","rating_trial_setup","html-keyboard-response","29","2529043","0.0-3.0-0.13","87","1","2025-04-11 14:37:16","bb671e3ae32f654b8954ea4c4635f915","","Mozilla/5.0 (Windows NT 10.0; Win64; x64) AppleWebKit/537.36 (KHTML, like Gecko) Chrome/130.0.0.0 Safari/537.36","WebKit","Chrome","130.0.0.0","Windows","10.0","https://hz8g1ckzuq.cognition.run/","en,en-US;q=0.9","dt157yj28cwmu29","28","[""White""]","No","Female","4499543.5","null","","<p></p>","null","rating","dtc","repulsion_2","2","microwave ovens","null","null","null","null","null","null","1","","","","","","","","","",""
"","","","","","rating_trial","survey-html-form","30","2577522","0.0-3.0-1.13","87","1","2025-04-11 14:37:16","bb671e3ae32f654b8954ea4c4635f915","","Mozilla/5.0 (Windows NT 10.0; Win64; x64) AppleWebKit/537.36 (KHTML, like Gecko) Chrome/130.0.0.0 Safari/537.36","WebKit","Chrome","130.0.0.0","Windows","10.0","https://hz8g1ckzuq.cognition.run/","en,en-US;q=0.9","dt157yj28cwmu29","28","[""White""]","No","Female","4499543.5","48476","","","{""price_1"":""300"",""price_2"":""325"",""price_3"":""325""}","rating","dtc","repulsion_2","2","microwave ovens","null","null","null","null","null","null","1","30","40","20","100","90","100","Warranty","Cooking power","",""
"","","","","","rating_trial_setup","html-keyboard-response","31","2577826","0.0-3.0-0.14","87","1","2025-04-11 14:37:16","bb671e3ae32f654b8954ea4c4635f915","","Mozilla/5.0 (Windows NT 10.0; Win64; x64) AppleWebKit/537.36 (KHTML, like Gecko) Chrome/130.0.0.0 Safari/537.36","WebKit","Chrome","130.0.0.0","Windows","10.0","https://hz8g1ckzuq.cognition.run/","en,en-US;q=0.9","dt157yj28cwmu29","28","[""White""]","No","Female","4499543.5","null","","<p></p>","null","rating","wbw","catch","null","televisions","70","70","35","5","25","20","2","","","","","","","","","",""
"","","","","","rating_trial","survey-html-form","32","2708971","0.0-3.0-1.14","87","1","2025-04-11 14:37:16","bb671e3ae32f654b8954ea4c4635f915","","Mozilla/5.0 (Windows NT 10.0; Win64; x64) AppleWebKit/537.36 (KHTML, like Gecko) Chrome/130.0.0.0 Safari/537.36","WebKit","Chrome","130.0.0.0","Windows","10.0","https://hz8g1ckzuq.cognition.run/","en,en-US;q=0.9","dt157yj28cwmu29","28","[""White""]","No","Female","4499543.5","131144","","","{""price_1"":""800"",""price_2"":""2800"",""price_3"":""900""}","rating","wbw","catch","null","televisions","70","70","35","5","25","20","2","null","null","null","null","null","null","Screen size","Average lifespan","",""
"","","","","","rating_trial_setup","html-keyboard-response","33","2709276","0.0-3.0-0.15","87","1","2025-04-11 14:37:16","bb671e3ae32f654b8954ea4c4635f915","","Mozilla/5.0 (Windows NT 10.0; Win64; x64) AppleWebKit/537.36 (KHTML, like Gecko) Chrome/130.0.0.0 Safari/537.36","WebKit","Chrome","130.0.0.0","Windows","10.0","https://hz8g1ckzuq.cognition.run/","en,en-US;q=0.9","dt157yj28cwmu29","28","[""White""]","No","Female","4499543.5","null","","<p></p>","null","rating","wbw","catch","null","laptops","55","55","50","5","30","40","1","","","","","","","","","",""
"","","","","","rating_trial","survey-html-form","34","2766117","0.0-3.0-1.15","87","1","2025-04-11 14:37:16","bb671e3ae32f654b8954ea4c4635f915","","Mozilla/5.0 (Windows NT 10.0; Win64; x64) AppleWebKit/537.36 (KHTML, like Gecko) Chrome/130.0.0.0 Safari/537.36","WebKit","Chrome","130.0.0.0","Windows","10.0","https://hz8g1ckzuq.cognition.run/","en,en-US;q=0.9","dt157yj28cwmu29","28","[""White""]","No","Female","4499543.5","56839","","","{""price_1"":""825"",""price_2"":""1650"",""price_3"":""1050""}","rating","wbw","catch","null","laptops","55","55","50","5","30","40","1","null","null","null","null","null","null","Processing speed","Memory (RAM)","",""
"","","","","","rating_trial_setup","html-keyboard-response","35","2766421","0.0-3.0-0.16","87","1","2025-04-11 14:37:16","bb671e3ae32f654b8954ea4c4635f915","","Mozilla/5.0 (Windows NT 10.0; Win64; x64) AppleWebKit/537.36 (KHTML, like Gecko) Chrome/130.0.0.0 Safari/537.36","WebKit","Chrome","130.0.0.0","Windows","10.0","https://hz8g1ckzuq.cognition.run/","en,en-US;q=0.9","dt157yj28cwmu29","28","[""White""]","No","Female","4499543.5","null","","<p></p>","null","rating","ctd","attraction_1","2","laptops","null","null","null","null","null","null","1","","","","","","","","","",""
"","","","","","rating_trial","survey-html-form","36","2822699","0.0-3.0-1.16","87","1","2025-04-11 14:37:16","bb671e3ae32f654b8954ea4c4635f915","","Mozilla/5.0 (Windows NT 10.0; Win64; x64) AppleWebKit/537.36 (KHTML, like Gecko) Chrome/130.0.0.0 Safari/537.36","WebKit","Chrome","130.0.0.0","Windows","10.0","https://hz8g1ckzuq.cognition.run/","en,en-US;q=0.9","dt157yj28cwmu29","28","[""White""]","No","Female","4499543.5","56277","","","{""price_1"":""1650"",""price_2"":""1650"",""price_3"":""1575""}","rating","ctd","attraction_1","2","laptops","null","null","null","null","null","null","1","50","60","45","60","50","60","Processing speed","Memory (RAM)","",""
"","","","","","rating_trial_setup","html-keyboard-response","37","2823002","0.0-3.0-0.17","87","1","2025-04-11 14:37:16","bb671e3ae32f654b8954ea4c4635f915","","Mozilla/5.0 (Windows NT 10.0; Win64; x64) AppleWebKit/537.36 (KHTML, like Gecko) Chrome/130.0.0.0 Safari/537.36","WebKit","Chrome","130.0.0.0","Windows","10.0","https://hz8g1ckzuq.cognition.run/","en,en-US;q=0.9","dt157yj28cwmu29","28","[""White""]","No","Female","4499543.5","null","","<p></p>","null","rating","tdc","attraction_2","1","washing machines","null","null","null","null","null","null","2","","","","","","","","","",""
"","","","","","rating_trial","survey-html-form","38","2892828","0.0-3.0-1.17","87","1","2025-04-11 14:37:16","bb671e3ae32f654b8954ea4c4635f915","","Mozilla/5.0 (Windows NT 10.0; Win64; x64) AppleWebKit/537.36 (KHTML, like Gecko) Chrome/130.0.0.0 Safari/537.36","WebKit","Chrome","130.0.0.0","Windows","10.0","https://hz8g1ckzuq.cognition.run/","en,en-US;q=0.9","dt157yj28cwmu29","28","[""White""]","No","Female","4499543.5","69822","","","{""price_1"":""420"",""price_2"":""381"",""price_3"":""420""}","rating","tdc","attraction_2","1","washing machines","null","null","null","null","null","null","2","60","50","60","50","60","40","Average lifespan","Energy savings","",""
"","","","","","rating_trial_setup","html-keyboard-response","39","2893131","0.0-3.0-0.18","87","1","2025-04-11 14:37:16","bb671e3ae32f654b8954ea4c4635f915","","Mozilla/5.0 (Windows NT 10.0; Win64; x64) AppleWebKit/537.36 (KHTML, like Gecko) Chrome/130.0.0.0 Safari/537.36","WebKit","Chrome","130.0.0.0","Windows","10.0","https://hz8g1ckzuq.cognition.run/","en,en-US;q=0.9","dt157yj28cwmu29","28","[""White""]","No","Female","4499543.5","null","","<p></p>","null","rating","cdt","attraction_2","2","televisions","null","null","null","null","null","null","1","","","","","","","","","",""
"","","","","","rating_trial","survey-html-form","40","2928013","0.0-3.0-1.18","87","1","2025-04-11 14:37:16","bb671e3ae32f654b8954ea4c4635f915","","Mozilla/5.0 (Windows NT 10.0; Win64; x64) AppleWebKit/537.36 (KHTML, like Gecko) Chrome/130.0.0.0 Safari/537.36","WebKit","Chrome","130.0.0.0","Windows","10.0","https://hz8g1ckzuq.cognition.run/","en,en-US;q=0.9","dt157yj28cwmu29","28","[""White""]","No","Female","4499543.5","34879","","","{""price_1"":""2200"",""price_2"":""2000"",""price_3"":""2200""}","rating","cdt","attraction_2","2","televisions","null","null","null","null","null","null","1","50","60","40","60","50","60","Screen size","Average lifespan","",""
"","","","","","rating_trial_setup","html-keyboard-response","41","2928317","0.0-3.0-0.19","87","1","2025-04-11 14:37:16","bb671e3ae32f654b8954ea4c4635f915","","Mozilla/5.0 (Windows NT 10.0; Win64; x64) AppleWebKit/537.36 (KHTML, like Gecko) Chrome/130.0.0.0 Safari/537.36","WebKit","Chrome","130.0.0.0","Windows","10.0","https://hz8g1ckzuq.cognition.run/","en,en-US;q=0.9","dt157yj28cwmu29","28","[""White""]","No","Female","4499543.5","null","","<p></p>","null","rating","tdc","attraction_1","2","televisions","null","null","null","null","null","null","2","","","","","","","","","",""
"","","","","","rating_trial","survey-html-form","42","2987363","0.0-3.0-1.19","87","1","2025-04-11 14:37:16","bb671e3ae32f654b8954ea4c4635f915","","Mozilla/5.0 (Windows NT 10.0; Win64; x64) AppleWebKit/537.36 (KHTML, like Gecko) Chrome/130.0.0.0 Safari/537.36","WebKit","Chrome","130.0.0.0","Windows","10.0","https://hz8g1ckzuq.cognition.run/","en,en-US;q=0.9","dt157yj28cwmu29","28","[""White""]","No","Female","4499543.5","59044","","","{""price_1"":""2200"",""price_2"":""2100"",""price_3"":""2200""}","rating","tdc","attraction_1","2","televisions","null","null","null","null","null","null","2","50","60","45","60","50","60","Screen size","Average lifespan","",""
"","","","","","rating_trial_setup","html-keyboard-response","43","2987667","0.0-3.0-0.20","87","1","2025-04-11 14:37:16","bb671e3ae32f654b8954ea4c4635f915","","Mozilla/5.0 (Windows NT 10.0; Win64; x64) AppleWebKit/537.36 (KHTML, like Gecko) Chrome/130.0.0.0 Safari/537.36","WebKit","Chrome","130.0.0.0","Windows","10.0","https://hz8g1ckzuq.cognition.run/","en,en-US;q=0.9","dt157yj28cwmu29","28","[""White""]","No","Female","4499543.5","null","","<p></p>","null","rating","ctd","repulsion_1","1","laptops","null","null","null","null","null","null","1","","","","","","","","","",""
"","","","","","rating_trial","survey-html-form","44","3036823","0.0-3.0-1.20","87","1","2025-04-11 14:37:16","bb671e3ae32f654b8954ea4c4635f915","","Mozilla/5.0 (Windows NT 10.0; Win64; x64) AppleWebKit/537.36 (KHTML, like Gecko) Chrome/130.0.0.0 Safari/537.36","WebKit","Chrome","130.0.0.0","Windows","10.0","https://hz8g1ckzuq.cognition.run/","en,en-US;q=0.9","dt157yj28cwmu29","28","[""White""]","No","Female","4499543.5","49154","","","{""price_1"":""1950"",""price_2"":""1950"",""price_3"":""1875""}","rating","ctd","repulsion_1","1","laptops","null","null","null","null","null","null","1","100","90","100","30","40","25","Processing speed","Memory (RAM)","",""
"","","","","","rating_trial_setup","html-keyboard-response","45","3037128","0.0-3.0-0.21","87","1","2025-04-11 14:37:16","bb671e3ae32f654b8954ea4c4635f915","","Mozilla/5.0 (Windows NT 10.0; Win64; x64) AppleWebKit/537.36 (KHTML, like Gecko) Chrome/130.0.0.0 Safari/537.36","WebKit","Chrome","130.0.0.0","Windows","10.0","https://hz8g1ckzuq.cognition.run/","en,en-US;q=0.9","dt157yj28cwmu29","28","[""White""]","No","Female","4499543.5","null","","<p></p>","null","rating","dct","attraction_2","1","televisions","null","null","null","null","null","null","1","","","","","","","","","",""
"","","","","","rating_trial","survey-html-form","46","3067657","0.0-3.0-1.21","87","1","2025-04-11 14:37:16","bb671e3ae32f654b8954ea4c4635f915","","Mozilla/5.0 (Windows NT 10.0; Win64; x64) AppleWebKit/537.36 (KHTML, like Gecko) Chrome/130.0.0.0 Safari/537.36","WebKit","Chrome","130.0.0.0","Windows","10.0","https://hz8g1ckzuq.cognition.run/","en,en-US;q=0.9","dt157yj28cwmu29","28","[""White""]","No","Female","4499543.5","30527","","","{""price_1"":""2000"",""price_2"":""2200"",""price_3"":""2200""}","rating","dct","attraction_2","1","televisions","null","null","null","null","null","null","1","60","50","60","50","60","40","Screen size","Average lifespan","",""
"","","","","","rating_trial_setup","html-keyboard-response","47","3067960","0.0-3.0-0.22","87","1","2025-04-11 14:37:16","bb671e3ae32f654b8954ea4c4635f915","","Mozilla/5.0 (Windows NT 10.0; Win64; x64) AppleWebKit/537.36 (KHTML, like Gecko) Chrome/130.0.0.0 Safari/537.36","WebKit","Chrome","130.0.0.0","Windows","10.0","https://hz8g1ckzuq.cognition.run/","en,en-US;q=0.9","dt157yj28cwmu29","28","[""White""]","No","Female","4499543.5","null","","<p></p>","null","rating","tdc","attraction_2","2","microwave ovens","null","null","null","null","null","null","1","","","","","","","","","",""
"","","","","","rating_trial","survey-html-form","48","3098958","0.0-3.0-1.22","87","1","2025-04-11 14:37:16","bb671e3ae32f654b8954ea4c4635f915","","Mozilla/5.0 (Windows NT 10.0; Win64; x64) AppleWebKit/537.36 (KHTML, like Gecko) Chrome/130.0.0.0 Safari/537.36","WebKit","Chrome","130.0.0.0","Windows","10.0","https://hz8g1ckzuq.cognition.run/","en,en-US;q=0.9","dt157yj28cwmu29","28","[""White""]","No","Female","4499543.5","30996","","","{""price_1"":""275"",""price_2"":""250"",""price_3"":""275""}","rating","tdc","attraction_2","2","microwave ovens","null","null","null","null","null","null","1","50","60","40","60","50","60","Warranty","Cooking power","",""
"","","","","","rating_trial_setup","html-keyboard-response","49","3099262","0.0-3.0-0.23","87","1","2025-04-11 14:37:16","bb671e3ae32f654b8954ea4c4635f915","","Mozilla/5.0 (Windows NT 10.0; Win64; x64) AppleWebKit/537.36 (KHTML, like Gecko) Chrome/130.0.0.0 Safari/537.36","WebKit","Chrome","130.0.0.0","Windows","10.0","https://hz8g1ckzuq.cognition.run/","en,en-US;q=0.9","dt157yj28cwmu29","28","[""White""]","No","Female","4499543.5","null","","<p></p>","null","rating","wbw","catch","null","televisions","50","95","35","40","25","35","1","","","","","","","","","",""
"","","","","","rating_trial","survey-html-form","50","3157814","0.0-3.0-1.23","87","1","2025-04-11 14:37:16","bb671e3ae32f654b8954ea4c4635f915","","Mozilla/5.0 (Windows NT 10.0; Win64; x64) AppleWebKit/537.36 (KHTML, like Gecko) Chrome/130.0.0.0 Safari/537.36","WebKit","Chrome","130.0.0.0","Windows","10.0","https://hz8g1ckzuq.cognition.run/","en,en-US;q=0.9","dt157yj28cwmu29","28","[""White""]","No","Female","4499543.5","58549","","","{""price_1"":""1500"",""price_2"":""2900"",""price_3"":""1200""}","rating","wbw","catch","null","televisions","50","95","35","40","25","35","1","null","null","null","null","null","null","Screen size","Average lifespan","",""
"","","","","","rating_trial_setup","html-keyboard-response","51","3158118","0.0-3.0-0.24","87","1","2025-04-11 14:37:16","bb671e3ae32f654b8954ea4c4635f915","","Mozilla/5.0 (Windows NT 10.0; Win64; x64) AppleWebKit/537.36 (KHTML, like Gecko) Chrome/130.0.0.0 Safari/537.36","WebKit","Chrome","130.0.0.0","Windows","10.0","https://hz8g1ckzuq.cognition.run/","en,en-US;q=0.9","dt157yj28cwmu29","28","[""White""]","No","Female","4499543.5","null","","<p></p>","null","rating","ctd","attraction_2","2","laptops","null","null","null","null","null","null","2","","","","","","","","","",""
"","","","","","rating_trial","survey-html-form","52","3191151","0.0-3.0-1.24","87","1","2025-04-11 14:37:16","bb671e3ae32f654b8954ea4c4635f915","","Mozilla/5.0 (Windows NT 10.0; Win64; x64) AppleWebKit/537.36 (KHTML, like Gecko) Chrome/130.0.0.0 Safari/537.36","WebKit","Chrome","130.0.0.0","Windows","10.0","https://hz8g1ckzuq.cognition.run/","en,en-US;q=0.9","dt157yj28cwmu29","28","[""White""]","No","Female","4499543.5","33031","","","{""price_1"":""1650"",""price_2"":""1650"",""price_3"":""1500""}","rating","ctd","attraction_2","2","laptops","null","null","null","null","null","null","2","50","60","40","60","50","60","Processing speed","Memory (RAM)","",""
"","","","","","rating_trial_setup","html-keyboard-response","53","3191455","0.0-3.0-0.25","87","1","2025-04-11 14:37:16","bb671e3ae32f654b8954ea4c4635f915","","Mozilla/5.0 (Windows NT 10.0; Win64; x64) AppleWebKit/537.36 (KHTML, like Gecko) Chrome/130.0.0.0 Safari/537.36","WebKit","Chrome","130.0.0.0","Windows","10.0","https://hz8g1ckzuq.cognition.run/","en,en-US;q=0.9","dt157yj28cwmu29","28","[""White""]","No","Female","4499543.5","null","","<p></p>","null","rating","bww","catch","null","washing machines","50","85","15","45","25","25","1","","","","","","","","","",""
"","","","","","rating_trial","survey-html-form","54","3255267","0.0-3.0-1.25","87","1","2025-04-11 14:37:16","bb671e3ae32f654b8954ea4c4635f915","","Mozilla/5.0 (Windows NT 10.0; Win64; x64) AppleWebKit/537.36 (KHTML, like Gecko) Chrome/130.0.0.0 Safari/537.36","WebKit","Chrome","130.0.0.0","Windows","10.0","https://hz8g1ckzuq.cognition.run/","en,en-US;q=0.9","dt157yj28cwmu29","28","[""White""]","No","Female","4499543.5","63809","","","{""price_1"":""515"",""price_2"":""229"",""price_3"":""191""}","rating","bww","catch","null","washing machines","50","85","15","45","25","25","1","null","null","null","null","null","null","Average lifespan","Energy savings","",""
"","","","","","rating_trial_setup","html-keyboard-response","55","3255581","0.0-3.0-0.26","87","1","2025-04-11 14:37:16","bb671e3ae32f654b8954ea4c4635f915","","Mozilla/5.0 (Windows NT 10.0; Win64; x64) AppleWebKit/537.36 (KHTML, like Gecko) Chrome/130.0.0.0 Safari/537.36","WebKit","Chrome","130.0.0.0","Windows","10.0","https://hz8g1ckzuq.cognition.run/","en,en-US;q=0.9","dt157yj28cwmu29","28","[""White""]","No","Female","4499543.5","null","","<p></p>","null","rating","dtc","repulsion_2","2","laptops","null","null","null","null","null","null","2","","","","","","","","","",""
"","","","","","rating_trial","survey-html-form","56","3308992","0.0-3.0-1.26","87","1","2025-04-11 14:37:16","bb671e3ae32f654b8954ea4c4635f915","","Mozilla/5.0 (Windows NT 10.0; Win64; x64) AppleWebKit/537.36 (KHTML, like Gecko) Chrome/130.0.0.0 Safari/537.36","WebKit","Chrome","130.0.0.0","Windows","10.0","https://hz8g1ckzuq.cognition.run/","en,en-US;q=0.9","dt157yj28cwmu29","28","[""White""]","No","Female","4499543.5","53408","","","{""price_1"":""1800"",""price_2"":""1950"",""price_3"":""1950""}","rating","dtc","repulsion_2","2","laptops","null","null","null","null","null","null","2","30","40","20","100","90","100","Processing speed","Memory (RAM)","",""
"","","","","","rating_trial_setup","html-keyboard-response","57","3309296","0.0-3.0-0.27","87","1","2025-04-11 14:37:16","bb671e3ae32f654b8954ea4c4635f915","","Mozilla/5.0 (Windows NT 10.0; Win64; x64) AppleWebKit/537.36 (KHTML, like Gecko) Chrome/130.0.0.0 Safari/537.36","WebKit","Chrome","130.0.0.0","Windows","10.0","https://hz8g1ckzuq.cognition.run/","en,en-US;q=0.9","dt157yj28cwmu29","28","[""White""]","No","Female","4499543.5","null","","<p></p>","null","rating","dct","attraction_1","2","microwave ovens","null","null","null","null","null","null","2","","","","","","","","","",""
"","","","","","rating_trial","survey-html-form","58","3352324","0.0-3.0-1.27","87","1","2025-04-11 14:37:16","bb671e3ae32f654b8954ea4c4635f915","","Mozilla/5.0 (Windows NT 10.0; Win64; x64) AppleWebKit/537.36 (KHTML, like Gecko) Chrome/130.0.0.0 Safari/537.36","WebKit","Chrome","130.0.0.0","Windows","10.0","https://hz8g1ckzuq.cognition.run/","en,en-US;q=0.9","dt157yj28cwmu29","28","[""White""]","No","Female","4499543.5","43025","","","{""price_1"":""263"",""price_2"":""275"",""price_3"":""275""}","rating","dct","attraction_1","2","microwave ovens","null","null","null","null","null","null","2","50","60","45","60","50","60","Warranty","Cooking power","",""
"","","","","","rating_trial_setup","html-keyboard-response","59","3352628","0.0-3.0-0.28","87","1","2025-04-11 14:37:16","bb671e3ae32f654b8954ea4c4635f915","","Mozilla/5.0 (Windows NT 10.0; Win64; x64) AppleWebKit/537.36 (KHTML, like Gecko) Chrome/130.0.0.0 Safari/537.36","WebKit","Chrome","130.0.0.0","Windows","10.0","https://hz8g1ckzuq.cognition.run/","en,en-US;q=0.9","dt157yj28cwmu29","28","[""White""]","No","Female","4499543.5","null","","<p></p>","null","rating","tcd","attraction_1","2","washing machines","null","null","null","null","null","null","2","","","","","","","","","",""
"","","","","","rating_trial","survey-html-form","60","3395257","0.0-3.0-1.28","87","1","2025-04-11 14:37:16","bb671e3ae32f654b8954ea4c4635f915","","Mozilla/5.0 (Windows NT 10.0; Win64; x64) AppleWebKit/537.36 (KHTML, like Gecko) Chrome/130.0.0.0 Safari/537.36","WebKit","Chrome","130.0.0.0","Windows","10.0","https://hz8g1ckzuq.cognition.run/","en,en-US;q=0.9","dt157yj28cwmu29","28","[""White""]","No","Female","4499543.5","42626","","","{""price_1"":""420"",""price_2"":""420"",""price_3"":""401""}","rating","tcd","attraction_1","2","washing machines","null","null","null","null","null","null","2","50","60","45","60","50","60","Average lifespan","Energy savings","",""
"","","","","","rating_trial_setup","html-keyboard-response","61","3395563","0.0-3.0-0.29","87","1","2025-04-11 14:37:16","bb671e3ae32f654b8954ea4c4635f915","","Mozilla/5.0 (Windows NT 10.0; Win64; x64) AppleWebKit/537.36 (KHTML, like Gecko) Chrome/130.0.0.0 Safari/537.36","WebKit","Chrome","130.0.0.0","Windows","10.0","https://hz8g1ckzuq.cognition.run/","en,en-US;q=0.9","dt157yj28cwmu29","28","[""White""]","No","Female","4499543.5","null","","<p></p>","null","rating","cdt","repulsion_2","2","washing machines","null","null","null","null","null","null","2","","","","","","","","","",""
"","","","","","rating_trial","survey-html-form","62","3445925","0.0-3.0-1.29","87","1","2025-04-11 14:37:16","bb671e3ae32f654b8954ea4c4635f915","","Mozilla/5.0 (Windows NT 10.0; Win64; x64) AppleWebKit/537.36 (KHTML, like Gecko) Chrome/130.0.0.0 Safari/537.36","WebKit","Chrome","130.0.0.0","Windows","10.0","https://hz8g1ckzuq.cognition.run/","en,en-US;q=0.9","dt157yj28cwmu29","28","[""White""]","No","Female","4499543.5","50358","","","{""price_1"":""496"",""price_2"":""458"",""price_3"":""496""}","rating","cdt","repulsion_2","2","washing machines","null","null","null","null","null","null","2","30","40","20","100","90","100","Average lifespan","Energy savings","",""
"","","","","","rating_trial_setup","html-keyboard-response","63","3446229","0.0-3.0-0.30","87","1","2025-04-11 14:37:16","bb671e3ae32f654b8954ea4c4635f915","","Mozilla/5.0 (Windows NT 10.0; Win64; x64) AppleWebKit/537.36 (KHTML, like Gecko) Chrome/130.0.0.0 Safari/537.36","WebKit","Chrome","130.0.0.0","Windows","10.0","https://hz8g1ckzuq.cognition.run/","en,en-US;q=0.9","dt157yj28cwmu29","28","[""White""]","No","Female","4499543.5","null","","<p></p>","null","rating","bww","catch","null","washing machines","95","85","30","25","40","35","1","","","","","","","","","",""
"","","","","","rating_trial","survey-html-form","64","3507998","0.0-3.0-1.30","87","1","2025-04-11 14:37:16","bb671e3ae32f654b8954ea4c4635f915","","Mozilla/5.0 (Windows NT 10.0; Win64; x64) AppleWebKit/537.36 (KHTML, like Gecko) Chrome/130.0.0.0 Safari/537.36","WebKit","Chrome","130.0.0.0","Windows","10.0","https://hz8g1ckzuq.cognition.run/","en,en-US;q=0.9","dt157yj28cwmu29","28","[""White""]","No","Female","4499543.5","61765","","","{""price_1"":""686"",""price_2"":""210"",""price_3"":""286""}","rating","bww","catch","null","washing machines","95","85","30","25","40","35","1","null","null","null","null","null","null","Average lifespan","Energy savings","",""
"","","","","","rating_trial_setup","html-keyboard-response","65","3508301","0.0-3.0-0.31","87","1","2025-04-11 14:37:16","bb671e3ae32f654b8954ea4c4635f915","","Mozilla/5.0 (Windows NT 10.0; Win64; x64) AppleWebKit/537.36 (KHTML, like Gecko) Chrome/130.0.0.0 Safari/537.36","WebKit","Chrome","130.0.0.0","Windows","10.0","https://hz8g1ckzuq.cognition.run/","en,en-US;q=0.9","dt157yj28cwmu29","28","[""White""]","No","Female","4499543.5","null","","<p></p>","null","rating","dct","repulsion_1","2","televisions","null","null","null","null","null","null","1","","","","","","","","","",""
"","","","","","rating_trial","survey-html-form","66","3549296","0.0-3.0-1.31","87","1","2025-04-11 14:37:16","bb671e3ae32f654b8954ea4c4635f915","","Mozilla/5.0 (Windows NT 10.0; Win64; x64) AppleWebKit/537.36 (KHTML, like Gecko) Chrome/130.0.0.0 Safari/537.36","WebKit","Chrome","130.0.0.0","Windows","10.0","https://hz8g1ckzuq.cognition.run/","en,en-US;q=0.9","dt157yj28cwmu29","28","[""White""]","No","Female","4499543.5","40992","","","{""price_1"":""2500"",""price_2"":""2600"",""price_3"":""2600""}","rating","dct","repulsion_1","2","televisions","null","null","null","null","null","null","1","30","40","25","100","90","100","Screen size","Average lifespan","",""
"","","","","","rating_trial_setup","html-keyboard-response","67","3549601","0.0-3.0-0.32","87","1","2025-04-11 14:37:16","bb671e3ae32f654b8954ea4c4635f915","","Mozilla/5.0 (Windows NT 10.0; Win64; x64) AppleWebKit/537.36 (KHTML, like Gecko) Chrome/130.0.0.0 Safari/537.36","WebKit","Chrome","130.0.0.0","Windows","10.0","https://hz8g1ckzuq.cognition.run/","en,en-US;q=0.9","dt157yj28cwmu29","28","[""White""]","No","Female","4499543.5","null","","<p></p>","null","rating","cdt","repulsion_1","2","washing machines","null","null","null","null","null","null","1","","","","","","","","","",""
"","","","","","rating_trial","survey-html-form","68","3592891","0.0-3.0-1.32","87","1","2025-04-11 14:37:16","bb671e3ae32f654b8954ea4c4635f915","","Mozilla/5.0 (Windows NT 10.0; Win64; x64) AppleWebKit/537.36 (KHTML, like Gecko) Chrome/130.0.0.0 Safari/537.36","WebKit","Chrome","130.0.0.0","Windows","10.0","https://hz8g1ckzuq.cognition.run/","en,en-US;q=0.9","dt157yj28cwmu29","28","[""White""]","No","Female","4499543.5","43287","","","{""price_1"":""496"",""price_2"":""477"",""price_3"":""496""}","rating","cdt","repulsion_1","2","washing machines","null","null","null","null","null","null","1","30","40","25","100","90","100","Average lifespan","Energy savings","",""
"","","","","","rating_trial_setup","html-keyboard-response","69","3593195","0.0-3.0-0.33","87","1","2025-04-11 14:37:16","bb671e3ae32f654b8954ea4c4635f915","","Mozilla/5.0 (Windows NT 10.0; Win64; x64) AppleWebKit/537.36 (KHTML, like Gecko) Chrome/130.0.0.0 Safari/537.36","WebKit","Chrome","130.0.0.0","Windows","10.0","https://hz8g1ckzuq.cognition.run/","en,en-US;q=0.9","dt157yj28cwmu29","28","[""White""]","No","Female","4499543.5","null","","<p></p>","null","rating","ctd","repulsion_2","1","televisions","null","null","null","null","null","null","2","","","","","","","","","",""
"","","","","","rating_trial","survey-html-form","70","3627063","0.0-3.0-1.33","87","1","2025-04-11 14:37:16","bb671e3ae32f654b8954ea4c4635f915","","Mozilla/5.0 (Windows NT 10.0; Win64; x64) AppleWebKit/537.36 (KHTML, like Gecko) Chrome/130.0.0.0 Safari/537.36","WebKit","Chrome","130.0.0.0","Windows","10.0","https://hz8g1ckzuq.cognition.run/","en,en-US;q=0.9","dt157yj28cwmu29","28","[""White""]","No","Female","4499543.5","33866","","","{""price_1"":""2600"",""price_2"":""2600"",""price_3"":""2400""}","rating","ctd","repulsion_2","1","televisions","null","null","null","null","null","null","2","100","90","100","30","40","20","Screen size","Average lifespan","",""
"","","","","","rating_trial_setup","html-keyboard-response","71","3627369","0.0-3.0-0.34","87","1","2025-04-11 14:37:16","bb671e3ae32f654b8954ea4c4635f915","","Mozilla/5.0 (Windows NT 10.0; Win64; x64) AppleWebKit/537.36 (KHTML, like Gecko) Chrome/130.0.0.0 Safari/537.36","WebKit","Chrome","130.0.0.0","Windows","10.0","https://hz8g1ckzuq.cognition.run/","en,en-US;q=0.9","dt157yj28cwmu29","28","[""White""]","No","Female","4499543.5","null","","<p></p>","null","rating","tdc","attraction_2","2","washing machines","null","null","null","null","null","null","1","","","","","","","","","",""
"","","","","","rating_trial","survey-html-form","72","3688558","0.0-3.0-1.34","87","1","2025-04-11 14:37:16","bb671e3ae32f654b8954ea4c4635f915","","Mozilla/5.0 (Windows NT 10.0; Win64; x64) AppleWebKit/537.36 (KHTML, like Gecko) Chrome/130.0.0.0 Safari/537.36","WebKit","Chrome","130.0.0.0","Windows","10.0","https://hz8g1ckzuq.cognition.run/","en,en-US;q=0.9","dt157yj28cwmu29","28","[""White""]","No","Female","4499543.5","61185","","","{""price_1"":""420"",""price_2"":""381"",""price_3"":""420""}","rating","tdc","attraction_2","2","washing machines","null","null","null","null","null","null","1","50","60","40","60","50","60","Average lifespan","Energy savings","",""
"","","","","","rating_trial_setup","html-keyboard-response","73","3688868","0.0-3.0-0.35","87","1","2025-04-11 14:37:16","bb671e3ae32f654b8954ea4c4635f915","","Mozilla/5.0 (Windows NT 10.0; Win64; x64) AppleWebKit/537.36 (KHTML, like Gecko) Chrome/130.0.0.0 Safari/537.36","WebKit","Chrome","130.0.0.0","Windows","10.0","https://hz8g1ckzuq.cognition.run/","en,en-US;q=0.9","dt157yj28cwmu29","28","[""White""]","No","Female","4499543.5","null","","<p></p>","null","rating","dct","repulsion_1","2","laptops","null","null","null","null","null","null","1","","","","","","","","","",""
"","","","","","rating_trial","survey-html-form","74","3737795","0.0-3.0-1.35","87","1","2025-04-11 14:37:16","bb671e3ae32f654b8954ea4c4635f915","","Mozilla/5.0 (Windows NT 10.0; Win64; x64) AppleWebKit/537.36 (KHTML, like Gecko) Chrome/130.0.0.0 Safari/537.36","WebKit","Chrome","130.0.0.0","Windows","10.0","https://hz8g1ckzuq.cognition.run/","en,en-US;q=0.9","dt157yj28cwmu29","28","[""White""]","No","Female","4499543.5","48924","","","{""price_1"":""1875"",""price_2"":""1950"",""price_3"":""1950""}","rating","dct","repulsion_1","2","laptops","null","null","null","null","null","null","1","30","40","25","100","90","100","Processing speed","Memory (RAM)","",""
"","","","","","rating_trial_setup","html-keyboard-response","75","3738107","0.0-3.0-0.36","87","1","2025-04-11 14:37:16","bb671e3ae32f654b8954ea4c4635f915","","Mozilla/5.0 (Windows NT 10.0; Win64; x64) AppleWebKit/537.36 (KHTML, like Gecko) Chrome/130.0.0.0 Safari/537.36","WebKit","Chrome","130.0.0.0","Windows","10.0","https://hz8g1ckzuq.cognition.run/","en,en-US;q=0.9","dt157yj28cwmu29","28","[""White""]","No","Female","4499543.5","null","","<p></p>","null","rating","dct","attraction_1","1","laptops","null","null","null","null","null","null","1","","","","","","","","","",""
"","","","","","rating_trial","survey-html-form","76","3777053","0.0-3.0-1.36","87","1","2025-04-11 14:37:16","bb671e3ae32f654b8954ea4c4635f915","","Mozilla/5.0 (Windows NT 10.0; Win64; x64) AppleWebKit/537.36 (KHTML, like Gecko) Chrome/130.0.0.0 Safari/537.36","WebKit","Chrome","130.0.0.0","Windows","10.0","https://hz8g1ckzuq.cognition.run/","en,en-US;q=0.9","dt157yj28cwmu29","28","[""White""]","No","Female","4499543.5","38943","","","{""price_1"":""1575"",""price_2"":""1650"",""price_3"":""1650""}","rating","dct","attraction_1","1","laptops","null","null","null","null","null","null","1","60","50","60","50","60","45","Processing speed","Memory (RAM)","",""
"","","","","","rating_trial_setup","html-keyboard-response","77","3777358","0.0-3.0-0.37","87","1","2025-04-11 14:37:16","bb671e3ae32f654b8954ea4c4635f915","","Mozilla/5.0 (Windows NT 10.0; Win64; x64) AppleWebKit/537.36 (KHTML, like Gecko) Chrome/130.0.0.0 Safari/537.36","WebKit","Chrome","130.0.0.0","Windows","10.0","https://hz8g1ckzuq.cognition.run/","en,en-US;q=0.9","dt157yj28cwmu29","28","[""White""]","No","Female","4499543.5","null","","<p></p>","null","rating","dct","repulsion_1","1","washing machines","null","null","null","null","null","null","1","","","","","","","","","",""
"","","","","","rating_trial","survey-html-form","78","3822763","0.0-3.0-1.37","87","1","2025-04-11 14:37:16","bb671e3ae32f654b8954ea4c4635f915","","Mozilla/5.0 (Windows NT 10.0; Win64; x64) AppleWebKit/537.36 (KHTML, like Gecko) Chrome/130.0.0.0 Safari/537.36","WebKit","Chrome","130.0.0.0","Windows","10.0","https://hz8g1ckzuq.cognition.run/","en,en-US;q=0.9","dt157yj28cwmu29","28","[""White""]","No","Female","4499543.5","45401","","","{""price_1"":""478"",""price_2"":""496"",""price_3"":""496""}","rating","dct","repulsion_1","1","washing machines","null","null","null","null","null","null","1","100","90","100","30","40","25","Average lifespan","Energy savings","",""
"","","","","","rating_trial_setup","html-keyboard-response","79","3823067","0.0-3.0-0.38","87","1","2025-04-11 14:37:16","bb671e3ae32f654b8954ea4c4635f915","","Mozilla/5.0 (Windows NT 10.0; Win64; x64) AppleWebKit/537.36 (KHTML, like Gecko) Chrome/130.0.0.0 Safari/537.36","WebKit","Chrome","130.0.0.0","Windows","10.0","https://hz8g1ckzuq.cognition.run/","en,en-US;q=0.9","dt157yj28cwmu29","28","[""White""]","No","Female","4499543.5","null","","<p></p>","null","rating","dtc","attraction_1","1","washing machines","null","null","null","null","null","null","2","","","","","","","","","",""
"","","","","","rating_trial","survey-html-form","80","3864753","0.0-3.0-1.38","87","1","2025-04-11 14:37:16","bb671e3ae32f654b8954ea4c4635f915","","Mozilla/5.0 (Windows NT 10.0; Win64; x64) AppleWebKit/537.36 (KHTML, like Gecko) Chrome/130.0.0.0 Safari/537.36","WebKit","Chrome","130.0.0.0","Windows","10.0","https://hz8g1ckzuq.cognition.run/","en,en-US;q=0.9","dt157yj28cwmu29","28","[""White""]","No","Female","4499543.5","41680","","","{""price_1"":""400"",""price_2"":""420"",""price_3"":""420""}","rating","dtc","attraction_1","1","washing machines","null","null","null","null","null","null","2","60","50","60","50","60","45","Average lifespan","Energy savings","",""
"","","","","","rating_trial_setup","html-keyboard-response","81","3865065","0.0-3.0-0.39","87","1","2025-04-11 14:37:16","bb671e3ae32f654b8954ea4c4635f915","","Mozilla/5.0 (Windows NT 10.0; Win64; x64) AppleWebKit/537.36 (KHTML, like Gecko) Chrome/130.0.0.0 Safari/537.36","WebKit","Chrome","130.0.0.0","Windows","10.0","https://hz8g1ckzuq.cognition.run/","en,en-US;q=0.9","dt157yj28cwmu29","28","[""White""]","No","Female","4499543.5","null","","<p></p>","null","rating","tdc","repulsion_2","1","microwave ovens","null","null","null","null","null","null","1","","","","","","","","","",""
"","","","","","rating_trial","survey-html-form","82","3903607","0.0-3.0-1.39","87","1","2025-04-11 14:37:16","bb671e3ae32f654b8954ea4c4635f915","","Mozilla/5.0 (Windows NT 10.0; Win64; x64) AppleWebKit/537.36 (KHTML, like Gecko) Chrome/130.0.0.0 Safari/537.36","WebKit","Chrome","130.0.0.0","Windows","10.0","https://hz8g1ckzuq.cognition.run/","en,en-US;q=0.9","dt157yj28cwmu29","28","[""White""]","No","Female","4499543.5","38533","","","{""price_1"":""325"",""price_2"":""300"",""price_3"":""325""}","rating","tdc","repulsion_2","1","microwave ovens","null","null","null","null","null","null","1","100","90","100","30","40","20","Warranty","Cooking power","",""
"","","","","","","instructions","83","3947374","0.0-4.0","87","1","2025-04-11 14:37:16","bb671e3ae32f654b8954ea4c4635f915","","Mozilla/5.0 (Windows NT 10.0; Win64; x64) AppleWebKit/537.36 (KHTML, like Gecko) Chrome/130.0.0.0 Safari/537.36","WebKit","Chrome","130.0.0.0","Windows","10.0","https://hz8g1ckzuq.cognition.run/","en,en-US;q=0.9","dt157yj28cwmu29","28","[""White""]","No","Female","4499543.5","43763","[{""page_index"":0,""viewing_time"":2873},{""page_index"":1,""viewing_time"":1332},{""page_index"":2,""viewing_time"":3570},{""page_index"":3,""viewing_time"":4694},{""page_index"":4,""viewing_time"":5472},{""page_index"":5,""viewing_time"":4139},{""page_index"":6,""viewing_time"":15259},{""page_index"":7,""viewing_time"":6424}]","","","","","","","","","","","","","","","","","","","","","","","",""
"","","","","","choice_trial_setup","html-keyboard-response","84","3947681","0.0-5.0-0.0","87","1","2025-04-11 14:37:16","bb671e3ae32f654b8954ea4c4635f915","","Mozilla/5.0 (Windows NT 10.0; Win64; x64) AppleWebKit/537.36 (KHTML, like Gecko) Chrome/130.0.0.0 Safari/537.36","WebKit","Chrome","130.0.0.0","Windows","10.0","https://hz8g1ckzuq.cognition.run/","en,en-US;q=0.9","dt157yj28cwmu29","28","[""White""]","No","Female","4499543.5","null","","<p></p>","null","choice","dct","repulsion_1","2","microwave ovens","null","null","null","null","null","null","1","","","","","","","","","",""
"","","","","","choice_trial","survey-html-form","85","3964661","0.0-5.0-1.0","87","1","2025-04-11 14:37:16","bb671e3ae32f654b8954ea4c4635f915","","Mozilla/5.0 (Windows NT 10.0; Win64; x64) AppleWebKit/537.36 (KHTML, like Gecko) Chrome/130.0.0.0 Safari/537.36","WebKit","Chrome","130.0.0.0","Windows","10.0","https://hz8g1ckzuq.cognition.run/","en,en-US;q=0.9","dt157yj28cwmu29","28","[""White""]","No","Female","4499543.5","16975","","","{""product_choice"":""C""}","choice","dct","repulsion_1","2","microwave ovens","null","null","null","null","null","null","1","30","40","25","100","90","100","Warranty","Cooking power","",""
"","","","","","choice_trial_setup","html-keyboard-response","86","3964966","0.0-5.0-0.1","87","1","2025-04-11 14:37:16","bb671e3ae32f654b8954ea4c4635f915","","Mozilla/5.0 (Windows NT 10.0; Win64; x64) AppleWebKit/537.36 (KHTML, like Gecko) Chrome/130.0.0.0 Safari/537.36","WebKit","Chrome","130.0.0.0","Windows","10.0","https://hz8g1ckzuq.cognition.run/","en,en-US;q=0.9","dt157yj28cwmu29","28","[""White""]","No","Female","4499543.5","null","","<p></p>","null","choice","wwb","catch","null","washing machines","95","80","5","35","45","5","2","","","","","","","","","",""
"","","","","","choice_trial","survey-html-form","87","3968502","0.0-5.0-1.1","87","1","2025-04-11 14:37:16","bb671e3ae32f654b8954ea4c4635f915","","Mozilla/5.0 (Windows NT 10.0; Win64; x64) AppleWebKit/537.36 (KHTML, like Gecko) Chrome/130.0.0.0 Safari/537.36","WebKit","Chrome","130.0.0.0","Windows","10.0","https://hz8g1ckzuq.cognition.run/","en,en-US;q=0.9","dt157yj28cwmu29","28","[""White""]","No","Female","4499543.5","3529","","","{""product_choice"":""C""}","choice","wwb","catch","null","washing machines","95","80","5","35","45","5","2","null","null","null","null","null","null","Average lifespan","Energy savings","",""
"","","","","","choice_trial_setup","html-keyboard-response","88","3968808","0.0-5.0-0.2","87","1","2025-04-11 14:37:16","bb671e3ae32f654b8954ea4c4635f915","","Mozilla/5.0 (Windows NT 10.0; Win64; x64) AppleWebKit/537.36 (KHTML, like Gecko) Chrome/130.0.0.0 Safari/537.36","WebKit","Chrome","130.0.0.0","Windows","10.0","https://hz8g1ckzuq.cognition.run/","en,en-US;q=0.9","dt157yj28cwmu29","28","[""White""]","No","Female","4499543.5","null","","<p></p>","null","choice","cdt","attraction_1","1","laptops","null","null","null","null","null","null","1","","","","","","","","","",""
"","","","","","choice_trial","survey-html-form","89","3983148","0.0-5.0-1.2","87","1","2025-04-11 14:37:16","bb671e3ae32f654b8954ea4c4635f915","","Mozilla/5.0 (Windows NT 10.0; Win64; x64) AppleWebKit/537.36 (KHTML, like Gecko) Chrome/130.0.0.0 Safari/537.36","WebKit","Chrome","130.0.0.0","Windows","10.0","https://hz8g1ckzuq.cognition.run/","en,en-US;q=0.9","dt157yj28cwmu29","28","[""White""]","No","Female","4499543.5","14336","","","{""product_choice"":""C""}","choice","cdt","attraction_1","1","laptops","null","null","null","null","null","null","1","60","50","60","50","60","45","Processing speed","Memory (RAM)","",""
"","","","","","choice_trial_setup","html-keyboard-response","90","3983454","0.0-5.0-0.3","87","1","2025-04-11 14:37:16","bb671e3ae32f654b8954ea4c4635f915","","Mozilla/5.0 (Windows NT 10.0; Win64; x64) AppleWebKit/537.36 (KHTML, like Gecko) Chrome/130.0.0.0 Safari/537.36","WebKit","Chrome","130.0.0.0","Windows","10.0","https://hz8g1ckzuq.cognition.run/","en,en-US;q=0.9","dt157yj28cwmu29","28","[""White""]","No","Female","4499543.5","null","","<p></p>","null","choice","cdt","repulsion_1","2","televisions","null","null","null","null","null","null","1","","","","","","","","","",""
"","","","","","choice_trial","survey-html-form","91","4001817","0.0-5.0-1.3","87","1","2025-04-11 14:37:16","bb671e3ae32f654b8954ea4c4635f915","","Mozilla/5.0 (Windows NT 10.0; Win64; x64) AppleWebKit/537.36 (KHTML, like Gecko) Chrome/130.0.0.0 Safari/537.36","WebKit","Chrome","130.0.0.0","Windows","10.0","https://hz8g1ckzuq.cognition.run/","en,en-US;q=0.9","dt157yj28cwmu29","28","[""White""]","No","Female","4499543.5","18359","","","{""product_choice"":""C""}","choice","cdt","repulsion_1","2","televisions","null","null","null","null","null","null","1","30","40","25","100","90","100","Screen size","Average lifespan","",""
"","","","","","choice_trial_setup","html-keyboard-response","92","4002123","0.0-5.0-0.4","87","1","2025-04-11 14:37:16","bb671e3ae32f654b8954ea4c4635f915","","Mozilla/5.0 (Windows NT 10.0; Win64; x64) AppleWebKit/537.36 (KHTML, like Gecko) Chrome/130.0.0.0 Safari/537.36","WebKit","Chrome","130.0.0.0","Windows","10.0","https://hz8g1ckzuq.cognition.run/","en,en-US;q=0.9","dt157yj28cwmu29","28","[""White""]","No","Female","4499543.5","null","","<p></p>","null","choice","dtc","attraction_1","1","microwave ovens","null","null","null","null","null","null","2","","","","","","","","","",""
"","","","","","choice_trial","survey-html-form","93","4019234","0.0-5.0-1.4","87","1","2025-04-11 14:37:16","bb671e3ae32f654b8954ea4c4635f915","","Mozilla/5.0 (Windows NT 10.0; Win64; x64) AppleWebKit/537.36 (KHTML, like Gecko) Chrome/130.0.0.0 Safari/537.36","WebKit","Chrome","130.0.0.0","Windows","10.0","https://hz8g1ckzuq.cognition.run/","en,en-US;q=0.9","dt157yj28cwmu29","28","[""White""]","No","Female","4499543.5","17108","","","{""product_choice"":""C""}","choice","dtc","attraction_1","1","microwave ovens","null","null","null","null","null","null","2","60","50","60","50","60","45","Warranty","Cooking power","",""
"","","","","","choice_trial_setup","html-keyboard-response","94","4019539","0.0-5.0-0.5","87","1","2025-04-11 14:37:16","bb671e3ae32f654b8954ea4c4635f915","","Mozilla/5.0 (Windows NT 10.0; Win64; x64) AppleWebKit/537.36 (KHTML, like Gecko) Chrome/130.0.0.0 Safari/537.36","WebKit","Chrome","130.0.0.0","Windows","10.0","https://hz8g1ckzuq.cognition.run/","en,en-US;q=0.9","dt157yj28cwmu29","28","[""White""]","No","Female","4499543.5","null","","<p></p>","null","choice","tcd","attraction_1","2","microwave ovens","null","null","null","null","null","null","2","","","","","","","","","",""
"","","","","","choice_trial","survey-html-form","95","4029071","0.0-5.0-1.5","87","1","2025-04-11 14:37:16","bb671e3ae32f654b8954ea4c4635f915","","Mozilla/5.0 (Windows NT 10.0; Win64; x64) AppleWebKit/537.36 (KHTML, like Gecko) Chrome/130.0.0.0 Safari/537.36","WebKit","Chrome","130.0.0.0","Windows","10.0","https://hz8g1ckzuq.cognition.run/","en,en-US;q=0.9","dt157yj28cwmu29","28","[""White""]","No","Female","4499543.5","9528","","","{""product_choice"":""A""}","choice","tcd","attraction_1","2","microwave ovens","null","null","null","null","null","null","2","50","60","45","60","50","60","Warranty","Cooking power","",""
"","","","","","choice_trial_setup","html-keyboard-response","96","4029376","0.0-5.0-0.6","87","1","2025-04-11 14:37:16","bb671e3ae32f654b8954ea4c4635f915","","Mozilla/5.0 (Windows NT 10.0; Win64; x64) AppleWebKit/537.36 (KHTML, like Gecko) Chrome/130.0.0.0 Safari/537.36","WebKit","Chrome","130.0.0.0","Windows","10.0","https://hz8g1ckzuq.cognition.run/","en,en-US;q=0.9","dt157yj28cwmu29","28","[""White""]","No","Female","4499543.5","null","","<p></p>","null","choice","wbw","catch","null","laptops","60","90","45","35","20","10","2","","","","","","","","","",""
"","","","","","choice_trial","survey-html-form","97","4036346","0.0-5.0-1.6","87","1","2025-04-11 14:37:16","bb671e3ae32f654b8954ea4c4635f915","","Mozilla/5.0 (Windows NT 10.0; Win64; x64) AppleWebKit/537.36 (KHTML, like Gecko) Chrome/130.0.0.0 Safari/537.36","WebKit","Chrome","130.0.0.0","Windows","10.0","https://hz8g1ckzuq.cognition.run/","en,en-US;q=0.9","dt157yj28cwmu29","28","[""White""]","No","Female","4499543.5","6967","","","{""product_choice"":""B""}","choice","wbw","catch","null","laptops","60","90","45","35","20","10","2","null","null","null","null","null","null","Processing speed","Memory (RAM)","",""
"","","","","","choice_trial_setup","html-keyboard-response","98","4036651","0.0-5.0-0.7","87","1","2025-04-11 14:37:16","bb671e3ae32f654b8954ea4c4635f915","","Mozilla/5.0 (Windows NT 10.0; Win64; x64) AppleWebKit/537.36 (KHTML, like Gecko) Chrome/130.0.0.0 Safari/537.36","WebKit","Chrome","130.0.0.0","Windows","10.0","https://hz8g1ckzuq.cognition.run/","en,en-US;q=0.9","dt157yj28cwmu29","28","[""White""]","No","Female","4499543.5","null","","<p></p>","null","choice","tcd","attraction_2","2","laptops","null","null","null","null","null","null","2","","","","","","","","","",""
"","","","","","choice_trial","survey-html-form","99","4045841","0.0-5.0-1.7","87","1","2025-04-11 14:37:16","bb671e3ae32f654b8954ea4c4635f915","","Mozilla/5.0 (Windows NT 10.0; Win64; x64) AppleWebKit/537.36 (KHTML, like Gecko) Chrome/130.0.0.0 Safari/537.36","WebKit","Chrome","130.0.0.0","Windows","10.0","https://hz8g1ckzuq.cognition.run/","en,en-US;q=0.9","dt157yj28cwmu29","28","[""White""]","No","Female","4499543.5","9187","","","{""product_choice"":""B""}","choice","tcd","attraction_2","2","laptops","null","null","null","null","null","null","2","50","60","40","60","50","60","Processing speed","Memory (RAM)","",""
"","","","","","choice_trial_setup","html-keyboard-response","100","4046147","0.0-5.0-0.8","87","1","2025-04-11 14:37:16","bb671e3ae32f654b8954ea4c4635f915","","Mozilla/5.0 (Windows NT 10.0; Win64; x64) AppleWebKit/537.36 (KHTML, like Gecko) Chrome/130.0.0.0 Safari/537.36","WebKit","Chrome","130.0.0.0","Windows","10.0","https://hz8g1ckzuq.cognition.run/","en,en-US;q=0.9","dt157yj28cwmu29","28","[""White""]","No","Female","4499543.5","null","","<p></p>","null","choice","dtc","attraction_2","1","laptops","null","null","null","null","null","null","1","","","","","","","","","",""
"","","","","","choice_trial","survey-html-form","101","4056655","0.0-5.0-1.8","87","1","2025-04-11 14:37:16","bb671e3ae32f654b8954ea4c4635f915","","Mozilla/5.0 (Windows NT 10.0; Win64; x64) AppleWebKit/537.36 (KHTML, like Gecko) Chrome/130.0.0.0 Safari/537.36","WebKit","Chrome","130.0.0.0","Windows","10.0","https://hz8g1ckzuq.cognition.run/","en,en-US;q=0.9","dt157yj28cwmu29","28","[""White""]","No","Female","4499543.5","10502","","","{""product_choice"":""B""}","choice","dtc","attraction_2","1","laptops","null","null","null","null","null","null","1","60","50","60","50","60","40","Processing speed","Memory (RAM)","",""
"","","","","","choice_trial_setup","html-keyboard-response","102","4056959","0.0-5.0-0.9","87","1","2025-04-11 14:37:16","bb671e3ae32f654b8954ea4c4635f915","","Mozilla/5.0 (Windows NT 10.0; Win64; x64) AppleWebKit/537.36 (KHTML, like Gecko) Chrome/130.0.0.0 Safari/537.36","WebKit","Chrome","130.0.0.0","Windows","10.0","https://hz8g1ckzuq.cognition.run/","en,en-US;q=0.9","dt157yj28cwmu29","28","[""White""]","No","Female","4499543.5","null","","<p></p>","null","choice","tdc","attraction_2","2","televisions","null","null","null","null","null","null","2","","","","","","","","","",""
"","","","","","choice_trial","survey-html-form","103","4078342","0.0-5.0-1.9","87","1","2025-04-11 14:37:16","bb671e3ae32f654b8954ea4c4635f915","","Mozilla/5.0 (Windows NT 10.0; Win64; x64) AppleWebKit/537.36 (KHTML, like Gecko) Chrome/130.0.0.0 Safari/537.36","WebKit","Chrome","130.0.0.0","Windows","10.0","https://hz8g1ckzuq.cognition.run/","en,en-US;q=0.9","dt157yj28cwmu29","28","[""White""]","No","Female","4499543.5","21380","","","{""product_choice"":""C""}","choice","tdc","attraction_2","2","televisions","null","null","null","null","null","null","2","50","60","40","60","50","60","Screen size","Average lifespan","",""
"","","","","","choice_trial_setup","html-keyboard-response","104","4078649","0.0-5.0-0.10","87","1","2025-04-11 14:37:16","bb671e3ae32f654b8954ea4c4635f915","","Mozilla/5.0 (Windows NT 10.0; Win64; x64) AppleWebKit/537.36 (KHTML, like Gecko) Chrome/130.0.0.0 Safari/537.36","WebKit","Chrome","130.0.0.0","Windows","10.0","https://hz8g1ckzuq.cognition.run/","en,en-US;q=0.9","dt157yj28cwmu29","28","[""White""]","No","Female","4499543.5","null","","<p></p>","null","choice","bww","catch","null","laptops","85","95","10","15","15","25","2","","","","","","","","","",""
"","","","","","choice_trial","survey-html-form","105","4083358","0.0-5.0-1.10","87","1","2025-04-11 14:37:16","bb671e3ae32f654b8954ea4c4635f915","","Mozilla/5.0 (Windows NT 10.0; Win64; x64) AppleWebKit/537.36 (KHTML, like Gecko) Chrome/130.0.0.0 Safari/537.36","WebKit","Chrome","130.0.0.0","Windows","10.0","https://hz8g1ckzuq.cognition.run/","en,en-US;q=0.9","dt157yj28cwmu29","28","[""White""]","No","Female","4499543.5","4705","","","{""product_choice"":""A""}","choice","bww","catch","null","laptops","85","95","10","15","15","25","2","null","null","null","null","null","null","Processing speed","Memory (RAM)","",""
"","","","","","choice_trial_setup","html-keyboard-response","106","4083662","0.0-5.0-0.11","87","1","2025-04-11 14:37:16","bb671e3ae32f654b8954ea4c4635f915","","Mozilla/5.0 (Windows NT 10.0; Win64; x64) AppleWebKit/537.36 (KHTML, like Gecko) Chrome/130.0.0.0 Safari/537.36","WebKit","Chrome","130.0.0.0","Windows","10.0","https://hz8g1ckzuq.cognition.run/","en,en-US;q=0.9","dt157yj28cwmu29","28","[""White""]","No","Female","4499543.5","null","","<p></p>","null","choice","ctd","repulsion_2","1","microwave ovens","null","null","null","null","null","null","1","","","","","","","","","",""
"","","","","","choice_trial","survey-html-form","107","4092456","0.0-5.0-1.11","87","1","2025-04-11 14:37:16","bb671e3ae32f654b8954ea4c4635f915","","Mozilla/5.0 (Windows NT 10.0; Win64; x64) AppleWebKit/537.36 (KHTML, like Gecko) Chrome/130.0.0.0 Safari/537.36","WebKit","Chrome","130.0.0.0","Windows","10.0","https://hz8g1ckzuq.cognition.run/","en,en-US;q=0.9","dt157yj28cwmu29","28","[""White""]","No","Female","4499543.5","8792","","","{""product_choice"":""A""}","choice","ctd","repulsion_2","1","microwave ovens","null","null","null","null","null","null","1","100","90","100","30","40","20","Warranty","Cooking power","",""
"","","","","","choice_trial_setup","html-keyboard-response","108","4092762","0.0-5.0-0.12","87","1","2025-04-11 14:37:16","bb671e3ae32f654b8954ea4c4635f915","","Mozilla/5.0 (Windows NT 10.0; Win64; x64) AppleWebKit/537.36 (KHTML, like Gecko) Chrome/130.0.0.0 Safari/537.36","WebKit","Chrome","130.0.0.0","Windows","10.0","https://hz8g1ckzuq.cognition.run/","en,en-US;q=0.9","dt157yj28cwmu29","28","[""White""]","No","Female","4499543.5","null","","<p></p>","null","choice","dtc","attraction_1","1","televisions","null","null","null","null","null","null","1","","","","","","","","","",""
"","","","","","choice_trial","survey-html-form","109","4101903","0.0-5.0-1.12","87","1","2025-04-11 14:37:16","bb671e3ae32f654b8954ea4c4635f915","","Mozilla/5.0 (Windows NT 10.0; Win64; x64) AppleWebKit/537.36 (KHTML, like Gecko) Chrome/130.0.0.0 Safari/537.36","WebKit","Chrome","130.0.0.0","Windows","10.0","https://hz8g1ckzuq.cognition.run/","en,en-US;q=0.9","dt157yj28cwmu29","28","[""White""]","No","Female","4499543.5","9138","","","{""product_choice"":""C""}","choice","dtc","attraction_1","1","televisions","null","null","null","null","null","null","1","60","50","60","50","60","45","Screen size","Average lifespan","",""
"","","","","","choice_trial_setup","html-keyboard-response","110","4102210","0.0-5.0-0.13","87","1","2025-04-11 14:37:16","bb671e3ae32f654b8954ea4c4635f915","","Mozilla/5.0 (Windows NT 10.0; Win64; x64) AppleWebKit/537.36 (KHTML, like Gecko) Chrome/130.0.0.0 Safari/537.36","WebKit","Chrome","130.0.0.0","Windows","10.0","https://hz8g1ckzuq.cognition.run/","en,en-US;q=0.9","dt157yj28cwmu29","28","[""White""]","No","Female","4499543.5","null","","<p></p>","null","choice","tcd","repulsion_1","1","washing machines","null","null","null","null","null","null","2","","","","","","","","","",""
"","","","","","choice_trial","survey-html-form","111","4118278","0.0-5.0-1.13","87","1","2025-04-11 14:37:16","bb671e3ae32f654b8954ea4c4635f915","","Mozilla/5.0 (Windows NT 10.0; Win64; x64) AppleWebKit/537.36 (KHTML, like Gecko) Chrome/130.0.0.0 Safari/537.36","WebKit","Chrome","130.0.0.0","Windows","10.0","https://hz8g1ckzuq.cognition.run/","en,en-US;q=0.9","dt157yj28cwmu29","28","[""White""]","No","Female","4499543.5","16064","","","{""product_choice"":""B""}","choice","tcd","repulsion_1","1","washing machines","null","null","null","null","null","null","2","100","90","100","30","40","25","Average lifespan","Energy savings","",""
"","","","","","choice_trial_setup","html-keyboard-response","112","4118583","0.0-5.0-0.14","87","1","2025-04-11 14:37:16","bb671e3ae32f654b8954ea4c4635f915","","Mozilla/5.0 (Windows NT 10.0; Win64; x64) AppleWebKit/537.36 (KHTML, like Gecko) Chrome/130.0.0.0 Safari/537.36","WebKit","Chrome","130.0.0.0","Windows","10.0","https://hz8g1ckzuq.cognition.run/","en,en-US;q=0.9","dt157yj28cwmu29","28","[""White""]","No","Female","4499543.5","null","","<p></p>","null","choice","dct","repulsion_1","2","laptops","null","null","null","null","null","null","2","","","","","","","","","",""
"","","","","","choice_trial","survey-html-form","113","4130098","0.0-5.0-1.14","87","1","2025-04-11 14:37:16","bb671e3ae32f654b8954ea4c4635f915","","Mozilla/5.0 (Windows NT 10.0; Win64; x64) AppleWebKit/537.36 (KHTML, like Gecko) Chrome/130.0.0.0 Safari/537.36","WebKit","Chrome","130.0.0.0","Windows","10.0","https://hz8g1ckzuq.cognition.run/","en,en-US;q=0.9","dt157yj28cwmu29","28","[""White""]","No","Female","4499543.5","11512","","","{""product_choice"":""B""}","choice","dct","repulsion_1","2","laptops","null","null","null","null","null","null","2","30","40","25","100","90","100","Processing speed","Memory (RAM)","",""
"","","","","","choice_trial_setup","html-keyboard-response","114","4130405","0.0-5.0-0.15","87","1","2025-04-11 14:37:16","bb671e3ae32f654b8954ea4c4635f915","","Mozilla/5.0 (Windows NT 10.0; Win64; x64) AppleWebKit/537.36 (KHTML, like Gecko) Chrome/130.0.0.0 Safari/537.36","WebKit","Chrome","130.0.0.0","Windows","10.0","https://hz8g1ckzuq.cognition.run/","en,en-US;q=0.9","dt157yj28cwmu29","28","[""White""]","No","Female","4499543.5","null","","<p></p>","null","choice","cdt","attraction_1","1","washing machines","null","null","null","null","null","null","2","","","","","","","","","",""
"","","","","","choice_trial","survey-html-form","115","4140318","0.0-5.0-1.15","87","1","2025-04-11 14:37:16","bb671e3ae32f654b8954ea4c4635f915","","Mozilla/5.0 (Windows NT 10.0; Win64; x64) AppleWebKit/537.36 (KHTML, like Gecko) Chrome/130.0.0.0 Safari/537.36","WebKit","Chrome","130.0.0.0","Windows","10.0","https://hz8g1ckzuq.cognition.run/","en,en-US;q=0.9","dt157yj28cwmu29","28","[""White""]","No","Female","4499543.5","9910","","","{""product_choice"":""A""}","choice","cdt","attraction_1","1","washing machines","null","null","null","null","null","null","2","60","50","60","50","60","45","Average lifespan","Energy savings","",""
"","","","","","choice_trial_setup","html-keyboard-response","116","4140624","0.0-5.0-0.16","87","1","2025-04-11 14:37:16","bb671e3ae32f654b8954ea4c4635f915","","Mozilla/5.0 (Windows NT 10.0; Win64; x64) AppleWebKit/537.36 (KHTML, like Gecko) Chrome/130.0.0.0 Safari/537.36","WebKit","Chrome","130.0.0.0","Windows","10.0","https://hz8g1ckzuq.cognition.run/","en,en-US;q=0.9","dt157yj28cwmu29","28","[""White""]","No","Female","4499543.5","null","","<p></p>","null","choice","dct","attraction_1","2","laptops","null","null","null","null","null","null","2","","","","","","","","","",""
"","","","","","choice_trial","survey-html-form","117","4147072","0.0-5.0-1.16","87","1","2025-04-11 14:37:16","bb671e3ae32f654b8954ea4c4635f915","","Mozilla/5.0 (Windows NT 10.0; Win64; x64) AppleWebKit/537.36 (KHTML, like Gecko) Chrome/130.0.0.0 Safari/537.36","WebKit","Chrome","130.0.0.0","Windows","10.0","https://hz8g1ckzuq.cognition.run/","en,en-US;q=0.9","dt157yj28cwmu29","28","[""White""]","No","Female","4499543.5","6445","","","{""product_choice"":""B""}","choice","dct","attraction_1","2","laptops","null","null","null","null","null","null","2","50","60","45","60","50","60","Processing speed","Memory (RAM)","",""
"","","","","","choice_trial_setup","html-keyboard-response","118","4147385","0.0-5.0-0.17","87","1","2025-04-11 14:37:16","bb671e3ae32f654b8954ea4c4635f915","","Mozilla/5.0 (Windows NT 10.0; Win64; x64) AppleWebKit/537.36 (KHTML, like Gecko) Chrome/130.0.0.0 Safari/537.36","WebKit","Chrome","130.0.0.0","Windows","10.0","https://hz8g1ckzuq.cognition.run/","en,en-US;q=0.9","dt157yj28cwmu29","28","[""White""]","No","Female","4499543.5","null","","<p></p>","null","choice","bww","catch","null","televisions","75","60","25","25","40","5","2","","","","","","","","","",""
"","","","","","choice_trial","survey-html-form","119","4154713","0.0-5.0-1.17","87","1","2025-04-11 14:37:16","bb671e3ae32f654b8954ea4c4635f915","","Mozilla/5.0 (Windows NT 10.0; Win64; x64) AppleWebKit/537.36 (KHTML, like Gecko) Chrome/130.0.0.0 Safari/537.36","WebKit","Chrome","130.0.0.0","Windows","10.0","https://hz8g1ckzuq.cognition.run/","en,en-US;q=0.9","dt157yj28cwmu29","28","[""White""]","No","Female","4499543.5","7324","","","{""product_choice"":""A""}","choice","bww","catch","null","televisions","75","60","25","25","40","5","2","null","null","null","null","null","null","Screen size","Average lifespan","",""
"","","","","","choice_trial_setup","html-keyboard-response","120","4155019","0.0-5.0-0.18","87","1","2025-04-11 14:37:16","bb671e3ae32f654b8954ea4c4635f915","","Mozilla/5.0 (Windows NT 10.0; Win64; x64) AppleWebKit/537.36 (KHTML, like Gecko) Chrome/130.0.0.0 Safari/537.36","WebKit","Chrome","130.0.0.0","Windows","10.0","https://hz8g1ckzuq.cognition.run/","en,en-US;q=0.9","dt157yj28cwmu29","28","[""White""]","No","Female","4499543.5","null","","<p></p>","null","choice","cdt","repulsion_2","1","washing machines","null","null","null","null","null","null","1","","","","","","","","","",""
"","","","","","choice_trial","survey-html-form","121","4162853","0.0-5.0-1.18","87","1","2025-04-11 14:37:16","bb671e3ae32f654b8954ea4c4635f915","","Mozilla/5.0 (Windows NT 10.0; Win64; x64) AppleWebKit/537.36 (KHTML, like Gecko) Chrome/130.0.0.0 Safari/537.36","WebKit","Chrome","130.0.0.0","Windows","10.0","https://hz8g1ckzuq.cognition.run/","en,en-US;q=0.9","dt157yj28cwmu29","28","[""White""]","No","Female","4499543.5","7831","","","{""product_choice"":""A""}","choice","cdt","repulsion_2","1","washing machines","null","null","null","null","null","null","1","100","90","100","30","40","20","Average lifespan","Energy savings","",""
"","","","","","choice_trial_setup","html-keyboard-response","122","4163159","0.0-5.0-0.19","87","1","2025-04-11 14:37:16","bb671e3ae32f654b8954ea4c4635f915","","Mozilla/5.0 (Windows NT 10.0; Win64; x64) AppleWebKit/537.36 (KHTML, like Gecko) Chrome/130.0.0.0 Safari/537.36","WebKit","Chrome","130.0.0.0","Windows","10.0","https://hz8g1ckzuq.cognition.run/","en,en-US;q=0.9","dt157yj28cwmu29","28","[""White""]","No","Female","4499543.5","null","","<p></p>","null","choice","dtc","attraction_2","1","microwave ovens","null","null","null","null","null","null","1","","","","","","","","","",""
"","","","","","choice_trial","survey-html-form","123","4169867","0.0-5.0-1.19","87","1","2025-04-11 14:37:16","bb671e3ae32f654b8954ea4c4635f915","","Mozilla/5.0 (Windows NT 10.0; Win64; x64) AppleWebKit/537.36 (KHTML, like Gecko) Chrome/130.0.0.0 Safari/537.36","WebKit","Chrome","130.0.0.0","Windows","10.0","https://hz8g1ckzuq.cognition.run/","en,en-US;q=0.9","dt157yj28cwmu29","28","[""White""]","No","Female","4499543.5","6704","","","{""product_choice"":""C""}","choice","dtc","attraction_2","1","microwave ovens","null","null","null","null","null","null","1","60","50","60","50","60","40","Warranty","Cooking power","",""
"","","","","","choice_trial_setup","html-keyboard-response","124","4170172","0.0-5.0-0.20","87","1","2025-04-11 14:37:16","bb671e3ae32f654b8954ea4c4635f915","","Mozilla/5.0 (Windows NT 10.0; Win64; x64) AppleWebKit/537.36 (KHTML, like Gecko) Chrome/130.0.0.0 Safari/537.36","WebKit","Chrome","130.0.0.0","Windows","10.0","https://hz8g1ckzuq.cognition.run/","en,en-US;q=0.9","dt157yj28cwmu29","28","[""White""]","No","Female","4499543.5","null","","<p></p>","null","choice","wbw","catch","null","microwave ovens","70","65","10","20","30","50","1","","","","","","","","","",""
"","","","","","choice_trial","survey-html-form","125","4175642","0.0-5.0-1.20","87","1","2025-04-11 14:37:16","bb671e3ae32f654b8954ea4c4635f915","","Mozilla/5.0 (Windows NT 10.0; Win64; x64) AppleWebKit/537.36 (KHTML, like Gecko) Chrome/130.0.0.0 Safari/537.36","WebKit","Chrome","130.0.0.0","Windows","10.0","https://hz8g1ckzuq.cognition.run/","en,en-US;q=0.9","dt157yj28cwmu29","28","[""White""]","No","Female","4499543.5","5466","","","{""product_choice"":""B""}","choice","wbw","catch","null","microwave ovens","70","65","10","20","30","50","1","null","null","null","null","null","null","Warranty","Cooking power","",""
"","","","","","choice_trial_setup","html-keyboard-response","126","4175948","0.0-5.0-0.21","87","1","2025-04-11 14:37:16","bb671e3ae32f654b8954ea4c4635f915","","Mozilla/5.0 (Windows NT 10.0; Win64; x64) AppleWebKit/537.36 (KHTML, like Gecko) Chrome/130.0.0.0 Safari/537.36","WebKit","Chrome","130.0.0.0","Windows","10.0","https://hz8g1ckzuq.cognition.run/","en,en-US;q=0.9","dt157yj28cwmu29","28","[""White""]","No","Female","4499543.5","null","","<p></p>","null","choice","wwb","catch","null","washing machines","55","75","5","20","25","50","2","","","","","","","","","",""
"","","","","","choice_trial","survey-html-form","127","4183959","0.0-5.0-1.21","87","1","2025-04-11 14:37:16","bb671e3ae32f654b8954ea4c4635f915","","Mozilla/5.0 (Windows NT 10.0; Win64; x64) AppleWebKit/537.36 (KHTML, like Gecko) Chrome/130.0.0.0 Safari/537.36","WebKit","Chrome","130.0.0.0","Windows","10.0","https://hz8g1ckzuq.cognition.run/","en,en-US;q=0.9","dt157yj28cwmu29","28","[""White""]","No","Female","4499543.5","8006","","","{""product_choice"":""C""}","choice","wwb","catch","null","washing machines","55","75","5","20","25","50","2","null","null","null","null","null","null","Average lifespan","Energy savings","",""
"","","","","","choice_trial_setup","html-keyboard-response","128","4184264","0.0-5.0-0.22","87","1","2025-04-11 14:37:16","bb671e3ae32f654b8954ea4c4635f915","","Mozilla/5.0 (Windows NT 10.0; Win64; x64) AppleWebKit/537.36 (KHTML, like Gecko) Chrome/130.0.0.0 Safari/537.36","WebKit","Chrome","130.0.0.0","Windows","10.0","https://hz8g1ckzuq.cognition.run/","en,en-US;q=0.9","dt157yj28cwmu29","28","[""White""]","No","Female","4499543.5","null","","<p></p>","null","choice","tcd","repulsion_2","2","microwave ovens","null","null","null","null","null","null","2","","","","","","","","","",""
"","","","","","choice_trial","survey-html-form","129","4193744","0.0-5.0-1.22","87","1","2025-04-11 14:37:16","bb671e3ae32f654b8954ea4c4635f915","","Mozilla/5.0 (Windows NT 10.0; Win64; x64) AppleWebKit/537.36 (KHTML, like Gecko) Chrome/130.0.0.0 Safari/537.36","WebKit","Chrome","130.0.0.0","Windows","10.0","https://hz8g1ckzuq.cognition.run/","en,en-US;q=0.9","dt157yj28cwmu29","28","[""White""]","No","Female","4499543.5","9476","","","{""product_choice"":""A""}","choice","tcd","repulsion_2","2","microwave ovens","null","null","null","null","null","null","2","30","40","20","100","90","100","Warranty","Cooking power","",""
"","","","","","choice_trial_setup","html-keyboard-response","130","4194051","0.0-5.0-0.23","87","1","2025-04-11 14:37:16","bb671e3ae32f654b8954ea4c4635f915","","Mozilla/5.0 (Windows NT 10.0; Win64; x64) AppleWebKit/537.36 (KHTML, like Gecko) Chrome/130.0.0.0 Safari/537.36","WebKit","Chrome","130.0.0.0","Windows","10.0","https://hz8g1ckzuq.cognition.run/","en,en-US;q=0.9","dt157yj28cwmu29","28","[""White""]","No","Female","4499543.5","null","","<p></p>","null","choice","ctd","attraction_1","2","washing machines","null","null","null","null","null","null","1","","","","","","","","","",""
"","","","","","choice_trial","survey-html-form","131","4199685","0.0-5.0-1.23","87","1","2025-04-11 14:37:16","bb671e3ae32f654b8954ea4c4635f915","","Mozilla/5.0 (Windows NT 10.0; Win64; x64) AppleWebKit/537.36 (KHTML, like Gecko) Chrome/130.0.0.0 Safari/537.36","WebKit","Chrome","130.0.0.0","Windows","10.0","https://hz8g1ckzuq.cognition.run/","en,en-US;q=0.9","dt157yj28cwmu29","28","[""White""]","No","Female","4499543.5","5628","","","{""product_choice"":""B""}","choice","ctd","attraction_1","2","washing machines","null","null","null","null","null","null","1","50","60","45","60","50","60","Average lifespan","Energy savings","",""
"","","","","","choice_trial_setup","html-keyboard-response","132","4199990","0.0-5.0-0.24","87","1","2025-04-11 14:37:16","bb671e3ae32f654b8954ea4c4635f915","","Mozilla/5.0 (Windows NT 10.0; Win64; x64) AppleWebKit/537.36 (KHTML, like Gecko) Chrome/130.0.0.0 Safari/537.36","WebKit","Chrome","130.0.0.0","Windows","10.0","https://hz8g1ckzuq.cognition.run/","en,en-US;q=0.9","dt157yj28cwmu29","28","[""White""]","No","Female","4499543.5","null","","<p></p>","null","choice","tdc","repulsion_2","2","televisions","null","null","null","null","null","null","2","","","","","","","","","",""
"","","","","","choice_trial","survey-html-form","133","4208749","0.0-5.0-1.24","87","1","2025-04-11 14:37:16","bb671e3ae32f654b8954ea4c4635f915","","Mozilla/5.0 (Windows NT 10.0; Win64; x64) AppleWebKit/537.36 (KHTML, like Gecko) Chrome/130.0.0.0 Safari/537.36","WebKit","Chrome","130.0.0.0","Windows","10.0","https://hz8g1ckzuq.cognition.run/","en,en-US;q=0.9","dt157yj28cwmu29","28","[""White""]","No","Female","4499543.5","8755","","","{""product_choice"":""A""}","choice","tdc","repulsion_2","2","televisions","null","null","null","null","null","null","2","30","40","20","100","90","100","Screen size","Average lifespan","",""
"","","","","","choice_trial_setup","html-keyboard-response","134","4209057","0.0-5.0-0.25","87","1","2025-04-11 14:37:16","bb671e3ae32f654b8954ea4c4635f915","","Mozilla/5.0 (Windows NT 10.0; Win64; x64) AppleWebKit/537.36 (KHTML, like Gecko) Chrome/130.0.0.0 Safari/537.36","WebKit","Chrome","130.0.0.0","Windows","10.0","https://hz8g1ckzuq.cognition.run/","en,en-US;q=0.9","dt157yj28cwmu29","28","[""White""]","No","Female","4499543.5","null","","<p></p>","null","choice","tcd","attraction_2","2","microwave ovens","null","null","null","null","null","null","1","","","","","","","","","",""
"","","","","","choice_trial","survey-html-form","135","4214945","0.0-5.0-1.25","87","1","2025-04-11 14:37:16","bb671e3ae32f654b8954ea4c4635f915","","Mozilla/5.0 (Windows NT 10.0; Win64; x64) AppleWebKit/537.36 (KHTML, like Gecko) Chrome/130.0.0.0 Safari/537.36","WebKit","Chrome","130.0.0.0","Windows","10.0","https://hz8g1ckzuq.cognition.run/","en,en-US;q=0.9","dt157yj28cwmu29","28","[""White""]","No","Female","4499543.5","5881","","","{""product_choice"":""A""}","choice","tcd","attraction_2","2","microwave ovens","null","null","null","null","null","null","1","50","60","40","60","50","60","Warranty","Cooking power","",""
"","","","","","choice_trial_setup","html-keyboard-response","136","4215250","0.0-5.0-0.26","87","1","2025-04-11 14:37:16","bb671e3ae32f654b8954ea4c4635f915","","Mozilla/5.0 (Windows NT 10.0; Win64; x64) AppleWebKit/537.36 (KHTML, like Gecko) Chrome/130.0.0.0 Safari/537.36","WebKit","Chrome","130.0.0.0","Windows","10.0","https://hz8g1ckzuq.cognition.run/","en,en-US;q=0.9","dt157yj28cwmu29","28","[""White""]","No","Female","4499543.5","null","","<p></p>","null","choice","cdt","attraction_1","2","televisions","null","null","null","null","null","null","2","","","","","","","","","",""
"","","","","","choice_trial","survey-html-form","137","4258029","0.0-5.0-1.26","87","1","2025-04-11 14:37:16","bb671e3ae32f654b8954ea4c4635f915","","Mozilla/5.0 (Windows NT 10.0; Win64; x64) AppleWebKit/537.36 (KHTML, like Gecko) Chrome/130.0.0.0 Safari/537.36","WebKit","Chrome","130.0.0.0","Windows","10.0","https://hz8g1ckzuq.cognition.run/","en,en-US;q=0.9","dt157yj28cwmu29","28","[""White""]","No","Female","4499543.5","42774","","","{""product_choice"":""C""}","choice","cdt","attraction_1","2","televisions","null","null","null","null","null","null","2","50","60","45","60","50","60","Screen size","Average lifespan","",""
"","","","","","choice_trial_setup","html-keyboard-response","138","4258335","0.0-5.0-0.27","87","1","2025-04-11 14:37:16","bb671e3ae32f654b8954ea4c4635f915","","Mozilla/5.0 (Windows NT 10.0; Win64; x64) AppleWebKit/537.36 (KHTML, like Gecko) Chrome/130.0.0.0 Safari/537.36","WebKit","Chrome","130.0.0.0","Windows","10.0","https://hz8g1ckzuq.cognition.run/","en,en-US;q=0.9","dt157yj28cwmu29","28","[""White""]","No","Female","4499543.5","null","","<p></p>","null","choice","tcd","repulsion_1","1","microwave ovens","null","null","null","null","null","null","1","","","","","","","","","",""
"","","","","","choice_trial","survey-html-form","139","4267493","0.0-5.0-1.27","87","1","2025-04-11 14:37:16","bb671e3ae32f654b8954ea4c4635f915","","Mozilla/5.0 (Windows NT 10.0; Win64; x64) AppleWebKit/537.36 (KHTML, like Gecko) Chrome/130.0.0.0 Safari/537.36","WebKit","Chrome","130.0.0.0","Windows","10.0","https://hz8g1ckzuq.cognition.run/","en,en-US;q=0.9","dt157yj28cwmu29","28","[""White""]","No","Female","4499543.5","9153","","","{""product_choice"":""B""}","choice","tcd","repulsion_1","1","microwave ovens","null","null","null","null","null","null","1","100","90","100","30","40","25","Warranty","Cooking power","",""
"","","","","","choice_trial_setup","html-keyboard-response","140","4267798","0.0-5.0-0.28","87","1","2025-04-11 14:37:16","bb671e3ae32f654b8954ea4c4635f915","","Mozilla/5.0 (Windows NT 10.0; Win64; x64) AppleWebKit/537.36 (KHTML, like Gecko) Chrome/130.0.0.0 Safari/537.36","WebKit","Chrome","130.0.0.0","Windows","10.0","https://hz8g1ckzuq.cognition.run/","en,en-US;q=0.9","dt157yj28cwmu29","28","[""White""]","No","Female","4499543.5","null","","<p></p>","null","choice","ctd","repulsion_2","1","televisions","null","null","null","null","null","null","2","","","","","","","","","",""
"","","","","","choice_trial","survey-html-form","141","4279247","0.0-5.0-1.28","87","1","2025-04-11 14:37:16","bb671e3ae32f654b8954ea4c4635f915","","Mozilla/5.0 (Windows NT 10.0; Win64; x64) AppleWebKit/537.36 (KHTML, like Gecko) Chrome/130.0.0.0 Safari/537.36","WebKit","Chrome","130.0.0.0","Windows","10.0","https://hz8g1ckzuq.cognition.run/","en,en-US;q=0.9","dt157yj28cwmu29","28","[""White""]","No","Female","4499543.5","11443","","","{""product_choice"":""A""}","choice","ctd","repulsion_2","1","televisions","null","null","null","null","null","null","2","100","90","100","30","40","20","Screen size","Average lifespan","",""
"","","","","","choice_trial_setup","html-keyboard-response","142","4279555","0.0-5.0-0.29","87","1","2025-04-11 14:37:16","bb671e3ae32f654b8954ea4c4635f915","","Mozilla/5.0 (Windows NT 10.0; Win64; x64) AppleWebKit/537.36 (KHTML, like Gecko) Chrome/130.0.0.0 Safari/537.36","WebKit","Chrome","130.0.0.0","Windows","10.0","https://hz8g1ckzuq.cognition.run/","en,en-US;q=0.9","dt157yj28cwmu29","28","[""White""]","No","Female","4499543.5","null","","<p></p>","null","choice","tdc","repulsion_2","1","laptops","null","null","null","null","null","null","2","","","","","","","","","",""
"","","","","","choice_trial","survey-html-form","143","4288755","0.0-5.0-1.29","87","1","2025-04-11 14:37:16","bb671e3ae32f654b8954ea4c4635f915","","Mozilla/5.0 (Windows NT 10.0; Win64; x64) AppleWebKit/537.36 (KHTML, like Gecko) Chrome/130.0.0.0 Safari/537.36","WebKit","Chrome","130.0.0.0","Windows","10.0","https://hz8g1ckzuq.cognition.run/","en,en-US;q=0.9","dt157yj28cwmu29","28","[""White""]","No","Female","4499543.5","9194","","","{""product_choice"":""A""}","choice","tdc","repulsion_2","1","laptops","null","null","null","null","null","null","2","100","90","100","30","40","20","Processing speed","Memory (RAM)","",""
"","","","","","choice_trial_setup","html-keyboard-response","144","4289063","0.0-5.0-0.30","87","1","2025-04-11 14:37:16","bb671e3ae32f654b8954ea4c4635f915","","Mozilla/5.0 (Windows NT 10.0; Win64; x64) AppleWebKit/537.36 (KHTML, like Gecko) Chrome/130.0.0.0 Safari/537.36","WebKit","Chrome","130.0.0.0","Windows","10.0","https://hz8g1ckzuq.cognition.run/","en,en-US;q=0.9","dt157yj28cwmu29","28","[""White""]","No","Female","4499543.5","null","","<p></p>","null","choice","wwb","catch","null","televisions","75","65","10","50","45","45","2","","","","","","","","","",""
"","","","","","choice_trial","survey-html-form","145","4294249","0.0-5.0-1.30","87","1","2025-04-11 14:37:16","bb671e3ae32f654b8954ea4c4635f915","","Mozilla/5.0 (Windows NT 10.0; Win64; x64) AppleWebKit/537.36 (KHTML, like Gecko) Chrome/130.0.0.0 Safari/537.36","WebKit","Chrome","130.0.0.0","Windows","10.0","https://hz8g1ckzuq.cognition.run/","en,en-US;q=0.9","dt157yj28cwmu29","28","[""White""]","No","Female","4499543.5","5181","","","{""product_choice"":""C""}","choice","wwb","catch","null","televisions","75","65","10","50","45","45","2","null","null","null","null","null","null","Screen size","Average lifespan","",""
"","","","","","choice_trial_setup","html-keyboard-response","146","4294555","0.0-5.0-0.31","87","1","2025-04-11 14:37:16","bb671e3ae32f654b8954ea4c4635f915","","Mozilla/5.0 (Windows NT 10.0; Win64; x64) AppleWebKit/537.36 (KHTML, like Gecko) Chrome/130.0.0.0 Safari/537.36","WebKit","Chrome","130.0.0.0","Windows","10.0","https://hz8g1ckzuq.cognition.run/","en,en-US;q=0.9","dt157yj28cwmu29","28","[""White""]","No","Female","4499543.5","null","","<p></p>","null","choice","ctd","attraction_2","1","televisions","null","null","null","null","null","null","1","","","","","","","","","",""
"","","","","","choice_trial","survey-html-form","147","4302281","0.0-5.0-1.31","87","1","2025-04-11 14:37:16","bb671e3ae32f654b8954ea4c4635f915","","Mozilla/5.0 (Windows NT 10.0; Win64; x64) AppleWebKit/537.36 (KHTML, like Gecko) Chrome/130.0.0.0 Safari/537.36","WebKit","Chrome","130.0.0.0","Windows","10.0","https://hz8g1ckzuq.cognition.run/","en,en-US;q=0.9","dt157yj28cwmu29","28","[""White""]","No","Female","4499543.5","7722","","","{""product_choice"":""A""}","choice","ctd","attraction_2","1","televisions","null","null","null","null","null","null","1","60","50","60","50","60","40","Screen size","Average lifespan","",""
"","","","","","choice_trial_setup","html-keyboard-response","148","4302587","0.0-5.0-0.32","87","1","2025-04-11 14:37:16","bb671e3ae32f654b8954ea4c4635f915","","Mozilla/5.0 (Windows NT 10.0; Win64; x64) AppleWebKit/537.36 (KHTML, like Gecko) Chrome/130.0.0.0 Safari/537.36","WebKit","Chrome","130.0.0.0","Windows","10.0","https://hz8g1ckzuq.cognition.run/","en,en-US;q=0.9","dt157yj28cwmu29","28","[""White""]","No","Female","4499543.5","null","","<p></p>","null","choice","dtc","repulsion_1","1","televisions","null","null","null","null","null","null","2","","","","","","","","","",""
"","","","","","choice_trial","survey-html-form","149","4310453","0.0-5.0-1.32","87","1","2025-04-11 14:37:16","bb671e3ae32f654b8954ea4c4635f915","","Mozilla/5.0 (Windows NT 10.0; Win64; x64) AppleWebKit/537.36 (KHTML, like Gecko) Chrome/130.0.0.0 Safari/537.36","WebKit","Chrome","130.0.0.0","Windows","10.0","https://hz8g1ckzuq.cognition.run/","en,en-US;q=0.9","dt157yj28cwmu29","28","[""White""]","No","Female","4499543.5","7859","","","{""product_choice"":""C""}","choice","dtc","repulsion_1","1","televisions","null","null","null","null","null","null","2","100","90","100","30","40","25","Screen size","Average lifespan","",""
"","","","","","choice_trial_setup","html-keyboard-response","150","4310759","0.0-5.0-0.33","87","1","2025-04-11 14:37:16","bb671e3ae32f654b8954ea4c4635f915","","Mozilla/5.0 (Windows NT 10.0; Win64; x64) AppleWebKit/537.36 (KHTML, like Gecko) Chrome/130.0.0.0 Safari/537.36","WebKit","Chrome","130.0.0.0","Windows","10.0","https://hz8g1ckzuq.cognition.run/","en,en-US;q=0.9","dt157yj28cwmu29","28","[""White""]","No","Female","4499543.5","null","","<p></p>","null","choice","tdc","repulsion_1","2","washing machines","null","null","null","null","null","null","2","","","","","","","","","",""
"","","","","","choice_trial","survey-html-form","151","4315559","0.0-5.0-1.33","87","1","2025-04-11 14:37:16","bb671e3ae32f654b8954ea4c4635f915","","Mozilla/5.0 (Windows NT 10.0; Win64; x64) AppleWebKit/537.36 (KHTML, like Gecko) Chrome/130.0.0.0 Safari/537.36","WebKit","Chrome","130.0.0.0","Windows","10.0","https://hz8g1ckzuq.cognition.run/","en,en-US;q=0.9","dt157yj28cwmu29","28","[""White""]","No","Female","4499543.5","4792","","","{""product_choice"":""A""}","choice","tdc","repulsion_1","2","washing machines","null","null","null","null","null","null","2","30","40","25","100","90","100","Average lifespan","Energy savings","",""
"","","","","","choice_trial_setup","html-keyboard-response","152","4315867","0.0-5.0-0.34","87","1","2025-04-11 14:37:16","bb671e3ae32f654b8954ea4c4635f915","","Mozilla/5.0 (Windows NT 10.0; Win64; x64) AppleWebKit/537.36 (KHTML, like Gecko) Chrome/130.0.0.0 Safari/537.36","WebKit","Chrome","130.0.0.0","Windows","10.0","https://hz8g1ckzuq.cognition.run/","en,en-US;q=0.9","dt157yj28cwmu29","28","[""White""]","No","Female","4499543.5","null","","<p></p>","null","choice","dct","repulsion_2","2","laptops","null","null","null","null","null","null","1","","","","","","","","","",""
"","","","","","choice_trial","survey-html-form","153","4326731","0.0-5.0-1.34","87","1","2025-04-11 14:37:16","bb671e3ae32f654b8954ea4c4635f915","","Mozilla/5.0 (Windows NT 10.0; Win64; x64) AppleWebKit/537.36 (KHTML, like Gecko) Chrome/130.0.0.0 Safari/537.36","WebKit","Chrome","130.0.0.0","Windows","10.0","https://hz8g1ckzuq.cognition.run/","en,en-US;q=0.9","dt157yj28cwmu29","28","[""White""]","No","Female","4499543.5","10859","","","{""product_choice"":""B""}","choice","dct","repulsion_2","2","laptops","null","null","null","null","null","null","1","30","40","20","100","90","100","Processing speed","Memory (RAM)","",""
"","","","","","choice_trial_setup","html-keyboard-response","154","4327039","0.0-5.0-0.35","87","1","2025-04-11 14:37:16","bb671e3ae32f654b8954ea4c4635f915","","Mozilla/5.0 (Windows NT 10.0; Win64; x64) AppleWebKit/537.36 (KHTML, like Gecko) Chrome/130.0.0.0 Safari/537.36","WebKit","Chrome","130.0.0.0","Windows","10.0","https://hz8g1ckzuq.cognition.run/","en,en-US;q=0.9","dt157yj28cwmu29","28","[""White""]","No","Female","4499543.5","null","","<p></p>","null","choice","dtc","repulsion_1","1","laptops","null","null","null","null","null","null","2","","","","","","","","","",""
"","","","","","choice_trial","survey-html-form","155","4333914","0.0-5.0-1.35","87","1","2025-04-11 14:37:16","bb671e3ae32f654b8954ea4c4635f915","","Mozilla/5.0 (Windows NT 10.0; Win64; x64) AppleWebKit/537.36 (KHTML, like Gecko) Chrome/130.0.0.0 Safari/537.36","WebKit","Chrome","130.0.0.0","Windows","10.0","https://hz8g1ckzuq.cognition.run/","en,en-US;q=0.9","dt157yj28cwmu29","28","[""White""]","No","Female","4499543.5","6872","","","{""product_choice"":""B""}","choice","dtc","repulsion_1","1","laptops","null","null","null","null","null","null","2","100","90","100","30","40","25","Processing speed","Memory (RAM)","",""
"","","","","","choice_trial_setup","html-keyboard-response","156","4334219","0.0-5.0-0.36","87","1","2025-04-11 14:37:16","bb671e3ae32f654b8954ea4c4635f915","","Mozilla/5.0 (Windows NT 10.0; Win64; x64) AppleWebKit/537.36 (KHTML, like Gecko) Chrome/130.0.0.0 Safari/537.36","WebKit","Chrome","130.0.0.0","Windows","10.0","https://hz8g1ckzuq.cognition.run/","en,en-US;q=0.9","dt157yj28cwmu29","28","[""White""]","No","Female","4499543.5","null","","<p></p>","null","choice","cdt","attraction_2","1","washing machines","null","null","null","null","null","null","1","","","","","","","","","",""
"","","","","","choice_trial","survey-html-form","157","4339017","0.0-5.0-1.36","87","1","2025-04-11 14:37:16","bb671e3ae32f654b8954ea4c4635f915","","Mozilla/5.0 (Windows NT 10.0; Win64; x64) AppleWebKit/537.36 (KHTML, like Gecko) Chrome/130.0.0.0 Safari/537.36","WebKit","Chrome","130.0.0.0","Windows","10.0","https://hz8g1ckzuq.cognition.run/","en,en-US;q=0.9","dt157yj28cwmu29","28","[""White""]","No","Female","4499543.5","4792","","","{""product_choice"":""A""}","choice","cdt","attraction_2","1","washing machines","null","null","null","null","null","null","1","60","50","60","50","60","40","Average lifespan","Energy savings","",""
"","","","","","choice_trial_setup","html-keyboard-response","158","4339327","0.0-5.0-0.37","87","1","2025-04-11 14:37:16","bb671e3ae32f654b8954ea4c4635f915","","Mozilla/5.0 (Windows NT 10.0; Win64; x64) AppleWebKit/537.36 (KHTML, like Gecko) Chrome/130.0.0.0 Safari/537.36","WebKit","Chrome","130.0.0.0","Windows","10.0","https://hz8g1ckzuq.cognition.run/","en,en-US;q=0.9","dt157yj28cwmu29","28","[""White""]","No","Female","4499543.5","null","","<p></p>","null","choice","ctd","repulsion_2","2","washing machines","null","null","null","null","null","null","1","","","","","","","","","",""
"","","","","","choice_trial","survey-html-form","159","4344240","0.0-5.0-1.37","87","1","2025-04-11 14:37:16","bb671e3ae32f654b8954ea4c4635f915","","Mozilla/5.0 (Windows NT 10.0; Win64; x64) AppleWebKit/537.36 (KHTML, like Gecko) Chrome/130.0.0.0 Safari/537.36","WebKit","Chrome","130.0.0.0","Windows","10.0","https://hz8g1ckzuq.cognition.run/","en,en-US;q=0.9","dt157yj28cwmu29","28","[""White""]","No","Female","4499543.5","4907","","","{""product_choice"":""B""}","choice","ctd","repulsion_2","2","washing machines","null","null","null","null","null","null","1","30","40","20","100","90","100","Average lifespan","Energy savings","",""
