"success","timeout","failed_images","failed_audio","failed_video","screen_id","trial_type","trial_index","time_elapsed","internal_node_id","run_id","condition","recorded_at","source_code_version","ip","user_agent","device","browser","browser_version","platform","platform_version","referer","accept_language","ppt_id","age","race","ethnicity","gender","exp_duration","rt","view_history","stimulus","response","phase","order","effect","t_high","category","d1_best","d2_best","d1_worst1","d2_worst1","d1_worst2","d2_worst2","first_dim","d1_t","d1_c","d1_d","d2_t","d2_c","d2_d","d1_name","d2_name","strategy_response","question_order"
"true","false","[]","[]","[]","img preload","preload","0","225","0.0-0.0","88","1","2025-04-11 14:38:14","bb671e3ae32f654b8954ea4c4635f915","","Mozilla/5.0 (Macintosh; Intel Mac OS X 10.15; rv:137.0) Gecko/20100101 Firefox/137.0","Macintosh","Firefox","137.0","OS X","10.15","https://hz8g1ckzuq.cognition.run/","en-US,en;q=0.5","fta9fk24debg2mc","51","[""White""]","No","Female","1753945","","","","","","","","","","","","","","","","","","","","","","","","","",""
"true","","","","","","fullscreen","1","3165","0.0-1.0","88","1","2025-04-11 14:38:14","bb671e3ae32f654b8954ea4c4635f915","","Mozilla/5.0 (Macintosh; Intel Mac OS X 10.15; rv:137.0) Gecko/20100101 Firefox/137.0","Macintosh","Firefox","137.0","OS X","10.15","https://hz8g1ckzuq.cognition.run/","en-US,en;q=0.5","fta9fk24debg2mc","51","[""White""]","No","Female","1753945","1936","","","","","","","","","","","","","","","","","","","","","","","","",""
"","","","","","","instructions","2","62928","0.0-2.0","88","1","2025-04-11 14:38:14","bb671e3ae32f654b8954ea4c4635f915","","Mozilla/5.0 (Macintosh; Intel Mac OS X 10.15; rv:137.0) Gecko/20100101 Firefox/137.0","Macintosh","Firefox","137.0","OS X","10.15","https://hz8g1ckzuq.cognition.run/","en-US,en;q=0.5","fta9fk24debg2mc","51","[""White""]","No","Female","1753945","59762","[{""page_index"":0,""viewing_time"":1820},{""page_index"":1,""viewing_time"":4302},{""page_index"":2,""viewing_time"":3899},{""page_index"":3,""viewing_time"":4712},{""page_index"":4,""viewing_time"":7863},{""page_index"":5,""viewing_time"":5324},{""page_index"":6,""viewing_time"":5773},{""page_index"":7,""viewing_time"":16495},{""page_index"":8,""viewing_time"":5131},{""page_index"":9,""viewing_time"":4443}]","","","","","","","","","","","","","","","","","","","","","","","",""
"","","","","","rating_trial_setup","html-keyboard-response","3","63238","0.0-3.0-0.0","88","1","2025-04-11 14:38:14","bb671e3ae32f654b8954ea4c4635f915","","Mozilla/5.0 (Macintosh; Intel Mac OS X 10.15; rv:137.0) Gecko/20100101 Firefox/137.0","Macintosh","Firefox","137.0","OS X","10.15","https://hz8g1ckzuq.cognition.run/","en-US,en;q=0.5","fta9fk24debg2mc","51","[""White""]","No","Female","1753945","null","","<p></p>","null","rating","cdt","attraction_2","2","laptops","null","null","null","null","null","null","1","","","","","","","","","",""
"","","","","","rating_trial","survey-html-form","4","123381","0.0-3.0-1.0","88","1","2025-04-11 14:38:14","bb671e3ae32f654b8954ea4c4635f915","","Mozilla/5.0 (Macintosh; Intel Mac OS X 10.15; rv:137.0) Gecko/20100101 Firefox/137.0","Macintosh","Firefox","137.0","OS X","10.15","https://hz8g1ckzuq.cognition.run/","en-US,en;q=0.5","fta9fk24debg2mc","51","[""White""]","No","Female","1753945","60139","","","{""price_1"":""300"",""price_2"":""250"",""price_3"":""275""}","rating","cdt","attraction_2","2","laptops","null","null","null","null","null","null","1","50","60","40","60","50","60","Processing speed","Memory (RAM)","",""
"","","","","","rating_trial_setup","html-keyboard-response","5","123686","0.0-3.0-0.1","88","1","2025-04-11 14:38:14","bb671e3ae32f654b8954ea4c4635f915","","Mozilla/5.0 (Macintosh; Intel Mac OS X 10.15; rv:137.0) Gecko/20100101 Firefox/137.0","Macintosh","Firefox","137.0","OS X","10.15","https://hz8g1ckzuq.cognition.run/","en-US,en;q=0.5","fta9fk24debg2mc","51","[""White""]","No","Female","1753945","null","","<p></p>","null","rating","bww","catch","null","televisions","80","85","45","10","40","10","1","","","","","","","","","",""
"","","","","","rating_trial","survey-html-form","6","152864","0.0-3.0-1.1","88","1","2025-04-11 14:38:14","bb671e3ae32f654b8954ea4c4635f915","","Mozilla/5.0 (Macintosh; Intel Mac OS X 10.15; rv:137.0) Gecko/20100101 Firefox/137.0","Macintosh","Firefox","137.0","OS X","10.15","https://hz8g1ckzuq.cognition.run/","en-US,en;q=0.5","fta9fk24debg2mc","51","[""White""]","No","Female","1753945","29180","","","{""price_1"":""500"",""price_2"":""300"",""price_3"":""300""}","rating","bww","catch","null","televisions","80","85","45","10","40","10","1","null","null","null","null","null","null","Screen size","Average lifespan","",""
"","","","","","rating_trial_setup","html-keyboard-response","7","153170","0.0-3.0-0.2","88","1","2025-04-11 14:38:14","bb671e3ae32f654b8954ea4c4635f915","","Mozilla/5.0 (Macintosh; Intel Mac OS X 10.15; rv:137.0) Gecko/20100101 Firefox/137.0","Macintosh","Firefox","137.0","OS X","10.15","https://hz8g1ckzuq.cognition.run/","en-US,en;q=0.5","fta9fk24debg2mc","51","[""White""]","No","Female","1753945","null","","<p></p>","null","rating","dtc","repulsion_2","2","washing machines","null","null","null","null","null","null","1","","","","","","","","","",""
"","","","","","rating_trial","survey-html-form","8","201744","0.0-3.0-1.2","88","1","2025-04-11 14:38:14","bb671e3ae32f654b8954ea4c4635f915","","Mozilla/5.0 (Macintosh; Intel Mac OS X 10.15; rv:137.0) Gecko/20100101 Firefox/137.0","Macintosh","Firefox","137.0","OS X","10.15","https://hz8g1ckzuq.cognition.run/","en-US,en;q=0.5","fta9fk24debg2mc","51","[""White""]","No","Female","1753945","48574","","","{""price_1"":""800"",""price_2"":""850"",""price_3"":""875""}","rating","dtc","repulsion_2","2","washing machines","null","null","null","null","null","null","1","30","40","20","100","90","100","Average lifespan","Energy savings","",""
"","","","","","rating_trial_setup","html-keyboard-response","9","202052","0.0-3.0-0.3","88","1","2025-04-11 14:38:14","bb671e3ae32f654b8954ea4c4635f915","","Mozilla/5.0 (Macintosh; Intel Mac OS X 10.15; rv:137.0) Gecko/20100101 Firefox/137.0","Macintosh","Firefox","137.0","OS X","10.15","https://hz8g1ckzuq.cognition.run/","en-US,en;q=0.5","fta9fk24debg2mc","51","[""White""]","No","Female","1753945","null","","<p></p>","null","rating","wwb","catch","null","washing machines","60","60","10","15","50","5","2","","","","","","","","","",""
"","","","","","rating_trial","survey-html-form","10","235028","0.0-3.0-1.3","88","1","2025-04-11 14:38:14","bb671e3ae32f654b8954ea4c4635f915","","Mozilla/5.0 (Macintosh; Intel Mac OS X 10.15; rv:137.0) Gecko/20100101 Firefox/137.0","Macintosh","Firefox","137.0","OS X","10.15","https://hz8g1ckzuq.cognition.run/","en-US,en;q=0.5","fta9fk24debg2mc","51","[""White""]","No","Female","1753945","32974","","","{""price_1"":""550"",""price_2"":""500"",""price_3"":""750""}","rating","wwb","catch","null","washing machines","60","60","10","15","50","5","2","null","null","null","null","null","null","Average lifespan","Energy savings","",""
"","","","","","rating_trial_setup","html-keyboard-response","11","235331","0.0-3.0-0.4","88","1","2025-04-11 14:38:14","bb671e3ae32f654b8954ea4c4635f915","","Mozilla/5.0 (Macintosh; Intel Mac OS X 10.15; rv:137.0) Gecko/20100101 Firefox/137.0","Macintosh","Firefox","137.0","OS X","10.15","https://hz8g1ckzuq.cognition.run/","en-US,en;q=0.5","fta9fk24debg2mc","51","[""White""]","No","Female","1753945","null","","<p></p>","null","rating","dtc","repulsion_1","1","microwave ovens","null","null","null","null","null","null","1","","","","","","","","","",""
"","","","","","rating_trial","survey-html-form","12","293172","0.0-3.0-1.4","88","1","2025-04-11 14:38:14","bb671e3ae32f654b8954ea4c4635f915","","Mozilla/5.0 (Macintosh; Intel Mac OS X 10.15; rv:137.0) Gecko/20100101 Firefox/137.0","Macintosh","Firefox","137.0","OS X","10.15","https://hz8g1ckzuq.cognition.run/","en-US,en;q=0.5","fta9fk24debg2mc","51","[""White""]","No","Female","1753945","57837","","","{""price_1"":""85"",""price_2"":""90"",""price_3"":""100""}","rating","dtc","repulsion_1","1","microwave ovens","null","null","null","null","null","null","1","100","90","100","30","40","25","Warranty","Cooking power","",""
"","","","","","rating_trial_setup","html-keyboard-response","13","293481","0.0-3.0-0.5","88","1","2025-04-11 14:38:14","bb671e3ae32f654b8954ea4c4635f915","","Mozilla/5.0 (Macintosh; Intel Mac OS X 10.15; rv:137.0) Gecko/20100101 Firefox/137.0","Macintosh","Firefox","137.0","OS X","10.15","https://hz8g1ckzuq.cognition.run/","en-US,en;q=0.5","fta9fk24debg2mc","51","[""White""]","No","Female","1753945","null","","<p></p>","null","rating","wwb","catch","null","microwave ovens","90","55","15","40","5","40","1","","","","","","","","","",""
"","","","","","rating_trial","survey-html-form","14","315292","0.0-3.0-1.5","88","1","2025-04-11 14:38:14","bb671e3ae32f654b8954ea4c4635f915","","Mozilla/5.0 (Macintosh; Intel Mac OS X 10.15; rv:137.0) Gecko/20100101 Firefox/137.0","Macintosh","Firefox","137.0","OS X","10.15","https://hz8g1ckzuq.cognition.run/","en-US,en;q=0.5","fta9fk24debg2mc","51","[""White""]","No","Female","1753945","21808","","","{""price_1"":""90"",""price_2"":""85"",""price_3"":""100""}","rating","wwb","catch","null","microwave ovens","90","55","15","40","5","40","1","null","null","null","null","null","null","Warranty","Cooking power","",""
"","","","","","rating_trial_setup","html-keyboard-response","15","315600","0.0-3.0-0.6","88","1","2025-04-11 14:38:14","bb671e3ae32f654b8954ea4c4635f915","","Mozilla/5.0 (Macintosh; Intel Mac OS X 10.15; rv:137.0) Gecko/20100101 Firefox/137.0","Macintosh","Firefox","137.0","OS X","10.15","https://hz8g1ckzuq.cognition.run/","en-US,en;q=0.5","fta9fk24debg2mc","51","[""White""]","No","Female","1753945","null","","<p></p>","null","rating","wbw","catch","null","microwave ovens","85","55","15","25","40","35","1","","","","","","","","","",""
"","","","","","rating_trial","survey-html-form","16","341875","0.0-3.0-1.6","88","1","2025-04-11 14:38:14","bb671e3ae32f654b8954ea4c4635f915","","Mozilla/5.0 (Macintosh; Intel Mac OS X 10.15; rv:137.0) Gecko/20100101 Firefox/137.0","Macintosh","Firefox","137.0","OS X","10.15","https://hz8g1ckzuq.cognition.run/","en-US,en;q=0.5","fta9fk24debg2mc","51","[""White""]","No","Female","1753945","26272","","","{""price_1"":""100"",""price_2"":""150"",""price_3"":""125""}","rating","wbw","catch","null","microwave ovens","85","55","15","25","40","35","1","null","null","null","null","null","null","Warranty","Cooking power","",""
"","","","","","rating_trial_setup","html-keyboard-response","17","342181","0.0-3.0-0.7","88","1","2025-04-11 14:38:14","bb671e3ae32f654b8954ea4c4635f915","","Mozilla/5.0 (Macintosh; Intel Mac OS X 10.15; rv:137.0) Gecko/20100101 Firefox/137.0","Macintosh","Firefox","137.0","OS X","10.15","https://hz8g1ckzuq.cognition.run/","en-US,en;q=0.5","fta9fk24debg2mc","51","[""White""]","No","Female","1753945","null","","<p></p>","null","rating","dtc","attraction_1","2","televisions","null","null","null","null","null","null","1","","","","","","","","","",""
"","","","","","rating_trial","survey-html-form","18","421600","0.0-3.0-1.7","88","1","2025-04-11 14:38:14","bb671e3ae32f654b8954ea4c4635f915","","Mozilla/5.0 (Macintosh; Intel Mac OS X 10.15; rv:137.0) Gecko/20100101 Firefox/137.0","Macintosh","Firefox","137.0","OS X","10.15","https://hz8g1ckzuq.cognition.run/","en-US,en;q=0.5","fta9fk24debg2mc","51","[""White""]","No","Female","1753945","79416","","","{""price_1"":""150"",""price_2"":""175"",""price_3"":""180""}","rating","dtc","attraction_1","2","televisions","null","null","null","null","null","null","1","50","60","45","60","50","60","Screen size","Average lifespan","",""
"","","","","","rating_trial_setup","html-keyboard-response","19","421907","0.0-3.0-0.8","88","1","2025-04-11 14:38:14","bb671e3ae32f654b8954ea4c4635f915","","Mozilla/5.0 (Macintosh; Intel Mac OS X 10.15; rv:137.0) Gecko/20100101 Firefox/137.0","Macintosh","Firefox","137.0","OS X","10.15","https://hz8g1ckzuq.cognition.run/","en-US,en;q=0.5","fta9fk24debg2mc","51","[""White""]","No","Female","1753945","null","","<p></p>","null","rating","ctd","attraction_2","2","televisions","null","null","null","null","null","null","1","","","","","","","","","",""
"","","","","","rating_trial","survey-html-form","20","448016","0.0-3.0-1.8","88","1","2025-04-11 14:38:14","bb671e3ae32f654b8954ea4c4635f915","","Mozilla/5.0 (Macintosh; Intel Mac OS X 10.15; rv:137.0) Gecko/20100101 Firefox/137.0","Macintosh","Firefox","137.0","OS X","10.15","https://hz8g1ckzuq.cognition.run/","en-US,en;q=0.5","fta9fk24debg2mc","51","[""White""]","No","Female","1753945","26102","","","{""price_1"":""125"",""price_2"":""115"",""price_3"":""100""}","rating","ctd","attraction_2","2","televisions","null","null","null","null","null","null","1","50","60","40","60","50","60","Screen size","Average lifespan","",""
"","","","","","rating_trial_setup","html-keyboard-response","21","448321","0.0-3.0-0.9","88","1","2025-04-11 14:38:14","bb671e3ae32f654b8954ea4c4635f915","","Mozilla/5.0 (Macintosh; Intel Mac OS X 10.15; rv:137.0) Gecko/20100101 Firefox/137.0","Macintosh","Firefox","137.0","OS X","10.15","https://hz8g1ckzuq.cognition.run/","en-US,en;q=0.5","fta9fk24debg2mc","51","[""White""]","No","Female","1753945","null","","<p></p>","null","rating","dct","attraction_1","2","microwave ovens","null","null","null","null","null","null","2","","","","","","","","","",""
"","","","","","rating_trial","survey-html-form","22","475243","0.0-3.0-1.9","88","1","2025-04-11 14:38:14","bb671e3ae32f654b8954ea4c4635f915","","Mozilla/5.0 (Macintosh; Intel Mac OS X 10.15; rv:137.0) Gecko/20100101 Firefox/137.0","Macintosh","Firefox","137.0","OS X","10.15","https://hz8g1ckzuq.cognition.run/","en-US,en;q=0.5","fta9fk24debg2mc","51","[""White""]","No","Female","1753945","26918","","","{""price_1"":""125"",""price_2"":""115"",""price_3"":""125""}","rating","dct","attraction_1","2","microwave ovens","null","null","null","null","null","null","2","50","60","45","60","50","60","Warranty","Cooking power","",""
"","","","","","rating_trial_setup","html-keyboard-response","23","475554","0.0-3.0-0.10","88","1","2025-04-11 14:38:14","bb671e3ae32f654b8954ea4c4635f915","","Mozilla/5.0 (Macintosh; Intel Mac OS X 10.15; rv:137.0) Gecko/20100101 Firefox/137.0","Macintosh","Firefox","137.0","OS X","10.15","https://hz8g1ckzuq.cognition.run/","en-US,en;q=0.5","fta9fk24debg2mc","51","[""White""]","No","Female","1753945","null","","<p></p>","null","rating","tdc","repulsion_1","2","washing machines","null","null","null","null","null","null","1","","","","","","","","","",""
"","","","","","rating_trial","survey-html-form","24","537611","0.0-3.0-1.10","88","1","2025-04-11 14:38:14","bb671e3ae32f654b8954ea4c4635f915","","Mozilla/5.0 (Macintosh; Intel Mac OS X 10.15; rv:137.0) Gecko/20100101 Firefox/137.0","Macintosh","Firefox","137.0","OS X","10.15","https://hz8g1ckzuq.cognition.run/","en-US,en;q=0.5","fta9fk24debg2mc","51","[""White""]","No","Female","1753945","62056","","","{""price_1"":""750"",""price_2"":""750"",""price_3"":""700""}","rating","tdc","repulsion_1","2","washing machines","null","null","null","null","null","null","1","30","40","25","100","90","100","Average lifespan","Energy savings","",""
"","","","","","rating_trial_setup","html-keyboard-response","25","537936","0.0-3.0-0.11","88","1","2025-04-11 14:38:14","bb671e3ae32f654b8954ea4c4635f915","","Mozilla/5.0 (Macintosh; Intel Mac OS X 10.15; rv:137.0) Gecko/20100101 Firefox/137.0","Macintosh","Firefox","137.0","OS X","10.15","https://hz8g1ckzuq.cognition.run/","en-US,en;q=0.5","fta9fk24debg2mc","51","[""White""]","No","Female","1753945","null","","<p></p>","null","rating","bww","catch","null","televisions","75","65","20","40","5","40","2","","","","","","","","","",""
"","","","","","rating_trial","survey-html-form","26","564905","0.0-3.0-1.11","88","1","2025-04-11 14:38:14","bb671e3ae32f654b8954ea4c4635f915","","Mozilla/5.0 (Macintosh; Intel Mac OS X 10.15; rv:137.0) Gecko/20100101 Firefox/137.0","Macintosh","Firefox","137.0","OS X","10.15","https://hz8g1ckzuq.cognition.run/","en-US,en;q=0.5","fta9fk24debg2mc","51","[""White""]","No","Female","1753945","26965","","","{""price_1"":""300"",""price_2"":""150"",""price_3"":""100""}","rating","bww","catch","null","televisions","75","65","20","40","5","40","2","null","null","null","null","null","null","Screen size","Average lifespan","",""
"","","","","","rating_trial_setup","html-keyboard-response","27","565210","0.0-3.0-0.12","88","1","2025-04-11 14:38:14","bb671e3ae32f654b8954ea4c4635f915","","Mozilla/5.0 (Macintosh; Intel Mac OS X 10.15; rv:137.0) Gecko/20100101 Firefox/137.0","Macintosh","Firefox","137.0","OS X","10.15","https://hz8g1ckzuq.cognition.run/","en-US,en;q=0.5","fta9fk24debg2mc","51","[""White""]","No","Female","1753945","null","","<p></p>","null","rating","dtc","attraction_2","1","laptops","null","null","null","null","null","null","1","","","","","","","","","",""
"","","","","","rating_trial","survey-html-form","28","586405","0.0-3.0-1.12","88","1","2025-04-11 14:38:14","bb671e3ae32f654b8954ea4c4635f915","","Mozilla/5.0 (Macintosh; Intel Mac OS X 10.15; rv:137.0) Gecko/20100101 Firefox/137.0","Macintosh","Firefox","137.0","OS X","10.15","https://hz8g1ckzuq.cognition.run/","en-US,en;q=0.5","fta9fk24debg2mc","51","[""White""]","No","Female","1753945","21192","","","{""price_1"":""200"",""price_2"":""250"",""price_3"":""300""}","rating","dtc","attraction_2","1","laptops","null","null","null","null","null","null","1","60","50","60","50","60","40","Processing speed","Memory (RAM)","",""
"","","","","","rating_trial_setup","html-keyboard-response","29","586716","0.0-3.0-0.13","88","1","2025-04-11 14:38:14","bb671e3ae32f654b8954ea4c4635f915","","Mozilla/5.0 (Macintosh; Intel Mac OS X 10.15; rv:137.0) Gecko/20100101 Firefox/137.0","Macintosh","Firefox","137.0","OS X","10.15","https://hz8g1ckzuq.cognition.run/","en-US,en;q=0.5","fta9fk24debg2mc","51","[""White""]","No","Female","1753945","null","","<p></p>","null","rating","dct","repulsion_1","2","microwave ovens","null","null","null","null","null","null","2","","","","","","","","","",""
"","","","","","rating_trial","survey-html-form","30","609069","0.0-3.0-1.13","88","1","2025-04-11 14:38:14","bb671e3ae32f654b8954ea4c4635f915","","Mozilla/5.0 (Macintosh; Intel Mac OS X 10.15; rv:137.0) Gecko/20100101 Firefox/137.0","Macintosh","Firefox","137.0","OS X","10.15","https://hz8g1ckzuq.cognition.run/","en-US,en;q=0.5","fta9fk24debg2mc","51","[""White""]","No","Female","1753945","22349","","","{""price_1"":""200"",""price_2"":""185"",""price_3"":""215""}","rating","dct","repulsion_1","2","microwave ovens","null","null","null","null","null","null","2","30","40","25","100","90","100","Warranty","Cooking power","",""
"","","","","","rating_trial_setup","html-keyboard-response","31","609380","0.0-3.0-0.14","88","1","2025-04-11 14:38:14","bb671e3ae32f654b8954ea4c4635f915","","Mozilla/5.0 (Macintosh; Intel Mac OS X 10.15; rv:137.0) Gecko/20100101 Firefox/137.0","Macintosh","Firefox","137.0","OS X","10.15","https://hz8g1ckzuq.cognition.run/","en-US,en;q=0.5","fta9fk24debg2mc","51","[""White""]","No","Female","1753945","null","","<p></p>","null","rating","dct","repulsion_2","1","laptops","null","null","null","null","null","null","2","","","","","","","","","",""
"","","","","","rating_trial","survey-html-form","32","648141","0.0-3.0-1.14","88","1","2025-04-11 14:38:14","bb671e3ae32f654b8954ea4c4635f915","","Mozilla/5.0 (Macintosh; Intel Mac OS X 10.15; rv:137.0) Gecko/20100101 Firefox/137.0","Macintosh","Firefox","137.0","OS X","10.15","https://hz8g1ckzuq.cognition.run/","en-US,en;q=0.5","fta9fk24debg2mc","51","[""White""]","No","Female","1753945","38756","","","{""price_1"":""300"",""price_2"":""300"",""price_3"":""300""}","rating","dct","repulsion_2","1","laptops","null","null","null","null","null","null","2","100","90","100","30","40","20","Processing speed","Memory (RAM)","",""
"","","","","","rating_trial_setup","html-keyboard-response","33","648449","0.0-3.0-0.15","88","1","2025-04-11 14:38:14","bb671e3ae32f654b8954ea4c4635f915","","Mozilla/5.0 (Macintosh; Intel Mac OS X 10.15; rv:137.0) Gecko/20100101 Firefox/137.0","Macintosh","Firefox","137.0","OS X","10.15","https://hz8g1ckzuq.cognition.run/","en-US,en;q=0.5","fta9fk24debg2mc","51","[""White""]","No","Female","1753945","null","","<p></p>","null","rating","dct","repulsion_2","1","televisions","null","null","null","null","null","null","1","","","","","","","","","",""
"","","","","","rating_trial","survey-html-form","34","701889","0.0-3.0-1.15","88","1","2025-04-11 14:38:14","bb671e3ae32f654b8954ea4c4635f915","","Mozilla/5.0 (Macintosh; Intel Mac OS X 10.15; rv:137.0) Gecko/20100101 Firefox/137.0","Macintosh","Firefox","137.0","OS X","10.15","https://hz8g1ckzuq.cognition.run/","en-US,en;q=0.5","fta9fk24debg2mc","51","[""White""]","No","Female","1753945","53437","","","{""price_1"":""300"",""price_2"":""275"",""price_3"":""310""}","rating","dct","repulsion_2","1","televisions","null","null","null","null","null","null","1","100","90","100","30","40","20","Screen size","Average lifespan","",""
"","","","","","rating_trial_setup","html-keyboard-response","35","702197","0.0-3.0-0.16","88","1","2025-04-11 14:38:14","bb671e3ae32f654b8954ea4c4635f915","","Mozilla/5.0 (Macintosh; Intel Mac OS X 10.15; rv:137.0) Gecko/20100101 Firefox/137.0","Macintosh","Firefox","137.0","OS X","10.15","https://hz8g1ckzuq.cognition.run/","en-US,en;q=0.5","fta9fk24debg2mc","51","[""White""]","No","Female","1753945","null","","<p></p>","null","rating","cdt","repulsion_2","2","microwave ovens","null","null","null","null","null","null","1","","","","","","","","","",""
"","","","","","rating_trial","survey-html-form","36","719292","0.0-3.0-1.16","88","1","2025-04-11 14:38:14","bb671e3ae32f654b8954ea4c4635f915","","Mozilla/5.0 (Macintosh; Intel Mac OS X 10.15; rv:137.0) Gecko/20100101 Firefox/137.0","Macintosh","Firefox","137.0","OS X","10.15","https://hz8g1ckzuq.cognition.run/","en-US,en;q=0.5","fta9fk24debg2mc","51","[""White""]","No","Female","1753945","17090","","","{""price_1"":""200"",""price_2"":""200"",""price_3"":""200""}","rating","cdt","repulsion_2","2","microwave ovens","null","null","null","null","null","null","1","30","40","20","100","90","100","Warranty","Cooking power","",""
"","","","","","rating_trial_setup","html-keyboard-response","37","719602","0.0-3.0-0.17","88","1","2025-04-11 14:38:14","bb671e3ae32f654b8954ea4c4635f915","","Mozilla/5.0 (Macintosh; Intel Mac OS X 10.15; rv:137.0) Gecko/20100101 Firefox/137.0","Macintosh","Firefox","137.0","OS X","10.15","https://hz8g1ckzuq.cognition.run/","en-US,en;q=0.5","fta9fk24debg2mc","51","[""White""]","No","Female","1753945","null","","<p></p>","null","rating","cdt","repulsion_1","2","laptops","null","null","null","null","null","null","1","","","","","","","","","",""
"","","","","","rating_trial","survey-html-form","38","741126","0.0-3.0-1.17","88","1","2025-04-11 14:38:14","bb671e3ae32f654b8954ea4c4635f915","","Mozilla/5.0 (Macintosh; Intel Mac OS X 10.15; rv:137.0) Gecko/20100101 Firefox/137.0","Macintosh","Firefox","137.0","OS X","10.15","https://hz8g1ckzuq.cognition.run/","en-US,en;q=0.5","fta9fk24debg2mc","51","[""White""]","No","Female","1753945","21518","","","{""price_1"":""300"",""price_2"":""300"",""price_3"":""300""}","rating","cdt","repulsion_1","2","laptops","null","null","null","null","null","null","1","30","40","25","100","90","100","Processing speed","Memory (RAM)","",""
"","","","","","rating_trial_setup","html-keyboard-response","39","741434","0.0-3.0-0.18","88","1","2025-04-11 14:38:14","bb671e3ae32f654b8954ea4c4635f915","","Mozilla/5.0 (Macintosh; Intel Mac OS X 10.15; rv:137.0) Gecko/20100101 Firefox/137.0","Macintosh","Firefox","137.0","OS X","10.15","https://hz8g1ckzuq.cognition.run/","en-US,en;q=0.5","fta9fk24debg2mc","51","[""White""]","No","Female","1753945","null","","<p></p>","null","rating","tdc","attraction_2","1","televisions","null","null","null","null","null","null","2","","","","","","","","","",""
"","","","","","rating_trial","survey-html-form","40","766961","0.0-3.0-1.18","88","1","2025-04-11 14:38:14","bb671e3ae32f654b8954ea4c4635f915","","Mozilla/5.0 (Macintosh; Intel Mac OS X 10.15; rv:137.0) Gecko/20100101 Firefox/137.0","Macintosh","Firefox","137.0","OS X","10.15","https://hz8g1ckzuq.cognition.run/","en-US,en;q=0.5","fta9fk24debg2mc","51","[""White""]","No","Female","1753945","25521","","","{""price_1"":""250"",""price_2"":""250"",""price_3"":""225""}","rating","tdc","attraction_2","1","televisions","null","null","null","null","null","null","2","60","50","60","50","60","40","Screen size","Average lifespan","",""
"","","","","","rating_trial_setup","html-keyboard-response","41","767269","0.0-3.0-0.19","88","1","2025-04-11 14:38:14","bb671e3ae32f654b8954ea4c4635f915","","Mozilla/5.0 (Macintosh; Intel Mac OS X 10.15; rv:137.0) Gecko/20100101 Firefox/137.0","Macintosh","Firefox","137.0","OS X","10.15","https://hz8g1ckzuq.cognition.run/","en-US,en;q=0.5","fta9fk24debg2mc","51","[""White""]","No","Female","1753945","null","","<p></p>","null","rating","cdt","attraction_1","2","laptops","null","null","null","null","null","null","2","","","","","","","","","",""
"","","","","","rating_trial","survey-html-form","42","788241","0.0-3.0-1.19","88","1","2025-04-11 14:38:14","bb671e3ae32f654b8954ea4c4635f915","","Mozilla/5.0 (Macintosh; Intel Mac OS X 10.15; rv:137.0) Gecko/20100101 Firefox/137.0","Macintosh","Firefox","137.0","OS X","10.15","https://hz8g1ckzuq.cognition.run/","en-US,en;q=0.5","fta9fk24debg2mc","51","[""White""]","No","Female","1753945","20970","","","{""price_1"":""250"",""price_2"":""250"",""price_3"":""250""}","rating","cdt","attraction_1","2","laptops","null","null","null","null","null","null","2","50","60","45","60","50","60","Processing speed","Memory (RAM)","",""
"","","","","","rating_trial_setup","html-keyboard-response","43","788554","0.0-3.0-0.20","88","1","2025-04-11 14:38:14","bb671e3ae32f654b8954ea4c4635f915","","Mozilla/5.0 (Macintosh; Intel Mac OS X 10.15; rv:137.0) Gecko/20100101 Firefox/137.0","Macintosh","Firefox","137.0","OS X","10.15","https://hz8g1ckzuq.cognition.run/","en-US,en;q=0.5","fta9fk24debg2mc","51","[""White""]","No","Female","1753945","null","","<p></p>","null","rating","dtc","repulsion_1","1","washing machines","null","null","null","null","null","null","2","","","","","","","","","",""
"","","","","","rating_trial","survey-html-form","44","811705","0.0-3.0-1.20","88","1","2025-04-11 14:38:14","bb671e3ae32f654b8954ea4c4635f915","","Mozilla/5.0 (Macintosh; Intel Mac OS X 10.15; rv:137.0) Gecko/20100101 Firefox/137.0","Macintosh","Firefox","137.0","OS X","10.15","https://hz8g1ckzuq.cognition.run/","en-US,en;q=0.5","fta9fk24debg2mc","51","[""White""]","No","Female","1753945","23146","","","{""price_1"":""500"",""price_2"":""500"",""price_3"":""500""}","rating","dtc","repulsion_1","1","washing machines","null","null","null","null","null","null","2","100","90","100","30","40","25","Average lifespan","Energy savings","",""
"","","","","","rating_trial_setup","html-keyboard-response","45","812013","0.0-3.0-0.21","88","1","2025-04-11 14:38:14","bb671e3ae32f654b8954ea4c4635f915","","Mozilla/5.0 (Macintosh; Intel Mac OS X 10.15; rv:137.0) Gecko/20100101 Firefox/137.0","Macintosh","Firefox","137.0","OS X","10.15","https://hz8g1ckzuq.cognition.run/","en-US,en;q=0.5","fta9fk24debg2mc","51","[""White""]","No","Female","1753945","null","","<p></p>","null","rating","dct","repulsion_1","1","televisions","null","null","null","null","null","null","2","","","","","","","","","",""
"","","","","","rating_trial","survey-html-form","46","861159","0.0-3.0-1.21","88","1","2025-04-11 14:38:14","bb671e3ae32f654b8954ea4c4635f915","","Mozilla/5.0 (Macintosh; Intel Mac OS X 10.15; rv:137.0) Gecko/20100101 Firefox/137.0","Macintosh","Firefox","137.0","OS X","10.15","https://hz8g1ckzuq.cognition.run/","en-US,en;q=0.5","fta9fk24debg2mc","51","[""White""]","No","Female","1753945","49142","","","{""price_1"":""300"",""price_2"":""300"",""price_3"":""300""}","rating","dct","repulsion_1","1","televisions","null","null","null","null","null","null","2","100","90","100","30","40","25","Screen size","Average lifespan","",""
"","","","","","rating_trial_setup","html-keyboard-response","47","861472","0.0-3.0-0.22","88","1","2025-04-11 14:38:14","bb671e3ae32f654b8954ea4c4635f915","","Mozilla/5.0 (Macintosh; Intel Mac OS X 10.15; rv:137.0) Gecko/20100101 Firefox/137.0","Macintosh","Firefox","137.0","OS X","10.15","https://hz8g1ckzuq.cognition.run/","en-US,en;q=0.5","fta9fk24debg2mc","51","[""White""]","No","Female","1753945","null","","<p></p>","null","rating","dct","attraction_2","1","microwave ovens","null","null","null","null","null","null","1","","","","","","","","","",""
"","","","","","rating_trial","survey-html-form","48","877687","0.0-3.0-1.22","88","1","2025-04-11 14:38:14","bb671e3ae32f654b8954ea4c4635f915","","Mozilla/5.0 (Macintosh; Intel Mac OS X 10.15; rv:137.0) Gecko/20100101 Firefox/137.0","Macintosh","Firefox","137.0","OS X","10.15","https://hz8g1ckzuq.cognition.run/","en-US,en;q=0.5","fta9fk24debg2mc","51","[""White""]","No","Female","1753945","16208","","","{""price_1"":""90"",""price_2"":""100"",""price_3"":""100""}","rating","dct","attraction_2","1","microwave ovens","null","null","null","null","null","null","1","60","50","60","50","60","40","Warranty","Cooking power","",""
"","","","","","rating_trial_setup","html-keyboard-response","49","878004","0.0-3.0-0.23","88","1","2025-04-11 14:38:14","bb671e3ae32f654b8954ea4c4635f915","","Mozilla/5.0 (Macintosh; Intel Mac OS X 10.15; rv:137.0) Gecko/20100101 Firefox/137.0","Macintosh","Firefox","137.0","OS X","10.15","https://hz8g1ckzuq.cognition.run/","en-US,en;q=0.5","fta9fk24debg2mc","51","[""White""]","No","Female","1753945","null","","<p></p>","null","rating","cdt","repulsion_2","2","televisions","null","null","null","null","null","null","1","","","","","","","","","",""
"","","","","","rating_trial","survey-html-form","50","908962","0.0-3.0-1.23","88","1","2025-04-11 14:38:14","bb671e3ae32f654b8954ea4c4635f915","","Mozilla/5.0 (Macintosh; Intel Mac OS X 10.15; rv:137.0) Gecko/20100101 Firefox/137.0","Macintosh","Firefox","137.0","OS X","10.15","https://hz8g1ckzuq.cognition.run/","en-US,en;q=0.5","fta9fk24debg2mc","51","[""White""]","No","Female","1753945","30952","","","{""price_1"":""300"",""price_2"":""290"",""price_3"":""290""}","rating","cdt","repulsion_2","2","televisions","null","null","null","null","null","null","1","30","40","20","100","90","100","Screen size","Average lifespan","",""
"","","","","","rating_trial_setup","html-keyboard-response","51","909281","0.0-3.0-0.24","88","1","2025-04-11 14:38:14","bb671e3ae32f654b8954ea4c4635f915","","Mozilla/5.0 (Macintosh; Intel Mac OS X 10.15; rv:137.0) Gecko/20100101 Firefox/137.0","Macintosh","Firefox","137.0","OS X","10.15","https://hz8g1ckzuq.cognition.run/","en-US,en;q=0.5","fta9fk24debg2mc","51","[""White""]","No","Female","1753945","null","","<p></p>","null","rating","bww","catch","null","washing machines","55","90","15","10","50","40","1","","","","","","","","","",""
"","","","","","rating_trial","survey-html-form","52","939130","0.0-3.0-1.24","88","1","2025-04-11 14:38:14","bb671e3ae32f654b8954ea4c4635f915","","Mozilla/5.0 (Macintosh; Intel Mac OS X 10.15; rv:137.0) Gecko/20100101 Firefox/137.0","Macintosh","Firefox","137.0","OS X","10.15","https://hz8g1ckzuq.cognition.run/","en-US,en;q=0.5","fta9fk24debg2mc","51","[""White""]","No","Female","1753945","29844","","","{""price_1"":""700"",""price_2"":""300"",""price_3"":""550""}","rating","bww","catch","null","washing machines","55","90","15","10","50","40","1","null","null","null","null","null","null","Average lifespan","Energy savings","",""
"","","","","","rating_trial_setup","html-keyboard-response","53","939440","0.0-3.0-0.25","88","1","2025-04-11 14:38:14","bb671e3ae32f654b8954ea4c4635f915","","Mozilla/5.0 (Macintosh; Intel Mac OS X 10.15; rv:137.0) Gecko/20100101 Firefox/137.0","Macintosh","Firefox","137.0","OS X","10.15","https://hz8g1ckzuq.cognition.run/","en-US,en;q=0.5","fta9fk24debg2mc","51","[""White""]","No","Female","1753945","null","","<p></p>","null","rating","dtc","attraction_1","1","televisions","null","null","null","null","null","null","1","","","","","","","","","",""
"","","","","","rating_trial","survey-html-form","54","956319","0.0-3.0-1.25","88","1","2025-04-11 14:38:14","bb671e3ae32f654b8954ea4c4635f915","","Mozilla/5.0 (Macintosh; Intel Mac OS X 10.15; rv:137.0) Gecko/20100101 Firefox/137.0","Macintosh","Firefox","137.0","OS X","10.15","https://hz8g1ckzuq.cognition.run/","en-US,en;q=0.5","fta9fk24debg2mc","51","[""White""]","No","Female","1753945","16874","","","{""price_1"":""300"",""price_2"":""300"",""price_3"":""300""}","rating","dtc","attraction_1","1","televisions","null","null","null","null","null","null","1","60","50","60","50","60","45","Screen size","Average lifespan","",""
"","","","","","rating_trial_setup","html-keyboard-response","55","956625","0.0-3.0-0.26","88","1","2025-04-11 14:38:14","bb671e3ae32f654b8954ea4c4635f915","","Mozilla/5.0 (Macintosh; Intel Mac OS X 10.15; rv:137.0) Gecko/20100101 Firefox/137.0","Macintosh","Firefox","137.0","OS X","10.15","https://hz8g1ckzuq.cognition.run/","en-US,en;q=0.5","fta9fk24debg2mc","51","[""White""]","No","Female","1753945","null","","<p></p>","null","rating","dct","repulsion_2","1","washing machines","null","null","null","null","null","null","2","","","","","","","","","",""
"","","","","","rating_trial","survey-html-form","56","980022","0.0-3.0-1.26","88","1","2025-04-11 14:38:14","bb671e3ae32f654b8954ea4c4635f915","","Mozilla/5.0 (Macintosh; Intel Mac OS X 10.15; rv:137.0) Gecko/20100101 Firefox/137.0","Macintosh","Firefox","137.0","OS X","10.15","https://hz8g1ckzuq.cognition.run/","en-US,en;q=0.5","fta9fk24debg2mc","51","[""White""]","No","Female","1753945","23390","","","{""price_1"":""550"",""price_2"":""600"",""price_3"":""600""}","rating","dct","repulsion_2","1","washing machines","null","null","null","null","null","null","2","100","90","100","30","40","20","Average lifespan","Energy savings","",""
"","","","","","rating_trial_setup","html-keyboard-response","57","980333","0.0-3.0-0.27","88","1","2025-04-11 14:38:14","bb671e3ae32f654b8954ea4c4635f915","","Mozilla/5.0 (Macintosh; Intel Mac OS X 10.15; rv:137.0) Gecko/20100101 Firefox/137.0","Macintosh","Firefox","137.0","OS X","10.15","https://hz8g1ckzuq.cognition.run/","en-US,en;q=0.5","fta9fk24debg2mc","51","[""White""]","No","Female","1753945","null","","<p></p>","null","rating","ctd","repulsion_2","2","laptops","null","null","null","null","null","null","2","","","","","","","","","",""
"","","","","","rating_trial","survey-html-form","58","1003670","0.0-3.0-1.27","88","1","2025-04-11 14:38:14","bb671e3ae32f654b8954ea4c4635f915","","Mozilla/5.0 (Macintosh; Intel Mac OS X 10.15; rv:137.0) Gecko/20100101 Firefox/137.0","Macintosh","Firefox","137.0","OS X","10.15","https://hz8g1ckzuq.cognition.run/","en-US,en;q=0.5","fta9fk24debg2mc","51","[""White""]","No","Female","1753945","23330","","","{""price_1"":""300"",""price_2"":""350"",""price_3"":""350""}","rating","ctd","repulsion_2","2","laptops","null","null","null","null","null","null","2","30","40","20","100","90","100","Processing speed","Memory (RAM)","",""
"","","","","","rating_trial_setup","html-keyboard-response","59","1003975","0.0-3.0-0.28","88","1","2025-04-11 14:38:14","bb671e3ae32f654b8954ea4c4635f915","","Mozilla/5.0 (Macintosh; Intel Mac OS X 10.15; rv:137.0) Gecko/20100101 Firefox/137.0","Macintosh","Firefox","137.0","OS X","10.15","https://hz8g1ckzuq.cognition.run/","en-US,en;q=0.5","fta9fk24debg2mc","51","[""White""]","No","Female","1753945","null","","<p></p>","null","rating","wwb","catch","null","laptops","60","95","40","25","35","5","2","","","","","","","","","",""
"","","","","","rating_trial","survey-html-form","60","1030597","0.0-3.0-1.28","88","1","2025-04-11 14:38:14","bb671e3ae32f654b8954ea4c4635f915","","Mozilla/5.0 (Macintosh; Intel Mac OS X 10.15; rv:137.0) Gecko/20100101 Firefox/137.0","Macintosh","Firefox","137.0","OS X","10.15","https://hz8g1ckzuq.cognition.run/","en-US,en;q=0.5","fta9fk24debg2mc","51","[""White""]","No","Female","1753945","26618","","","{""price_1"":""250"",""price_2"":""100"",""price_3"":""400""}","rating","wwb","catch","null","laptops","60","95","40","25","35","5","2","null","null","null","null","null","null","Processing speed","Memory (RAM)","",""
"","","","","","rating_trial_setup","html-keyboard-response","61","1030903","0.0-3.0-0.29","88","1","2025-04-11 14:38:14","bb671e3ae32f654b8954ea4c4635f915","","Mozilla/5.0 (Macintosh; Intel Mac OS X 10.15; rv:137.0) Gecko/20100101 Firefox/137.0","Macintosh","Firefox","137.0","OS X","10.15","https://hz8g1ckzuq.cognition.run/","en-US,en;q=0.5","fta9fk24debg2mc","51","[""White""]","No","Female","1753945","null","","<p></p>","null","rating","dtc","attraction_1","1","laptops","null","null","null","null","null","null","1","","","","","","","","","",""
"","","","","","rating_trial","survey-html-form","62","1046338","0.0-3.0-1.29","88","1","2025-04-11 14:38:14","bb671e3ae32f654b8954ea4c4635f915","","Mozilla/5.0 (Macintosh; Intel Mac OS X 10.15; rv:137.0) Gecko/20100101 Firefox/137.0","Macintosh","Firefox","137.0","OS X","10.15","https://hz8g1ckzuq.cognition.run/","en-US,en;q=0.5","fta9fk24debg2mc","51","[""White""]","No","Female","1753945","15428","","","{""price_1"":""250"",""price_2"":""250"",""price_3"":""275""}","rating","dtc","attraction_1","1","laptops","null","null","null","null","null","null","1","60","50","60","50","60","45","Processing speed","Memory (RAM)","",""
"","","","","","rating_trial_setup","html-keyboard-response","63","1046651","0.0-3.0-0.30","88","1","2025-04-11 14:38:14","bb671e3ae32f654b8954ea4c4635f915","","Mozilla/5.0 (Macintosh; Intel Mac OS X 10.15; rv:137.0) Gecko/20100101 Firefox/137.0","Macintosh","Firefox","137.0","OS X","10.15","https://hz8g1ckzuq.cognition.run/","en-US,en;q=0.5","fta9fk24debg2mc","51","[""White""]","No","Female","1753945","null","","<p></p>","null","rating","tcd","attraction_2","2","microwave ovens","null","null","null","null","null","null","2","","","","","","","","","",""
"","","","","","rating_trial","survey-html-form","64","1059459","0.0-3.0-1.30","88","1","2025-04-11 14:38:14","bb671e3ae32f654b8954ea4c4635f915","","Mozilla/5.0 (Macintosh; Intel Mac OS X 10.15; rv:137.0) Gecko/20100101 Firefox/137.0","Macintosh","Firefox","137.0","OS X","10.15","https://hz8g1ckzuq.cognition.run/","en-US,en;q=0.5","fta9fk24debg2mc","51","[""White""]","No","Female","1753945","12801","","","{""price_1"":""200"",""price_2"":""200"",""price_3"":""200""}","rating","tcd","attraction_2","2","microwave ovens","null","null","null","null","null","null","2","50","60","40","60","50","60","Warranty","Cooking power","",""
"","","","","","rating_trial_setup","html-keyboard-response","65","1059769","0.0-3.0-0.31","88","1","2025-04-11 14:38:14","bb671e3ae32f654b8954ea4c4635f915","","Mozilla/5.0 (Macintosh; Intel Mac OS X 10.15; rv:137.0) Gecko/20100101 Firefox/137.0","Macintosh","Firefox","137.0","OS X","10.15","https://hz8g1ckzuq.cognition.run/","en-US,en;q=0.5","fta9fk24debg2mc","51","[""White""]","No","Female","1753945","null","","<p></p>","null","rating","dct","repulsion_1","1","laptops","null","null","null","null","null","null","1","","","","","","","","","",""
"","","","","","rating_trial","survey-html-form","66","1079590","0.0-3.0-1.31","88","1","2025-04-11 14:38:14","bb671e3ae32f654b8954ea4c4635f915","","Mozilla/5.0 (Macintosh; Intel Mac OS X 10.15; rv:137.0) Gecko/20100101 Firefox/137.0","Macintosh","Firefox","137.0","OS X","10.15","https://hz8g1ckzuq.cognition.run/","en-US,en;q=0.5","fta9fk24debg2mc","51","[""White""]","No","Female","1753945","19814","","","{""price_1"":""350"",""price_2"":""375"",""price_3"":""350""}","rating","dct","repulsion_1","1","laptops","null","null","null","null","null","null","1","100","90","100","30","40","25","Processing speed","Memory (RAM)","",""
"","","","","","rating_trial_setup","html-keyboard-response","67","1079899","0.0-3.0-0.32","88","1","2025-04-11 14:38:14","bb671e3ae32f654b8954ea4c4635f915","","Mozilla/5.0 (Macintosh; Intel Mac OS X 10.15; rv:137.0) Gecko/20100101 Firefox/137.0","Macintosh","Firefox","137.0","OS X","10.15","https://hz8g1ckzuq.cognition.run/","en-US,en;q=0.5","fta9fk24debg2mc","51","[""White""]","No","Female","1753945","null","","<p></p>","null","rating","ctd","attraction_2","2","washing machines","null","null","null","null","null","null","1","","","","","","","","","",""
"","","","","","rating_trial","survey-html-form","68","1096585","0.0-3.0-1.32","88","1","2025-04-11 14:38:14","bb671e3ae32f654b8954ea4c4635f915","","Mozilla/5.0 (Macintosh; Intel Mac OS X 10.15; rv:137.0) Gecko/20100101 Firefox/137.0","Macintosh","Firefox","137.0","OS X","10.15","https://hz8g1ckzuq.cognition.run/","en-US,en;q=0.5","fta9fk24debg2mc","51","[""White""]","No","Female","1753945","16678","","","{""price_1"":""400"",""price_2"":""400"",""price_3"":""400""}","rating","ctd","attraction_2","2","washing machines","null","null","null","null","null","null","1","50","60","40","60","50","60","Average lifespan","Energy savings","",""
"","","","","","rating_trial_setup","html-keyboard-response","69","1096893","0.0-3.0-0.33","88","1","2025-04-11 14:38:14","bb671e3ae32f654b8954ea4c4635f915","","Mozilla/5.0 (Macintosh; Intel Mac OS X 10.15; rv:137.0) Gecko/20100101 Firefox/137.0","Macintosh","Firefox","137.0","OS X","10.15","https://hz8g1ckzuq.cognition.run/","en-US,en;q=0.5","fta9fk24debg2mc","51","[""White""]","No","Female","1753945","null","","<p></p>","null","rating","tcd","attraction_1","2","washing machines","null","null","null","null","null","null","2","","","","","","","","","",""
"","","","","","rating_trial","survey-html-form","70","1109095","0.0-3.0-1.33","88","1","2025-04-11 14:38:14","bb671e3ae32f654b8954ea4c4635f915","","Mozilla/5.0 (Macintosh; Intel Mac OS X 10.15; rv:137.0) Gecko/20100101 Firefox/137.0","Macintosh","Firefox","137.0","OS X","10.15","https://hz8g1ckzuq.cognition.run/","en-US,en;q=0.5","fta9fk24debg2mc","51","[""White""]","No","Female","1753945","12196","","","{""price_1"":""500"",""price_2"":""500"",""price_3"":""500""}","rating","tcd","attraction_1","2","washing machines","null","null","null","null","null","null","2","50","60","45","60","50","60","Average lifespan","Energy savings","",""
"","","","","","rating_trial_setup","html-keyboard-response","71","1109405","0.0-3.0-0.34","88","1","2025-04-11 14:38:14","bb671e3ae32f654b8954ea4c4635f915","","Mozilla/5.0 (Macintosh; Intel Mac OS X 10.15; rv:137.0) Gecko/20100101 Firefox/137.0","Macintosh","Firefox","137.0","OS X","10.15","https://hz8g1ckzuq.cognition.run/","en-US,en;q=0.5","fta9fk24debg2mc","51","[""White""]","No","Female","1753945","null","","<p></p>","null","rating","dtc","repulsion_1","2","televisions","null","null","null","null","null","null","1","","","","","","","","","",""
"","","","","","rating_trial","survey-html-form","72","1127305","0.0-3.0-1.34","88","1","2025-04-11 14:38:14","bb671e3ae32f654b8954ea4c4635f915","","Mozilla/5.0 (Macintosh; Intel Mac OS X 10.15; rv:137.0) Gecko/20100101 Firefox/137.0","Macintosh","Firefox","137.0","OS X","10.15","https://hz8g1ckzuq.cognition.run/","en-US,en;q=0.5","fta9fk24debg2mc","51","[""White""]","No","Female","1753945","17892","","","{""price_1"":""200"",""price_2"":""200"",""price_3"":""225""}","rating","dtc","repulsion_1","2","televisions","null","null","null","null","null","null","1","30","40","25","100","90","100","Screen size","Average lifespan","",""
"","","","","","rating_trial_setup","html-keyboard-response","73","1127615","0.0-3.0-0.35","88","1","2025-04-11 14:38:14","bb671e3ae32f654b8954ea4c4635f915","","Mozilla/5.0 (Macintosh; Intel Mac OS X 10.15; rv:137.0) Gecko/20100101 Firefox/137.0","Macintosh","Firefox","137.0","OS X","10.15","https://hz8g1ckzuq.cognition.run/","en-US,en;q=0.5","fta9fk24debg2mc","51","[""White""]","No","Female","1753945","null","","<p></p>","null","rating","cdt","attraction_1","1","washing machines","null","null","null","null","null","null","1","","","","","","","","","",""
"","","","","","rating_trial","survey-html-form","74","1150809","0.0-3.0-1.35","88","1","2025-04-11 14:38:14","bb671e3ae32f654b8954ea4c4635f915","","Mozilla/5.0 (Macintosh; Intel Mac OS X 10.15; rv:137.0) Gecko/20100101 Firefox/137.0","Macintosh","Firefox","137.0","OS X","10.15","https://hz8g1ckzuq.cognition.run/","en-US,en;q=0.5","fta9fk24debg2mc","51","[""White""]","No","Female","1753945","23187","","","{""price_1"":""450"",""price_2"":""425"",""price_3"":""425""}","rating","cdt","attraction_1","1","washing machines","null","null","null","null","null","null","1","60","50","60","50","60","45","Average lifespan","Energy savings","",""
"","","","","","rating_trial_setup","html-keyboard-response","75","1151116","0.0-3.0-0.36","88","1","2025-04-11 14:38:14","bb671e3ae32f654b8954ea4c4635f915","","Mozilla/5.0 (Macintosh; Intel Mac OS X 10.15; rv:137.0) Gecko/20100101 Firefox/137.0","Macintosh","Firefox","137.0","OS X","10.15","https://hz8g1ckzuq.cognition.run/","en-US,en;q=0.5","fta9fk24debg2mc","51","[""White""]","No","Female","1753945","null","","<p></p>","null","rating","cdt","repulsion_2","1","microwave ovens","null","null","null","null","null","null","2","","","","","","","","","",""
"","","","","","rating_trial","survey-html-form","76","1169347","0.0-3.0-1.36","88","1","2025-04-11 14:38:14","bb671e3ae32f654b8954ea4c4635f915","","Mozilla/5.0 (Macintosh; Intel Mac OS X 10.15; rv:137.0) Gecko/20100101 Firefox/137.0","Macintosh","Firefox","137.0","OS X","10.15","https://hz8g1ckzuq.cognition.run/","en-US,en;q=0.5","fta9fk24debg2mc","51","[""White""]","No","Female","1753945","18224","","","{""price_1"":""150"",""price_2"":""125"",""price_3"":""125""}","rating","cdt","repulsion_2","1","microwave ovens","null","null","null","null","null","null","2","100","90","100","30","40","20","Warranty","Cooking power","",""
"","","","","","rating_trial_setup","html-keyboard-response","77","1169660","0.0-3.0-0.37","88","1","2025-04-11 14:38:14","bb671e3ae32f654b8954ea4c4635f915","","Mozilla/5.0 (Macintosh; Intel Mac OS X 10.15; rv:137.0) Gecko/20100101 Firefox/137.0","Macintosh","Firefox","137.0","OS X","10.15","https://hz8g1ckzuq.cognition.run/","en-US,en;q=0.5","fta9fk24debg2mc","51","[""White""]","No","Female","1753945","null","","<p></p>","null","rating","wbw","catch","null","laptops","75","55","35","10","20","5","2","","","","","","","","","",""
"","","","","","rating_trial","survey-html-form","78","1196018","0.0-3.0-1.37","88","1","2025-04-11 14:38:14","bb671e3ae32f654b8954ea4c4635f915","","Mozilla/5.0 (Macintosh; Intel Mac OS X 10.15; rv:137.0) Gecko/20100101 Firefox/137.0","Macintosh","Firefox","137.0","OS X","10.15","https://hz8g1ckzuq.cognition.run/","en-US,en;q=0.5","fta9fk24debg2mc","51","[""White""]","No","Female","1753945","26350","","","{""price_1"":""100"",""price_2"":""300"",""price_3"":""95""}","rating","wbw","catch","null","laptops","75","55","35","10","20","5","2","null","null","null","null","null","null","Processing speed","Memory (RAM)","",""
"","","","","","rating_trial_setup","html-keyboard-response","79","1196327","0.0-3.0-0.38","88","1","2025-04-11 14:38:14","bb671e3ae32f654b8954ea4c4635f915","","Mozilla/5.0 (Macintosh; Intel Mac OS X 10.15; rv:137.0) Gecko/20100101 Firefox/137.0","Macintosh","Firefox","137.0","OS X","10.15","https://hz8g1ckzuq.cognition.run/","en-US,en;q=0.5","fta9fk24debg2mc","51","[""White""]","No","Female","1753945","null","","<p></p>","null","rating","cdt","attraction_1","1","microwave ovens","null","null","null","null","null","null","2","","","","","","","","","",""
"","","","","","rating_trial","survey-html-form","80","1213570","0.0-3.0-1.38","88","1","2025-04-11 14:38:14","bb671e3ae32f654b8954ea4c4635f915","","Mozilla/5.0 (Macintosh; Intel Mac OS X 10.15; rv:137.0) Gecko/20100101 Firefox/137.0","Macintosh","Firefox","137.0","OS X","10.15","https://hz8g1ckzuq.cognition.run/","en-US,en;q=0.5","fta9fk24debg2mc","51","[""White""]","No","Female","1753945","17239","","","{""price_1"":""150"",""price_2"":""150"",""price_3"":""150""}","rating","cdt","attraction_1","1","microwave ovens","null","null","null","null","null","null","2","60","50","60","50","60","45","Warranty","Cooking power","",""
"","","","","","rating_trial_setup","html-keyboard-response","81","1213878","0.0-3.0-0.39","88","1","2025-04-11 14:38:14","bb671e3ae32f654b8954ea4c4635f915","","Mozilla/5.0 (Macintosh; Intel Mac OS X 10.15; rv:137.0) Gecko/20100101 Firefox/137.0","Macintosh","Firefox","137.0","OS X","10.15","https://hz8g1ckzuq.cognition.run/","en-US,en;q=0.5","fta9fk24debg2mc","51","[""White""]","No","Female","1753945","null","","<p></p>","null","rating","ctd","attraction_2","1","washing machines","null","null","null","null","null","null","2","","","","","","","","","",""
"","","","","","rating_trial","survey-html-form","82","1233353","0.0-3.0-1.39","88","1","2025-04-11 14:38:14","bb671e3ae32f654b8954ea4c4635f915","","Mozilla/5.0 (Macintosh; Intel Mac OS X 10.15; rv:137.0) Gecko/20100101 Firefox/137.0","Macintosh","Firefox","137.0","OS X","10.15","https://hz8g1ckzuq.cognition.run/","en-US,en;q=0.5","fta9fk24debg2mc","51","[""White""]","No","Female","1753945","19471","","","{""price_1"":""400"",""price_2"":""400"",""price_3"":""400""}","rating","ctd","attraction_2","1","washing machines","null","null","null","null","null","null","2","60","50","60","50","60","40","Average lifespan","Energy savings","",""
"","","","","","","instructions","83","1412960","0.0-4.0","88","1","2025-04-11 14:38:14","bb671e3ae32f654b8954ea4c4635f915","","Mozilla/5.0 (Macintosh; Intel Mac OS X 10.15; rv:137.0) Gecko/20100101 Firefox/137.0","Macintosh","Firefox","137.0","OS X","10.15","https://hz8g1ckzuq.cognition.run/","en-US,en;q=0.5","fta9fk24debg2mc","51","[""White""]","No","Female","1753945","179602","[{""page_index"":0,""viewing_time"":147216},{""page_index"":1,""viewing_time"":1577},{""page_index"":2,""viewing_time"":3149},{""page_index"":3,""viewing_time"":3644},{""page_index"":4,""viewing_time"":5179},{""page_index"":5,""viewing_time"":5335},{""page_index"":6,""viewing_time"":7563},{""page_index"":7,""viewing_time"":5939}]","","","","","","","","","","","","","","","","","","","","","","","",""
"","","","","","choice_trial_setup","html-keyboard-response","84","1413270","0.0-5.0-0.0","88","1","2025-04-11 14:38:14","bb671e3ae32f654b8954ea4c4635f915","","Mozilla/5.0 (Macintosh; Intel Mac OS X 10.15; rv:137.0) Gecko/20100101 Firefox/137.0","Macintosh","Firefox","137.0","OS X","10.15","https://hz8g1ckzuq.cognition.run/","en-US,en;q=0.5","fta9fk24debg2mc","51","[""White""]","No","Female","1753945","null","","<p></p>","null","choice","bww","catch","null","laptops","65","70","30","5","5","15","1","","","","","","","","","",""
"","","","","","choice_trial","survey-html-form","85","1420341","0.0-5.0-1.0","88","1","2025-04-11 14:38:14","bb671e3ae32f654b8954ea4c4635f915","","Mozilla/5.0 (Macintosh; Intel Mac OS X 10.15; rv:137.0) Gecko/20100101 Firefox/137.0","Macintosh","Firefox","137.0","OS X","10.15","https://hz8g1ckzuq.cognition.run/","en-US,en;q=0.5","fta9fk24debg2mc","51","[""White""]","No","Female","1753945","7064","","","{""product_choice"":""A""}","choice","bww","catch","null","laptops","65","70","30","5","5","15","1","null","null","null","null","null","null","Processing speed","Memory (RAM)","",""
"","","","","","choice_trial_setup","html-keyboard-response","86","1420652","0.0-5.0-0.1","88","1","2025-04-11 14:38:14","bb671e3ae32f654b8954ea4c4635f915","","Mozilla/5.0 (Macintosh; Intel Mac OS X 10.15; rv:137.0) Gecko/20100101 Firefox/137.0","Macintosh","Firefox","137.0","OS X","10.15","https://hz8g1ckzuq.cognition.run/","en-US,en;q=0.5","fta9fk24debg2mc","51","[""White""]","No","Female","1753945","null","","<p></p>","null","choice","tdc","attraction_2","1","laptops","null","null","null","null","null","null","2","","","","","","","","","",""
"","","","","","choice_trial","survey-html-form","87","1433946","0.0-5.0-1.1","88","1","2025-04-11 14:38:14","bb671e3ae32f654b8954ea4c4635f915","","Mozilla/5.0 (Macintosh; Intel Mac OS X 10.15; rv:137.0) Gecko/20100101 Firefox/137.0","Macintosh","Firefox","137.0","OS X","10.15","https://hz8g1ckzuq.cognition.run/","en-US,en;q=0.5","fta9fk24debg2mc","51","[""White""]","No","Female","1753945","13286","","","{""product_choice"":""A""}","choice","tdc","attraction_2","1","laptops","null","null","null","null","null","null","2","60","50","60","50","60","40","Processing speed","Memory (RAM)","",""
"","","","","","choice_trial_setup","html-keyboard-response","88","1434259","0.0-5.0-0.2","88","1","2025-04-11 14:38:14","bb671e3ae32f654b8954ea4c4635f915","","Mozilla/5.0 (Macintosh; Intel Mac OS X 10.15; rv:137.0) Gecko/20100101 Firefox/137.0","Macintosh","Firefox","137.0","OS X","10.15","https://hz8g1ckzuq.cognition.run/","en-US,en;q=0.5","fta9fk24debg2mc","51","[""White""]","No","Female","1753945","null","","<p></p>","null","choice","cdt","repulsion_1","1","microwave ovens","null","null","null","null","null","null","2","","","","","","","","","",""
"","","","","","choice_trial","survey-html-form","89","1439697","0.0-5.0-1.2","88","1","2025-04-11 14:38:14","bb671e3ae32f654b8954ea4c4635f915","","Mozilla/5.0 (Macintosh; Intel Mac OS X 10.15; rv:137.0) Gecko/20100101 Firefox/137.0","Macintosh","Firefox","137.0","OS X","10.15","https://hz8g1ckzuq.cognition.run/","en-US,en;q=0.5","fta9fk24debg2mc","51","[""White""]","No","Female","1753945","5431","","","{""product_choice"":""A""}","choice","cdt","repulsion_1","1","microwave ovens","null","null","null","null","null","null","2","100","90","100","30","40","25","Warranty","Cooking power","",""
"","","","","","choice_trial_setup","html-keyboard-response","90","1440005","0.0-5.0-0.3","88","1","2025-04-11 14:38:14","bb671e3ae32f654b8954ea4c4635f915","","Mozilla/5.0 (Macintosh; Intel Mac OS X 10.15; rv:137.0) Gecko/20100101 Firefox/137.0","Macintosh","Firefox","137.0","OS X","10.15","https://hz8g1ckzuq.cognition.run/","en-US,en;q=0.5","fta9fk24debg2mc","51","[""White""]","No","Female","1753945","null","","<p></p>","null","choice","tdc","attraction_2","2","televisions","null","null","null","null","null","null","1","","","","","","","","","",""
"","","","","","choice_trial","survey-html-form","91","1445362","0.0-5.0-1.3","88","1","2025-04-11 14:38:14","bb671e3ae32f654b8954ea4c4635f915","","Mozilla/5.0 (Macintosh; Intel Mac OS X 10.15; rv:137.0) Gecko/20100101 Firefox/137.0","Macintosh","Firefox","137.0","OS X","10.15","https://hz8g1ckzuq.cognition.run/","en-US,en;q=0.5","fta9fk24debg2mc","51","[""White""]","No","Female","1753945","5350","","","{""product_choice"":""C""}","choice","tdc","attraction_2","2","televisions","null","null","null","null","null","null","1","50","60","40","60","50","60","Screen size","Average lifespan","",""
"","","","","","choice_trial_setup","html-keyboard-response","92","1445674","0.0-5.0-0.4","88","1","2025-04-11 14:38:14","bb671e3ae32f654b8954ea4c4635f915","","Mozilla/5.0 (Macintosh; Intel Mac OS X 10.15; rv:137.0) Gecko/20100101 Firefox/137.0","Macintosh","Firefox","137.0","OS X","10.15","https://hz8g1ckzuq.cognition.run/","en-US,en;q=0.5","fta9fk24debg2mc","51","[""White""]","No","Female","1753945","null","","<p></p>","null","choice","wwb","catch","null","televisions","70","60","10","15","5","45","1","","","","","","","","","",""
"","","","","","choice_trial","survey-html-form","93","1449889","0.0-5.0-1.4","88","1","2025-04-11 14:38:14","bb671e3ae32f654b8954ea4c4635f915","","Mozilla/5.0 (Macintosh; Intel Mac OS X 10.15; rv:137.0) Gecko/20100101 Firefox/137.0","Macintosh","Firefox","137.0","OS X","10.15","https://hz8g1ckzuq.cognition.run/","en-US,en;q=0.5","fta9fk24debg2mc","51","[""White""]","No","Female","1753945","4208","","","{""product_choice"":""C""}","choice","wwb","catch","null","televisions","70","60","10","15","5","45","1","null","null","null","null","null","null","Screen size","Average lifespan","",""
"","","","","","choice_trial_setup","html-keyboard-response","94","1450201","0.0-5.0-0.5","88","1","2025-04-11 14:38:14","bb671e3ae32f654b8954ea4c4635f915","","Mozilla/5.0 (Macintosh; Intel Mac OS X 10.15; rv:137.0) Gecko/20100101 Firefox/137.0","Macintosh","Firefox","137.0","OS X","10.15","https://hz8g1ckzuq.cognition.run/","en-US,en;q=0.5","fta9fk24debg2mc","51","[""White""]","No","Female","1753945","null","","<p></p>","null","choice","wbw","catch","null","laptops","85","60","25","45","25","30","2","","","","","","","","","",""
"","","","","","choice_trial","survey-html-form","95","1456373","0.0-5.0-1.5","88","1","2025-04-11 14:38:14","bb671e3ae32f654b8954ea4c4635f915","","Mozilla/5.0 (Macintosh; Intel Mac OS X 10.15; rv:137.0) Gecko/20100101 Firefox/137.0","Macintosh","Firefox","137.0","OS X","10.15","https://hz8g1ckzuq.cognition.run/","en-US,en;q=0.5","fta9fk24debg2mc","51","[""White""]","No","Female","1753945","6164","","","{""product_choice"":""B""}","choice","wbw","catch","null","laptops","85","60","25","45","25","30","2","null","null","null","null","null","null","Processing speed","Memory (RAM)","",""
"","","","","","choice_trial_setup","html-keyboard-response","96","1456683","0.0-5.0-0.6","88","1","2025-04-11 14:38:14","bb671e3ae32f654b8954ea4c4635f915","","Mozilla/5.0 (Macintosh; Intel Mac OS X 10.15; rv:137.0) Gecko/20100101 Firefox/137.0","Macintosh","Firefox","137.0","OS X","10.15","https://hz8g1ckzuq.cognition.run/","en-US,en;q=0.5","fta9fk24debg2mc","51","[""White""]","No","Female","1753945","null","","<p></p>","null","choice","dtc","repulsion_1","2","laptops","null","null","null","null","null","null","1","","","","","","","","","",""
"","","","","","choice_trial","survey-html-form","97","1464485","0.0-5.0-1.6","88","1","2025-04-11 14:38:14","bb671e3ae32f654b8954ea4c4635f915","","Mozilla/5.0 (Macintosh; Intel Mac OS X 10.15; rv:137.0) Gecko/20100101 Firefox/137.0","Macintosh","Firefox","137.0","OS X","10.15","https://hz8g1ckzuq.cognition.run/","en-US,en;q=0.5","fta9fk24debg2mc","51","[""White""]","No","Female","1753945","7795","","","{""product_choice"":""C""}","choice","dtc","repulsion_1","2","laptops","null","null","null","null","null","null","1","30","40","25","100","90","100","Processing speed","Memory (RAM)","",""
"","","","","","choice_trial_setup","html-keyboard-response","98","1464796","0.0-5.0-0.7","88","1","2025-04-11 14:38:14","bb671e3ae32f654b8954ea4c4635f915","","Mozilla/5.0 (Macintosh; Intel Mac OS X 10.15; rv:137.0) Gecko/20100101 Firefox/137.0","Macintosh","Firefox","137.0","OS X","10.15","https://hz8g1ckzuq.cognition.run/","en-US,en;q=0.5","fta9fk24debg2mc","51","[""White""]","No","Female","1753945","null","","<p></p>","null","choice","dct","repulsion_1","2","microwave ovens","null","null","null","null","null","null","1","","","","","","","","","",""
"","","","","","choice_trial","survey-html-form","99","1469899","0.0-5.0-1.7","88","1","2025-04-11 14:38:14","bb671e3ae32f654b8954ea4c4635f915","","Mozilla/5.0 (Macintosh; Intel Mac OS X 10.15; rv:137.0) Gecko/20100101 Firefox/137.0","Macintosh","Firefox","137.0","OS X","10.15","https://hz8g1ckzuq.cognition.run/","en-US,en;q=0.5","fta9fk24debg2mc","51","[""White""]","No","Female","1753945","5096","","","{""product_choice"":""C""}","choice","dct","repulsion_1","2","microwave ovens","null","null","null","null","null","null","1","30","40","25","100","90","100","Warranty","Cooking power","",""
"","","","","","choice_trial_setup","html-keyboard-response","100","1470206","0.0-5.0-0.8","88","1","2025-04-11 14:38:14","bb671e3ae32f654b8954ea4c4635f915","","Mozilla/5.0 (Macintosh; Intel Mac OS X 10.15; rv:137.0) Gecko/20100101 Firefox/137.0","Macintosh","Firefox","137.0","OS X","10.15","https://hz8g1ckzuq.cognition.run/","en-US,en;q=0.5","fta9fk24debg2mc","51","[""White""]","No","Female","1753945","null","","<p></p>","null","choice","tcd","repulsion_2","1","washing machines","null","null","null","null","null","null","1","","","","","","","","","",""
"","","","","","choice_trial","survey-html-form","101","1474535","0.0-5.0-1.8","88","1","2025-04-11 14:38:14","bb671e3ae32f654b8954ea4c4635f915","","Mozilla/5.0 (Macintosh; Intel Mac OS X 10.15; rv:137.0) Gecko/20100101 Firefox/137.0","Macintosh","Firefox","137.0","OS X","10.15","https://hz8g1ckzuq.cognition.run/","en-US,en;q=0.5","fta9fk24debg2mc","51","[""White""]","No","Female","1753945","4321","","","{""product_choice"":""B""}","choice","tcd","repulsion_2","1","washing machines","null","null","null","null","null","null","1","100","90","100","30","40","20","Average lifespan","Energy savings","",""
"","","","","","choice_trial_setup","html-keyboard-response","102","1474843","0.0-5.0-0.9","88","1","2025-04-11 14:38:14","bb671e3ae32f654b8954ea4c4635f915","","Mozilla/5.0 (Macintosh; Intel Mac OS X 10.15; rv:137.0) Gecko/20100101 Firefox/137.0","Macintosh","Firefox","137.0","OS X","10.15","https://hz8g1ckzuq.cognition.run/","en-US,en;q=0.5","fta9fk24debg2mc","51","[""White""]","No","Female","1753945","null","","<p></p>","null","choice","bww","catch","null","televisions","50","60","50","35","20","10","2","","","","","","","","","",""
"","","","","","choice_trial","survey-html-form","103","1482227","0.0-5.0-1.9","88","1","2025-04-11 14:38:14","bb671e3ae32f654b8954ea4c4635f915","","Mozilla/5.0 (Macintosh; Intel Mac OS X 10.15; rv:137.0) Gecko/20100101 Firefox/137.0","Macintosh","Firefox","137.0","OS X","10.15","https://hz8g1ckzuq.cognition.run/","en-US,en;q=0.5","fta9fk24debg2mc","51","[""White""]","No","Female","1753945","7381","","","{""product_choice"":""A""}","choice","bww","catch","null","televisions","50","60","50","35","20","10","2","null","null","null","null","null","null","Screen size","Average lifespan","",""
"","","","","","choice_trial_setup","html-keyboard-response","104","1482534","0.0-5.0-0.10","88","1","2025-04-11 14:38:14","bb671e3ae32f654b8954ea4c4635f915","","Mozilla/5.0 (Macintosh; Intel Mac OS X 10.15; rv:137.0) Gecko/20100101 Firefox/137.0","Macintosh","Firefox","137.0","OS X","10.15","https://hz8g1ckzuq.cognition.run/","en-US,en;q=0.5","fta9fk24debg2mc","51","[""White""]","No","Female","1753945","null","","<p></p>","null","choice","cdt","repulsion_2","2","televisions","null","null","null","null","null","null","2","","","","","","","","","",""
"","","","","","choice_trial","survey-html-form","105","1486040","0.0-5.0-1.10","88","1","2025-04-11 14:38:14","bb671e3ae32f654b8954ea4c4635f915","","Mozilla/5.0 (Macintosh; Intel Mac OS X 10.15; rv:137.0) Gecko/20100101 Firefox/137.0","Macintosh","Firefox","137.0","OS X","10.15","https://hz8g1ckzuq.cognition.run/","en-US,en;q=0.5","fta9fk24debg2mc","51","[""White""]","No","Female","1753945","3498","","","{""product_choice"":""A""}","choice","cdt","repulsion_2","2","televisions","null","null","null","null","null","null","2","30","40","20","100","90","100","Screen size","Average lifespan","",""
"","","","","","choice_trial_setup","html-keyboard-response","106","1486351","0.0-5.0-0.11","88","1","2025-04-11 14:38:14","bb671e3ae32f654b8954ea4c4635f915","","Mozilla/5.0 (Macintosh; Intel Mac OS X 10.15; rv:137.0) Gecko/20100101 Firefox/137.0","Macintosh","Firefox","137.0","OS X","10.15","https://hz8g1ckzuq.cognition.run/","en-US,en;q=0.5","fta9fk24debg2mc","51","[""White""]","No","Female","1753945","null","","<p></p>","null","choice","tdc","repulsion_2","1","laptops","null","null","null","null","null","null","2","","","","","","","","","",""
"","","","","","choice_trial","survey-html-form","107","1492507","0.0-5.0-1.11","88","1","2025-04-11 14:38:14","bb671e3ae32f654b8954ea4c4635f915","","Mozilla/5.0 (Macintosh; Intel Mac OS X 10.15; rv:137.0) Gecko/20100101 Firefox/137.0","Macintosh","Firefox","137.0","OS X","10.15","https://hz8g1ckzuq.cognition.run/","en-US,en;q=0.5","fta9fk24debg2mc","51","[""White""]","No","Female","1753945","6153","","","{""product_choice"":""A""}","choice","tdc","repulsion_2","1","laptops","null","null","null","null","null","null","2","100","90","100","30","40","20","Processing speed","Memory (RAM)","",""
"","","","","","choice_trial_setup","html-keyboard-response","108","1492822","0.0-5.0-0.12","88","1","2025-04-11 14:38:14","bb671e3ae32f654b8954ea4c4635f915","","Mozilla/5.0 (Macintosh; Intel Mac OS X 10.15; rv:137.0) Gecko/20100101 Firefox/137.0","Macintosh","Firefox","137.0","OS X","10.15","https://hz8g1ckzuq.cognition.run/","en-US,en;q=0.5","fta9fk24debg2mc","51","[""White""]","No","Female","1753945","null","","<p></p>","null","choice","tcd","attraction_1","1","televisions","null","null","null","null","null","null","2","","","","","","","","","",""
"","","","","","choice_trial","survey-html-form","109","1501928","0.0-5.0-1.12","88","1","2025-04-11 14:38:14","bb671e3ae32f654b8954ea4c4635f915","","Mozilla/5.0 (Macintosh; Intel Mac OS X 10.15; rv:137.0) Gecko/20100101 Firefox/137.0","Macintosh","Firefox","137.0","OS X","10.15","https://hz8g1ckzuq.cognition.run/","en-US,en;q=0.5","fta9fk24debg2mc","51","[""White""]","No","Female","1753945","9103","","","{""product_choice"":""A""}","choice","tcd","attraction_1","1","televisions","null","null","null","null","null","null","2","60","50","60","50","60","45","Screen size","Average lifespan","",""
"","","","","","choice_trial_setup","html-keyboard-response","110","1502237","0.0-5.0-0.13","88","1","2025-04-11 14:38:14","bb671e3ae32f654b8954ea4c4635f915","","Mozilla/5.0 (Macintosh; Intel Mac OS X 10.15; rv:137.0) Gecko/20100101 Firefox/137.0","Macintosh","Firefox","137.0","OS X","10.15","https://hz8g1ckzuq.cognition.run/","en-US,en;q=0.5","fta9fk24debg2mc","51","[""White""]","No","Female","1753945","null","","<p></p>","null","choice","ctd","attraction_2","1","televisions","null","null","null","null","null","null","1","","","","","","","","","",""
"","","","","","choice_trial","survey-html-form","111","1509668","0.0-5.0-1.13","88","1","2025-04-11 14:38:14","bb671e3ae32f654b8954ea4c4635f915","","Mozilla/5.0 (Macintosh; Intel Mac OS X 10.15; rv:137.0) Gecko/20100101 Firefox/137.0","Macintosh","Firefox","137.0","OS X","10.15","https://hz8g1ckzuq.cognition.run/","en-US,en;q=0.5","fta9fk24debg2mc","51","[""White""]","No","Female","1753945","7427","","","{""product_choice"":""B""}","choice","ctd","attraction_2","1","televisions","null","null","null","null","null","null","1","60","50","60","50","60","40","Screen size","Average lifespan","",""
"","","","","","choice_trial_setup","html-keyboard-response","112","1509979","0.0-5.0-0.14","88","1","2025-04-11 14:38:14","bb671e3ae32f654b8954ea4c4635f915","","Mozilla/5.0 (Macintosh; Intel Mac OS X 10.15; rv:137.0) Gecko/20100101 Firefox/137.0","Macintosh","Firefox","137.0","OS X","10.15","https://hz8g1ckzuq.cognition.run/","en-US,en;q=0.5","fta9fk24debg2mc","51","[""White""]","No","Female","1753945","null","","<p></p>","null","choice","wbw","catch","null","washing machines","60","60","50","40","45","10","2","","","","","","","","","",""
"","","","","","choice_trial","survey-html-form","113","1514150","0.0-5.0-1.14","88","1","2025-04-11 14:38:14","bb671e3ae32f654b8954ea4c4635f915","","Mozilla/5.0 (Macintosh; Intel Mac OS X 10.15; rv:137.0) Gecko/20100101 Firefox/137.0","Macintosh","Firefox","137.0","OS X","10.15","https://hz8g1ckzuq.cognition.run/","en-US,en;q=0.5","fta9fk24debg2mc","51","[""White""]","No","Female","1753945","4166","","","{""product_choice"":""B""}","choice","wbw","catch","null","washing machines","60","60","50","40","45","10","2","null","null","null","null","null","null","Average lifespan","Energy savings","",""
"","","","","","choice_trial_setup","html-keyboard-response","114","1514460","0.0-5.0-0.15","88","1","2025-04-11 14:38:14","bb671e3ae32f654b8954ea4c4635f915","","Mozilla/5.0 (Macintosh; Intel Mac OS X 10.15; rv:137.0) Gecko/20100101 Firefox/137.0","Macintosh","Firefox","137.0","OS X","10.15","https://hz8g1ckzuq.cognition.run/","en-US,en;q=0.5","fta9fk24debg2mc","51","[""White""]","No","Female","1753945","null","","<p></p>","null","choice","dtc","attraction_2","1","microwave ovens","null","null","null","null","null","null","2","","","","","","","","","",""
"","","","","","choice_trial","survey-html-form","115","1522040","0.0-5.0-1.15","88","1","2025-04-11 14:38:14","bb671e3ae32f654b8954ea4c4635f915","","Mozilla/5.0 (Macintosh; Intel Mac OS X 10.15; rv:137.0) Gecko/20100101 Firefox/137.0","Macintosh","Firefox","137.0","OS X","10.15","https://hz8g1ckzuq.cognition.run/","en-US,en;q=0.5","fta9fk24debg2mc","51","[""White""]","No","Female","1753945","7574","","","{""product_choice"":""C""}","choice","dtc","attraction_2","1","microwave ovens","null","null","null","null","null","null","2","60","50","60","50","60","40","Warranty","Cooking power","",""
"","","","","","choice_trial_setup","html-keyboard-response","116","1522348","0.0-5.0-0.16","88","1","2025-04-11 14:38:14","bb671e3ae32f654b8954ea4c4635f915","","Mozilla/5.0 (Macintosh; Intel Mac OS X 10.15; rv:137.0) Gecko/20100101 Firefox/137.0","Macintosh","Firefox","137.0","OS X","10.15","https://hz8g1ckzuq.cognition.run/","en-US,en;q=0.5","fta9fk24debg2mc","51","[""White""]","No","Female","1753945","null","","<p></p>","null","choice","dct","attraction_2","2","laptops","null","null","null","null","null","null","2","","","","","","","","","",""
"","","","","","choice_trial","survey-html-form","117","1528268","0.0-5.0-1.16","88","1","2025-04-11 14:38:14","bb671e3ae32f654b8954ea4c4635f915","","Mozilla/5.0 (Macintosh; Intel Mac OS X 10.15; rv:137.0) Gecko/20100101 Firefox/137.0","Macintosh","Firefox","137.0","OS X","10.15","https://hz8g1ckzuq.cognition.run/","en-US,en;q=0.5","fta9fk24debg2mc","51","[""White""]","No","Female","1753945","5913","","","{""product_choice"":""B""}","choice","dct","attraction_2","2","laptops","null","null","null","null","null","null","2","50","60","40","60","50","60","Processing speed","Memory (RAM)","",""
"","","","","","choice_trial_setup","html-keyboard-response","118","1528578","0.0-5.0-0.17","88","1","2025-04-11 14:38:14","bb671e3ae32f654b8954ea4c4635f915","","Mozilla/5.0 (Macintosh; Intel Mac OS X 10.15; rv:137.0) Gecko/20100101 Firefox/137.0","Macintosh","Firefox","137.0","OS X","10.15","https://hz8g1ckzuq.cognition.run/","en-US,en;q=0.5","fta9fk24debg2mc","51","[""White""]","No","Female","1753945","null","","<p></p>","null","choice","dtc","attraction_2","1","washing machines","null","null","null","null","null","null","2","","","","","","","","","",""
"","","","","","choice_trial","survey-html-form","119","1537190","0.0-5.0-1.17","88","1","2025-04-11 14:38:14","bb671e3ae32f654b8954ea4c4635f915","","Mozilla/5.0 (Macintosh; Intel Mac OS X 10.15; rv:137.0) Gecko/20100101 Firefox/137.0","Macintosh","Firefox","137.0","OS X","10.15","https://hz8g1ckzuq.cognition.run/","en-US,en;q=0.5","fta9fk24debg2mc","51","[""White""]","No","Female","1753945","8608","","","{""product_choice"":""C""}","choice","dtc","attraction_2","1","washing machines","null","null","null","null","null","null","2","60","50","60","50","60","40","Average lifespan","Energy savings","",""
"","","","","","choice_trial_setup","html-keyboard-response","120","1537500","0.0-5.0-0.18","88","1","2025-04-11 14:38:14","bb671e3ae32f654b8954ea4c4635f915","","Mozilla/5.0 (Macintosh; Intel Mac OS X 10.15; rv:137.0) Gecko/20100101 Firefox/137.0","Macintosh","Firefox","137.0","OS X","10.15","https://hz8g1ckzuq.cognition.run/","en-US,en;q=0.5","fta9fk24debg2mc","51","[""White""]","No","Female","1753945","null","","<p></p>","null","choice","cdt","attraction_1","1","washing machines","null","null","null","null","null","null","1","","","","","","","","","",""
"","","","","","choice_trial","survey-html-form","121","1541915","0.0-5.0-1.18","88","1","2025-04-11 14:38:14","bb671e3ae32f654b8954ea4c4635f915","","Mozilla/5.0 (Macintosh; Intel Mac OS X 10.15; rv:137.0) Gecko/20100101 Firefox/137.0","Macintosh","Firefox","137.0","OS X","10.15","https://hz8g1ckzuq.cognition.run/","en-US,en;q=0.5","fta9fk24debg2mc","51","[""White""]","No","Female","1753945","4408","","","{""product_choice"":""A""}","choice","cdt","attraction_1","1","washing machines","null","null","null","null","null","null","1","60","50","60","50","60","45","Average lifespan","Energy savings","",""
"","","","","","choice_trial_setup","html-keyboard-response","122","1542223","0.0-5.0-0.19","88","1","2025-04-11 14:38:14","bb671e3ae32f654b8954ea4c4635f915","","Mozilla/5.0 (Macintosh; Intel Mac OS X 10.15; rv:137.0) Gecko/20100101 Firefox/137.0","Macintosh","Firefox","137.0","OS X","10.15","https://hz8g1ckzuq.cognition.run/","en-US,en;q=0.5","fta9fk24debg2mc","51","[""White""]","No","Female","1753945","null","","<p></p>","null","choice","dct","repulsion_2","1","televisions","null","null","null","null","null","null","1","","","","","","","","","",""
"","","","","","choice_trial","survey-html-form","123","1546309","0.0-5.0-1.19","88","1","2025-04-11 14:38:14","bb671e3ae32f654b8954ea4c4635f915","","Mozilla/5.0 (Macintosh; Intel Mac OS X 10.15; rv:137.0) Gecko/20100101 Firefox/137.0","Macintosh","Firefox","137.0","OS X","10.15","https://hz8g1ckzuq.cognition.run/","en-US,en;q=0.5","fta9fk24debg2mc","51","[""White""]","No","Female","1753945","4081","","","{""product_choice"":""C""}","choice","dct","repulsion_2","1","televisions","null","null","null","null","null","null","1","100","90","100","30","40","20","Screen size","Average lifespan","",""
"","","","","","choice_trial_setup","html-keyboard-response","124","1546625","0.0-5.0-0.20","88","1","2025-04-11 14:38:14","bb671e3ae32f654b8954ea4c4635f915","","Mozilla/5.0 (Macintosh; Intel Mac OS X 10.15; rv:137.0) Gecko/20100101 Firefox/137.0","Macintosh","Firefox","137.0","OS X","10.15","https://hz8g1ckzuq.cognition.run/","en-US,en;q=0.5","fta9fk24debg2mc","51","[""White""]","No","Female","1753945","null","","<p></p>","null","choice","dtc","repulsion_1","2","washing machines","null","null","null","null","null","null","1","","","","","","","","","",""
"","","","","","choice_trial","survey-html-form","125","1552940","0.0-5.0-1.20","88","1","2025-04-11 14:38:14","bb671e3ae32f654b8954ea4c4635f915","","Mozilla/5.0 (Macintosh; Intel Mac OS X 10.15; rv:137.0) Gecko/20100101 Firefox/137.0","Macintosh","Firefox","137.0","OS X","10.15","https://hz8g1ckzuq.cognition.run/","en-US,en;q=0.5","fta9fk24debg2mc","51","[""White""]","No","Female","1753945","6308","","","{""product_choice"":""B""}","choice","dtc","repulsion_1","2","washing machines","null","null","null","null","null","null","1","30","40","25","100","90","100","Average lifespan","Energy savings","",""
"","","","","","choice_trial_setup","html-keyboard-response","126","1553248","0.0-5.0-0.21","88","1","2025-04-11 14:38:14","bb671e3ae32f654b8954ea4c4635f915","","Mozilla/5.0 (Macintosh; Intel Mac OS X 10.15; rv:137.0) Gecko/20100101 Firefox/137.0","Macintosh","Firefox","137.0","OS X","10.15","https://hz8g1ckzuq.cognition.run/","en-US,en;q=0.5","fta9fk24debg2mc","51","[""White""]","No","Female","1753945","null","","<p></p>","null","choice","tcd","repulsion_2","2","washing machines","null","null","null","null","null","null","1","","","","","","","","","",""
"","","","","","choice_trial","survey-html-form","127","1557113","0.0-5.0-1.21","88","1","2025-04-11 14:38:14","bb671e3ae32f654b8954ea4c4635f915","","Mozilla/5.0 (Macintosh; Intel Mac OS X 10.15; rv:137.0) Gecko/20100101 Firefox/137.0","Macintosh","Firefox","137.0","OS X","10.15","https://hz8g1ckzuq.cognition.run/","en-US,en;q=0.5","fta9fk24debg2mc","51","[""White""]","No","Female","1753945","3856","","","{""product_choice"":""A""}","choice","tcd","repulsion_2","2","washing machines","null","null","null","null","null","null","1","30","40","20","100","90","100","Average lifespan","Energy savings","",""
"","","","","","choice_trial_setup","html-keyboard-response","128","1557426","0.0-5.0-0.22","88","1","2025-04-11 14:38:14","bb671e3ae32f654b8954ea4c4635f915","","Mozilla/5.0 (Macintosh; Intel Mac OS X 10.15; rv:137.0) Gecko/20100101 Firefox/137.0","Macintosh","Firefox","137.0","OS X","10.15","https://hz8g1ckzuq.cognition.run/","en-US,en;q=0.5","fta9fk24debg2mc","51","[""White""]","No","Female","1753945","null","","<p></p>","null","choice","tdc","attraction_1","2","laptops","null","null","null","null","null","null","1","","","","","","","","","",""
"","","","","","choice_trial","survey-html-form","129","1562975","0.0-5.0-1.22","88","1","2025-04-11 14:38:14","bb671e3ae32f654b8954ea4c4635f915","","Mozilla/5.0 (Macintosh; Intel Mac OS X 10.15; rv:137.0) Gecko/20100101 Firefox/137.0","Macintosh","Firefox","137.0","OS X","10.15","https://hz8g1ckzuq.cognition.run/","en-US,en;q=0.5","fta9fk24debg2mc","51","[""White""]","No","Female","1753945","5542","","","{""product_choice"":""C""}","choice","tdc","attraction_1","2","laptops","null","null","null","null","null","null","1","50","60","45","60","50","60","Processing speed","Memory (RAM)","",""
"","","","","","choice_trial_setup","html-keyboard-response","130","1563285","0.0-5.0-0.23","88","1","2025-04-11 14:38:14","bb671e3ae32f654b8954ea4c4635f915","","Mozilla/5.0 (Macintosh; Intel Mac OS X 10.15; rv:137.0) Gecko/20100101 Firefox/137.0","Macintosh","Firefox","137.0","OS X","10.15","https://hz8g1ckzuq.cognition.run/","en-US,en;q=0.5","fta9fk24debg2mc","51","[""White""]","No","Female","1753945","null","","<p></p>","null","choice","tdc","attraction_1","2","microwave ovens","null","null","null","null","null","null","2","","","","","","","","","",""
"","","","","","choice_trial","survey-html-form","131","1567216","0.0-5.0-1.23","88","1","2025-04-11 14:38:14","bb671e3ae32f654b8954ea4c4635f915","","Mozilla/5.0 (Macintosh; Intel Mac OS X 10.15; rv:137.0) Gecko/20100101 Firefox/137.0","Macintosh","Firefox","137.0","OS X","10.15","https://hz8g1ckzuq.cognition.run/","en-US,en;q=0.5","fta9fk24debg2mc","51","[""White""]","No","Female","1753945","3925","","","{""product_choice"":""A""}","choice","tdc","attraction_1","2","microwave ovens","null","null","null","null","null","null","2","50","60","45","60","50","60","Warranty","Cooking power","",""
"","","","","","choice_trial_setup","html-keyboard-response","132","1567525","0.0-5.0-0.24","88","1","2025-04-11 14:38:14","bb671e3ae32f654b8954ea4c4635f915","","Mozilla/5.0 (Macintosh; Intel Mac OS X 10.15; rv:137.0) Gecko/20100101 Firefox/137.0","Macintosh","Firefox","137.0","OS X","10.15","https://hz8g1ckzuq.cognition.run/","en-US,en;q=0.5","fta9fk24debg2mc","51","[""White""]","No","Female","1753945","null","","<p></p>","null","choice","wbw","catch","null","microwave ovens","90","90","45","40","40","35","1","","","","","","","","","",""
"","","","","","choice_trial","survey-html-form","133","1570925","0.0-5.0-1.24","88","1","2025-04-11 14:38:14","bb671e3ae32f654b8954ea4c4635f915","","Mozilla/5.0 (Macintosh; Intel Mac OS X 10.15; rv:137.0) Gecko/20100101 Firefox/137.0","Macintosh","Firefox","137.0","OS X","10.15","https://hz8g1ckzuq.cognition.run/","en-US,en;q=0.5","fta9fk24debg2mc","51","[""White""]","No","Female","1753945","3396","","","{""product_choice"":""B""}","choice","wbw","catch","null","microwave ovens","90","90","45","40","40","35","1","null","null","null","null","null","null","Warranty","Cooking power","",""
"","","","","","choice_trial_setup","html-keyboard-response","134","1571236","0.0-5.0-0.25","88","1","2025-04-11 14:38:14","bb671e3ae32f654b8954ea4c4635f915","","Mozilla/5.0 (Macintosh; Intel Mac OS X 10.15; rv:137.0) Gecko/20100101 Firefox/137.0","Macintosh","Firefox","137.0","OS X","10.15","https://hz8g1ckzuq.cognition.run/","en-US,en;q=0.5","fta9fk24debg2mc","51","[""White""]","No","Female","1753945","null","","<p></p>","null","choice","cdt","repulsion_1","1","washing machines","null","null","null","null","null","null","1","","","","","","","","","",""
"","","","","","choice_trial","survey-html-form","135","1575830","0.0-5.0-1.25","88","1","2025-04-11 14:38:14","bb671e3ae32f654b8954ea4c4635f915","","Mozilla/5.0 (Macintosh; Intel Mac OS X 10.15; rv:137.0) Gecko/20100101 Firefox/137.0","Macintosh","Firefox","137.0","OS X","10.15","https://hz8g1ckzuq.cognition.run/","en-US,en;q=0.5","fta9fk24debg2mc","51","[""White""]","No","Female","1753945","4587","","","{""product_choice"":""A""}","choice","cdt","repulsion_1","1","washing machines","null","null","null","null","null","null","1","100","90","100","30","40","25","Average lifespan","Energy savings","",""
"","","","","","choice_trial_setup","html-keyboard-response","136","1576140","0.0-5.0-0.26","88","1","2025-04-11 14:38:14","bb671e3ae32f654b8954ea4c4635f915","","Mozilla/5.0 (Macintosh; Intel Mac OS X 10.15; rv:137.0) Gecko/20100101 Firefox/137.0","Macintosh","Firefox","137.0","OS X","10.15","https://hz8g1ckzuq.cognition.run/","en-US,en;q=0.5","fta9fk24debg2mc","51","[""White""]","No","Female","1753945","null","","<p></p>","null","choice","dtc","repulsion_2","1","microwave ovens","null","null","null","null","null","null","1","","","","","","","","","",""
"","","","","","choice_trial","survey-html-form","137","1581442","0.0-5.0-1.26","88","1","2025-04-11 14:38:14","bb671e3ae32f654b8954ea4c4635f915","","Mozilla/5.0 (Macintosh; Intel Mac OS X 10.15; rv:137.0) Gecko/20100101 Firefox/137.0","Macintosh","Firefox","137.0","OS X","10.15","https://hz8g1ckzuq.cognition.run/","en-US,en;q=0.5","fta9fk24debg2mc","51","[""White""]","No","Female","1753945","5293","","","{""product_choice"":""C""}","choice","dtc","repulsion_2","1","microwave ovens","null","null","null","null","null","null","1","100","90","100","30","40","20","Warranty","Cooking power","",""
"","","","","","choice_trial_setup","html-keyboard-response","138","1581751","0.0-5.0-0.27","88","1","2025-04-11 14:38:14","bb671e3ae32f654b8954ea4c4635f915","","Mozilla/5.0 (Macintosh; Intel Mac OS X 10.15; rv:137.0) Gecko/20100101 Firefox/137.0","Macintosh","Firefox","137.0","OS X","10.15","https://hz8g1ckzuq.cognition.run/","en-US,en;q=0.5","fta9fk24debg2mc","51","[""White""]","No","Female","1753945","null","","<p></p>","null","choice","tdc","attraction_1","2","washing machines","null","null","null","null","null","null","1","","","","","","","","","",""
"","","","","","choice_trial","survey-html-form","139","1585767","0.0-5.0-1.27","88","1","2025-04-11 14:38:14","bb671e3ae32f654b8954ea4c4635f915","","Mozilla/5.0 (Macintosh; Intel Mac OS X 10.15; rv:137.0) Gecko/20100101 Firefox/137.0","Macintosh","Firefox","137.0","OS X","10.15","https://hz8g1ckzuq.cognition.run/","en-US,en;q=0.5","fta9fk24debg2mc","51","[""White""]","No","Female","1753945","4009","","","{""product_choice"":""A""}","choice","tdc","attraction_1","2","washing machines","null","null","null","null","null","null","1","50","60","45","60","50","60","Average lifespan","Energy savings","",""
"","","","","","choice_trial_setup","html-keyboard-response","140","1586079","0.0-5.0-0.28","88","1","2025-04-11 14:38:14","bb671e3ae32f654b8954ea4c4635f915","","Mozilla/5.0 (Macintosh; Intel Mac OS X 10.15; rv:137.0) Gecko/20100101 Firefox/137.0","Macintosh","Firefox","137.0","OS X","10.15","https://hz8g1ckzuq.cognition.run/","en-US,en;q=0.5","fta9fk24debg2mc","51","[""White""]","No","Female","1753945","null","","<p></p>","null","choice","dtc","attraction_2","2","microwave ovens","null","null","null","null","null","null","2","","","","","","","","","",""
"","","","","","choice_trial","survey-html-form","141","1590558","0.0-5.0-1.28","88","1","2025-04-11 14:38:14","bb671e3ae32f654b8954ea4c4635f915","","Mozilla/5.0 (Macintosh; Intel Mac OS X 10.15; rv:137.0) Gecko/20100101 Firefox/137.0","Macintosh","Firefox","137.0","OS X","10.15","https://hz8g1ckzuq.cognition.run/","en-US,en;q=0.5","fta9fk24debg2mc","51","[""White""]","No","Female","1753945","4471","","","{""product_choice"":""B""}","choice","dtc","attraction_2","2","microwave ovens","null","null","null","null","null","null","2","50","60","40","60","50","60","Warranty","Cooking power","",""
"","","","","","choice_trial_setup","html-keyboard-response","142","1590869","0.0-5.0-0.29","88","1","2025-04-11 14:38:14","bb671e3ae32f654b8954ea4c4635f915","","Mozilla/5.0 (Macintosh; Intel Mac OS X 10.15; rv:137.0) Gecko/20100101 Firefox/137.0","Macintosh","Firefox","137.0","OS X","10.15","https://hz8g1ckzuq.cognition.run/","en-US,en;q=0.5","fta9fk24debg2mc","51","[""White""]","No","Female","1753945","null","","<p></p>","null","choice","cdt","attraction_1","2","televisions","null","null","null","null","null","null","2","","","","","","","","","",""
"","","","","","choice_trial","survey-html-form","143","1596232","0.0-5.0-1.29","88","1","2025-04-11 14:38:14","bb671e3ae32f654b8954ea4c4635f915","","Mozilla/5.0 (Macintosh; Intel Mac OS X 10.15; rv:137.0) Gecko/20100101 Firefox/137.0","Macintosh","Firefox","137.0","OS X","10.15","https://hz8g1ckzuq.cognition.run/","en-US,en;q=0.5","fta9fk24debg2mc","51","[""White""]","No","Female","1753945","5357","","","{""product_choice"":""A""}","choice","cdt","attraction_1","2","televisions","null","null","null","null","null","null","2","50","60","45","60","50","60","Screen size","Average lifespan","",""
"","","","","","choice_trial_setup","html-keyboard-response","144","1596540","0.0-5.0-0.30","88","1","2025-04-11 14:38:14","bb671e3ae32f654b8954ea4c4635f915","","Mozilla/5.0 (Macintosh; Intel Mac OS X 10.15; rv:137.0) Gecko/20100101 Firefox/137.0","Macintosh","Firefox","137.0","OS X","10.15","https://hz8g1ckzuq.cognition.run/","en-US,en;q=0.5","fta9fk24debg2mc","51","[""White""]","No","Female","1753945","null","","<p></p>","null","choice","wbw","catch","null","washing machines","75","55","10","35","35","45","1","","","","","","","","","",""
"","","","","","choice_trial","survey-html-form","145","1604255","0.0-5.0-1.30","88","1","2025-04-11 14:38:14","bb671e3ae32f654b8954ea4c4635f915","","Mozilla/5.0 (Macintosh; Intel Mac OS X 10.15; rv:137.0) Gecko/20100101 Firefox/137.0","Macintosh","Firefox","137.0","OS X","10.15","https://hz8g1ckzuq.cognition.run/","en-US,en;q=0.5","fta9fk24debg2mc","51","[""White""]","No","Female","1753945","7706","","","{""product_choice"":""B""}","choice","wbw","catch","null","washing machines","75","55","10","35","35","45","1","null","null","null","null","null","null","Average lifespan","Energy savings","",""
"","","","","","choice_trial_setup","html-keyboard-response","146","1604566","0.0-5.0-0.31","88","1","2025-04-11 14:38:14","bb671e3ae32f654b8954ea4c4635f915","","Mozilla/5.0 (Macintosh; Intel Mac OS X 10.15; rv:137.0) Gecko/20100101 Firefox/137.0","Macintosh","Firefox","137.0","OS X","10.15","https://hz8g1ckzuq.cognition.run/","en-US,en;q=0.5","fta9fk24debg2mc","51","[""White""]","No","Female","1753945","null","","<p></p>","null","choice","tcd","repulsion_2","2","microwave ovens","null","null","null","null","null","null","2","","","","","","","","","",""
"","","","","","choice_trial","survey-html-form","147","1611183","0.0-5.0-1.31","88","1","2025-04-11 14:38:14","bb671e3ae32f654b8954ea4c4635f915","","Mozilla/5.0 (Macintosh; Intel Mac OS X 10.15; rv:137.0) Gecko/20100101 Firefox/137.0","Macintosh","Firefox","137.0","OS X","10.15","https://hz8g1ckzuq.cognition.run/","en-US,en;q=0.5","fta9fk24debg2mc","51","[""White""]","No","Female","1753945","6608","","","{""product_choice"":""A""}","choice","tcd","repulsion_2","2","microwave ovens","null","null","null","null","null","null","2","30","40","20","100","90","100","Warranty","Cooking power","",""
"","","","","","choice_trial_setup","html-keyboard-response","148","1611489","0.0-5.0-0.32","88","1","2025-04-11 14:38:14","bb671e3ae32f654b8954ea4c4635f915","","Mozilla/5.0 (Macintosh; Intel Mac OS X 10.15; rv:137.0) Gecko/20100101 Firefox/137.0","Macintosh","Firefox","137.0","OS X","10.15","https://hz8g1ckzuq.cognition.run/","en-US,en;q=0.5","fta9fk24debg2mc","51","[""White""]","No","Female","1753945","null","","<p></p>","null","choice","dct","attraction_1","1","microwave ovens","null","null","null","null","null","null","1","","","","","","","","","",""
"","","","","","choice_trial","survey-html-form","149","1614635","0.0-5.0-1.32","88","1","2025-04-11 14:38:14","bb671e3ae32f654b8954ea4c4635f915","","Mozilla/5.0 (Macintosh; Intel Mac OS X 10.15; rv:137.0) Gecko/20100101 Firefox/137.0","Macintosh","Firefox","137.0","OS X","10.15","https://hz8g1ckzuq.cognition.run/","en-US,en;q=0.5","fta9fk24debg2mc","51","[""White""]","No","Female","1753945","3136","","","{""product_choice"":""B""}","choice","dct","attraction_1","1","microwave ovens","null","null","null","null","null","null","1","60","50","60","50","60","45","Warranty","Cooking power","",""
"","","","","","choice_trial_setup","html-keyboard-response","150","1614945","0.0-5.0-0.33","88","1","2025-04-11 14:38:14","bb671e3ae32f654b8954ea4c4635f915","","Mozilla/5.0 (Macintosh; Intel Mac OS X 10.15; rv:137.0) Gecko/20100101 Firefox/137.0","Macintosh","Firefox","137.0","OS X","10.15","https://hz8g1ckzuq.cognition.run/","en-US,en;q=0.5","fta9fk24debg2mc","51","[""White""]","No","Female","1753945","null","","<p></p>","null","choice","cdt","attraction_1","1","laptops","null","null","null","null","null","null","2","","","","","","","","","",""
"","","","","","choice_trial","survey-html-form","151","1619735","0.0-5.0-1.33","88","1","2025-04-11 14:38:14","bb671e3ae32f654b8954ea4c4635f915","","Mozilla/5.0 (Macintosh; Intel Mac OS X 10.15; rv:137.0) Gecko/20100101 Firefox/137.0","Macintosh","Firefox","137.0","OS X","10.15","https://hz8g1ckzuq.cognition.run/","en-US,en;q=0.5","fta9fk24debg2mc","51","[""White""]","No","Female","1753945","4781","","","{""product_choice"":""C""}","choice","cdt","attraction_1","1","laptops","null","null","null","null","null","null","2","60","50","60","50","60","45","Processing speed","Memory (RAM)","",""
"","","","","","choice_trial_setup","html-keyboard-response","152","1620050","0.0-5.0-0.34","88","1","2025-04-11 14:38:14","bb671e3ae32f654b8954ea4c4635f915","","Mozilla/5.0 (Macintosh; Intel Mac OS X 10.15; rv:137.0) Gecko/20100101 Firefox/137.0","Macintosh","Firefox","137.0","OS X","10.15","https://hz8g1ckzuq.cognition.run/","en-US,en;q=0.5","fta9fk24debg2mc","51","[""White""]","No","Female","1753945","null","","<p></p>","null","choice","tcd","attraction_2","2","washing machines","null","null","null","null","null","null","1","","","","","","","","","",""
"","","","","","choice_trial","survey-html-form","153","1623335","0.0-5.0-1.34","88","1","2025-04-11 14:38:14","bb671e3ae32f654b8954ea4c4635f915","","Mozilla/5.0 (Macintosh; Intel Mac OS X 10.15; rv:137.0) Gecko/20100101 Firefox/137.0","Macintosh","Firefox","137.0","OS X","10.15","https://hz8g1ckzuq.cognition.run/","en-US,en;q=0.5","fta9fk24debg2mc","51","[""White""]","No","Female","1753945","3275","","","{""product_choice"":""A""}","choice","tcd","attraction_2","2","washing machines","null","null","null","null","null","null","1","50","60","40","60","50","60","Average lifespan","Energy savings","",""
"","","","","","choice_trial_setup","html-keyboard-response","154","1623652","0.0-5.0-0.35","88","1","2025-04-11 14:38:14","bb671e3ae32f654b8954ea4c4635f915","","Mozilla/5.0 (Macintosh; Intel Mac OS X 10.15; rv:137.0) Gecko/20100101 Firefox/137.0","Macintosh","Firefox","137.0","OS X","10.15","https://hz8g1ckzuq.cognition.run/","en-US,en;q=0.5","fta9fk24debg2mc","51","[""White""]","No","Female","1753945","null","","<p></p>","null","choice","cdt","repulsion_1","1","televisions","null","null","null","null","null","null","2","","","","","","","","","",""
"","","","","","choice_trial","survey-html-form","155","1628375","0.0-5.0-1.35","88","1","2025-04-11 14:38:14","bb671e3ae32f654b8954ea4c4635f915","","Mozilla/5.0 (Macintosh; Intel Mac OS X 10.15; rv:137.0) Gecko/20100101 Firefox/137.0","Macintosh","Firefox","137.0","OS X","10.15","https://hz8g1ckzuq.cognition.run/","en-US,en;q=0.5","fta9fk24debg2mc","51","[""White""]","No","Female","1753945","4714","","","{""product_choice"":""C""}","choice","cdt","repulsion_1","1","televisions","null","null","null","null","null","null","2","100","90","100","30","40","25","Screen size","Average lifespan","",""
"","","","","","choice_trial_setup","html-keyboard-response","156","1628686","0.0-5.0-0.36","88","1","2025-04-11 14:38:14","bb671e3ae32f654b8954ea4c4635f915","","Mozilla/5.0 (Macintosh; Intel Mac OS X 10.15; rv:137.0) Gecko/20100101 Firefox/137.0","Macintosh","Firefox","137.0","OS X","10.15","https://hz8g1ckzuq.cognition.run/","en-US,en;q=0.5","fta9fk24debg2mc","51","[""White""]","No","Female","1753945","null","","<p></p>","null","choice","dtc","repulsion_1","2","televisions","null","null","null","null","null","null","1","","","","","","","","","",""
"","","","","","choice_trial","survey-html-form","157","1634000","0.0-5.0-1.36","88","1","2025-04-11 14:38:14","bb671e3ae32f654b8954ea4c4635f915","","Mozilla/5.0 (Macintosh; Intel Mac OS X 10.15; rv:137.0) Gecko/20100101 Firefox/137.0","Macintosh","Firefox","137.0","OS X","10.15","https://hz8g1ckzuq.cognition.run/","en-US,en;q=0.5","fta9fk24debg2mc","51","[""White""]","No","Female","1753945","5304","","","{""product_choice"":""C""}","choice","dtc","repulsion_1","2","televisions","null","null","null","null","null","null","1","30","40","25","100","90","100","Screen size","Average lifespan","",""
"","","","","","choice_trial_setup","html-keyboard-response","158","1634313","0.0-5.0-0.37","88","1","2025-04-11 14:38:14","bb671e3ae32f654b8954ea4c4635f915","","Mozilla/5.0 (Macintosh; Intel Mac OS X 10.15; rv:137.0) Gecko/20100101 Firefox/137.0","Macintosh","Firefox","137.0","OS X","10.15","https://hz8g1ckzuq.cognition.run/","en-US,en;q=0.5","fta9fk24debg2mc","51","[""White""]","No","Female","1753945","null","","<p></p>","null","choice","ctd","repulsion_1","1","laptops","null","null","null","null","null","null","1","","","","","","","","","",""
"","","","","","choice_trial","survey-html-form","159","1642162","0.0-5.0-1.37","88","1","2025-04-11 14:38:14","bb671e3ae32f654b8954ea4c4635f915","","Mozilla/5.0 (Macintosh; Intel Mac OS X 10.15; rv:137.0) Gecko/20100101 Firefox/137.0","Macintosh","Firefox","137.0","OS X","10.15","https://hz8g1ckzuq.cognition.run/","en-US,en;q=0.5","fta9fk24debg2mc","51","[""White""]","No","Female","1753945","7839","","","{""product_choice"":""B""}","choice","ctd","repulsion_1","1","laptops","null","null","null","null","null","null","1","100","90","100","30","40","25","Processing speed","Memory (RAM)","",""
"","","","","","choice_trial_setup","html-keyboard-response","160","1642471","0.0-5.0-0.38","88","1","2025-04-11 14:38:14","bb671e3ae32f654b8954ea4c4635f915","","Mozilla/5.0 (Macintosh; Intel Mac OS X 10.15; rv:137.0) Gecko/20100101 Firefox/137.0","Macintosh","Firefox","137.0","OS X","10.15","https://hz8g1ckzuq.cognition.run/","en-US,en;q=0.5","fta9fk24debg2mc","51","[""White""]","No","Female","1753945","null","","<p></p>","null","choice","tcd","repulsion_2","2","laptops","null","null","null","null","null","null","1","","","","","","","","","",""
"","","","","","choice_trial","survey-html-form","161","1646932","0.0-5.0-1.38","88","1","2025-04-11 14:38:14","bb671e3ae32f654b8954ea4c4635f915","","Mozilla/5.0 (Macintosh; Intel Mac OS X 10.15; rv:137.0) Gecko/20100101 Firefox/137.0","Macintosh","Firefox","137.0","OS X","10.15","https://hz8g1ckzuq.cognition.run/","en-US,en;q=0.5","fta9fk24debg2mc","51","[""White""]","No","Female","1753945","4453","","","{""product_choice"":""B""}","choice","tcd","repulsion_2","2","laptops","null","null","null","null","null","null","1","30","40","20","100","90","100","Processing speed","Memory (RAM)","",""
"","","","","","choice_trial_setup","html-keyboard-response","162","1647239","0.0-5.0-0.39","88","1","2025-04-11 14:38:14","bb671e3ae32f654b8954ea4c4635f915","","Mozilla/5.0 (Macintosh; Intel Mac OS X 10.15; rv:137.0) Gecko/20100101 Firefox/137.0","Macintosh","Firefox","137.0","OS X","10.15","https://hz8g1ckzuq.cognition.run/","en-US,en;q=0.5","fta9fk24debg2mc","51","[""White""]","No","Female","1753945","null","","<p></p>","null","choice","wwb","catch","null","microwave ovens","95","55","35","50","15","35","1","","","","","","","","","",""
"","","","","","choice_trial","survey-html-form","163","1656466","0.0-5.0-1.39","88","1","2025-04-11 14:38:14","bb671e3ae32f654b8954ea4c4635f915","","Mozilla/5.0 (Macintosh; Intel Mac OS X 10.15; rv:137.0) Gecko/20100101 Firefox/137.0","Macintosh","Firefox","137.0","OS X","10.15","https://hz8g1ckzuq.cognition.run/","en-US,en;q=0.5","fta9fk24debg2mc","51","[""White""]","No","Female","1753945","9216","","","{""product_choice"":""C""}","choice","wwb","catch","null","microwave ovens","95","55","35","50","15","35","1","null","null","null","null","null","null","Warranty","Cooking power","",""
"","","","","","","html-button-response","164","1658662","0.0-6.0","88","1","2025-04-11 14:38:14","bb671e3ae32f654b8954ea4c4635f915","","Mozilla/5.0 (Macintosh; Intel Mac OS X 10.15; rv:137.0) Gecko/20100101 Firefox/137.0","Macintosh","Firefox","137.0","OS X","10.15","https://hz8g1ckzuq.cognition.run/","en-US,en;q=0.5","fta9fk24debg2mc","51","[""White""]","No","Female","1753945","2191","","<p> <b>Thank you for your patience!</b></p><p>  The study will be done after completing a brief form. </p>","0","","","","","","","","","","","","","","","","","","","","","",""
"","","","","","","survey-text","165","1743350","0.0-7.0","88","1","2025-04-11 14:38:14","bb671e3ae32f654b8954ea4c4635f915","","Mozilla/5.0 (Macintosh; Intel Mac OS X 10.15; rv:137.0) Gecko/20100101 Firefox/137.0","Macintosh","Firefox","137.0","OS X","10.15","https://hz8g1ckzuq.cognition.run/","en-US,en;q=0.5","fta9fk24debg2mc","51","[""White""]","No","Female","1753945","84661","","","{""Q0"":""I chose the products that either had more processing speed, energy savings, cooking time, or bigger screens.""}","","","","","","","","","","","","","","","","","","","","","I chose the products that either had more processing speed, energy savings, cooking time, or bigger screens.",""
"","","","","","","survey-text","166","1746834","0.0-8.0","88","1","2025-04-11 14:38:14","bb671e3ae32f654b8954ea4c4635f915","","Mozilla/5.0 (Macintosh; Intel Mac OS X 10.15; rv:137.0) Gecko/20100101 Firefox/137.0","Macintosh","Firefox","137.0","OS X","10.15","https://hz8g1ckzuq.cognition.run/","en-US,en;q=0.5","fta9fk24debg2mc","51","[""White""]","No","Female","1753945","3452","","","{""Q0"":""51""}","","","","","","","","","","","","","","","","","","","","","",""
"","","","","","","survey-multi-select","167","1749729","0.0-9.0","88","1","2025-04-11 14:38:14","bb671e3ae32f654b8954ea4c4635f915","","Mozilla/5.0 (Macintosh; Intel Mac OS X 10.15; rv:137.0) Gecko/20100101 Firefox/137.0","Macintosh","Firefox","137.0","OS X","10.15","https://hz8g1ckzuq.cognition.run/","en-US,en;q=0.5","fta9fk24debg2mc","51","[""White""]","No","Female","1753945","2882","","","{""Q0"":[""White""]}","","","","","","","","","","","","","","","","","","","","","","[0]"
"","","","","","","survey-multi-choice","168","1753900","0.0-10.0","88","1","2025-04-11 14:38:14","bb671e3ae32f654b8954ea4c4635f915","","Mozilla/5.0 (Macintosh; Intel Mac OS X 10.15; rv:137.0) Gecko/20100101 Firefox/137.0","Macintosh","Firefox","137.0","OS X","10.15","https://hz8g1ckzuq.cognition.run/","en-US,en;q=0.5","fta9fk24debg2mc","51","[""White""]","No","Female","1753945","4160","","","{""Q0"":""No"",""Q1"":""Female""}","","","","","","","","","","","","","","","","","","","","","","[0,1]"
