"success","timeout","failed_images","failed_audio","failed_video","screen_id","trial_type","trial_index","time_elapsed","internal_node_id","run_id","condition","recorded_at","source_code_version","ip","user_agent","device","browser","browser_version","platform","platform_version","referer","accept_language","ppt_id","rt","view_history","stimulus","response","phase","order","effect","t_high","category","d1_best","d2_best","d1_worst1","d2_worst1","d1_worst2","d2_worst2","first_dim","d1_t","d1_c","d1_d","d2_t","d2_c","d2_d","d1_name","d2_name"
"true","false","[]","[]","[]","img preload","preload","0","5607","0.0-0.0","94","1","2025-04-11 14:44:09","bb671e3ae32f654b8954ea4c4635f915","","Mozilla/5.0 (Windows NT 10.0; Win64; x64) AppleWebKit/537.36 (KHTML, like Gecko) Chrome/134.0.0.0 Safari/537.36","WebKit","Chrome","134.0.0.0","Windows","10.0","https://hz8g1ckzuq.cognition.run/","en-US,en;q=0.9","hvau0gvqyl4ub0y","","","","","","","","","","","","","","","","","","","","","","","",""
"true","","","","","","fullscreen","1","17767","0.0-1.0","94","1","2025-04-11 14:44:09","bb671e3ae32f654b8954ea4c4635f915","","Mozilla/5.0 (Windows NT 10.0; Win64; x64) AppleWebKit/537.36 (KHTML, like Gecko) Chrome/134.0.0.0 Safari/537.36","WebKit","Chrome","134.0.0.0","Windows","10.0","https://hz8g1ckzuq.cognition.run/","en-US,en;q=0.9","hvau0gvqyl4ub0y","11084","","","","","","","","","","","","","","","","","","","","","","",""
"","","","","","","instructions","2","70093","0.0-2.0","94","1","2025-04-11 14:44:09","bb671e3ae32f654b8954ea4c4635f915","","Mozilla/5.0 (Windows NT 10.0; Win64; x64) AppleWebKit/537.36 (KHTML, like Gecko) Chrome/134.0.0.0 Safari/537.36","WebKit","Chrome","134.0.0.0","Windows","10.0","https://hz8g1ckzuq.cognition.run/","en-US,en;q=0.9","hvau0gvqyl4ub0y","52323","[{""page_index"":0,""viewing_time"":2720},{""page_index"":1,""viewing_time"":6522},{""page_index"":2,""viewing_time"":4996},{""page_index"":3,""viewing_time"":3092},{""page_index"":4,""viewing_time"":5616},{""page_index"":5,""viewing_time"":2556},{""page_index"":6,""viewing_time"":7076},{""page_index"":7,""viewing_time"":7494},{""page_index"":8,""viewing_time"":4604},{""page_index"":9,""viewing_time"":7648}]","","","","","","","","","","","","","","","","","","","","","",""
"","","","","","rating_trial_setup","html-keyboard-response","3","70396","0.0-3.0-0.0","94","1","2025-04-11 14:44:09","bb671e3ae32f654b8954ea4c4635f915","","Mozilla/5.0 (Windows NT 10.0; Win64; x64) AppleWebKit/537.36 (KHTML, like Gecko) Chrome/134.0.0.0 Safari/537.36","WebKit","Chrome","134.0.0.0","Windows","10.0","https://hz8g1ckzuq.cognition.run/","en-US,en;q=0.9","hvau0gvqyl4ub0y","null","","<p></p>","null","rating","wwb","catch","null","washing machines","65","55","20","20","45","30","1","","","","","","","",""
"","","","","","rating_trial","survey-html-form","4","90506","0.0-3.0-1.0","94","1","2025-04-11 14:44:09","bb671e3ae32f654b8954ea4c4635f915","","Mozilla/5.0 (Windows NT 10.0; Win64; x64) AppleWebKit/537.36 (KHTML, like Gecko) Chrome/134.0.0.0 Safari/537.36","WebKit","Chrome","134.0.0.0","Windows","10.0","https://hz8g1ckzuq.cognition.run/","en-US,en;q=0.9","hvau0gvqyl4ub0y","20049","","","{""price_1"":""40"",""price_2"":""75"",""price_3"":""120""}","rating","wwb","catch","null","washing machines","65","55","20","20","45","30","1","null","null","null","null","null","null","Average lifespan","Energy savings"
"","","","","","rating_trial_setup","html-keyboard-response","5","90809","0.0-3.0-0.1","94","1","2025-04-11 14:44:09","bb671e3ae32f654b8954ea4c4635f915","","Mozilla/5.0 (Windows NT 10.0; Win64; x64) AppleWebKit/537.36 (KHTML, like Gecko) Chrome/134.0.0.0 Safari/537.36","WebKit","Chrome","134.0.0.0","Windows","10.0","https://hz8g1ckzuq.cognition.run/","en-US,en;q=0.9","hvau0gvqyl4ub0y","null","","<p></p>","null","rating","tcd","attraction_1","1","washing machines","null","null","null","null","null","null","1","","","","","","","",""
"","","","","","rating_trial","survey-html-form","6","103316","0.0-3.0-1.1","94","1","2025-04-11 14:44:09","bb671e3ae32f654b8954ea4c4635f915","","Mozilla/5.0 (Windows NT 10.0; Win64; x64) AppleWebKit/537.36 (KHTML, like Gecko) Chrome/134.0.0.0 Safari/537.36","WebKit","Chrome","134.0.0.0","Windows","10.0","https://hz8g1ckzuq.cognition.run/","en-US,en;q=0.9","hvau0gvqyl4ub0y","12501","","","{""price_1"":""110"",""price_2"":""110"",""price_3"":""105""}","rating","tcd","attraction_1","1","washing machines","null","null","null","null","null","null","1","60","50","60","50","60","45","Average lifespan","Energy savings"
"","","","","","rating_trial_setup","html-keyboard-response","7","103619","0.0-3.0-0.2","94","1","2025-04-11 14:44:09","bb671e3ae32f654b8954ea4c4635f915","","Mozilla/5.0 (Windows NT 10.0; Win64; x64) AppleWebKit/537.36 (KHTML, like Gecko) Chrome/134.0.0.0 Safari/537.36","WebKit","Chrome","134.0.0.0","Windows","10.0","https://hz8g1ckzuq.cognition.run/","en-US,en;q=0.9","hvau0gvqyl4ub0y","null","","<p></p>","null","rating","ctd","attraction_1","2","laptops","null","null","null","null","null","null","1","","","","","","","",""
"","","","","","rating_trial","survey-html-form","8","113116","0.0-3.0-1.2","94","1","2025-04-11 14:44:09","bb671e3ae32f654b8954ea4c4635f915","","Mozilla/5.0 (Windows NT 10.0; Win64; x64) AppleWebKit/537.36 (KHTML, like Gecko) Chrome/134.0.0.0 Safari/537.36","WebKit","Chrome","134.0.0.0","Windows","10.0","https://hz8g1ckzuq.cognition.run/","en-US,en;q=0.9","hvau0gvqyl4ub0y","9492","","","{""price_1"":""110"",""price_2"":""110"",""price_3"":""100""}","rating","ctd","attraction_1","2","laptops","null","null","null","null","null","null","1","50","60","45","60","50","60","Processing speed","Memory (RAM)"
"","","","","","rating_trial_setup","html-keyboard-response","9","113418","0.0-3.0-0.3","94","1","2025-04-11 14:44:09","bb671e3ae32f654b8954ea4c4635f915","","Mozilla/5.0 (Windows NT 10.0; Win64; x64) AppleWebKit/537.36 (KHTML, like Gecko) Chrome/134.0.0.0 Safari/537.36","WebKit","Chrome","134.0.0.0","Windows","10.0","https://hz8g1ckzuq.cognition.run/","en-US,en;q=0.9","hvau0gvqyl4ub0y","null","","<p></p>","null","rating","dct","repulsion_2","2","microwave ovens","null","null","null","null","null","null","2","","","","","","","",""
"","","","","","rating_trial","survey-html-form","10","126724","0.0-3.0-1.3","94","1","2025-04-11 14:44:09","bb671e3ae32f654b8954ea4c4635f915","","Mozilla/5.0 (Windows NT 10.0; Win64; x64) AppleWebKit/537.36 (KHTML, like Gecko) Chrome/134.0.0.0 Safari/537.36","WebKit","Chrome","134.0.0.0","Windows","10.0","https://hz8g1ckzuq.cognition.run/","en-US,en;q=0.9","hvau0gvqyl4ub0y","13302","","","{""price_1"":""120"",""price_2"":""130"",""price_3"":""130""}","rating","dct","repulsion_2","2","microwave ovens","null","null","null","null","null","null","2","30","40","20","100","90","100","Warranty","Cooking power"
"","","","","","rating_trial_setup","html-keyboard-response","11","127026","0.0-3.0-0.4","94","1","2025-04-11 14:44:09","bb671e3ae32f654b8954ea4c4635f915","","Mozilla/5.0 (Windows NT 10.0; Win64; x64) AppleWebKit/537.36 (KHTML, like Gecko) Chrome/134.0.0.0 Safari/537.36","WebKit","Chrome","134.0.0.0","Windows","10.0","https://hz8g1ckzuq.cognition.run/","en-US,en;q=0.9","hvau0gvqyl4ub0y","null","","<p></p>","null","rating","wbw","catch","null","laptops","70","50","35","5","40","10","2","","","","","","","",""
"","","","","","rating_trial","survey-html-form","12","149712","0.0-3.0-1.4","94","1","2025-04-11 14:44:09","bb671e3ae32f654b8954ea4c4635f915","","Mozilla/5.0 (Windows NT 10.0; Win64; x64) AppleWebKit/537.36 (KHTML, like Gecko) Chrome/134.0.0.0 Safari/537.36","WebKit","Chrome","134.0.0.0","Windows","10.0","https://hz8g1ckzuq.cognition.run/","en-US,en;q=0.9","hvau0gvqyl4ub0y","22683","","","{""price_1"":""40"",""price_2"":""110"",""price_3"":""60""}","rating","wbw","catch","null","laptops","70","50","35","5","40","10","2","null","null","null","null","null","null","Processing speed","Memory (RAM)"
"","","","","","rating_trial_setup","html-keyboard-response","13","150016","0.0-3.0-0.5","94","1","2025-04-11 14:44:09","bb671e3ae32f654b8954ea4c4635f915","","Mozilla/5.0 (Windows NT 10.0; Win64; x64) AppleWebKit/537.36 (KHTML, like Gecko) Chrome/134.0.0.0 Safari/537.36","WebKit","Chrome","134.0.0.0","Windows","10.0","https://hz8g1ckzuq.cognition.run/","en-US,en;q=0.9","hvau0gvqyl4ub0y","null","","<p></p>","null","rating","tcd","attraction_2","1","televisions","null","null","null","null","null","null","2","","","","","","","",""
"","","","","","rating_trial","survey-html-form","14","169650","0.0-3.0-1.5","94","1","2025-04-11 14:44:09","bb671e3ae32f654b8954ea4c4635f915","","Mozilla/5.0 (Windows NT 10.0; Win64; x64) AppleWebKit/537.36 (KHTML, like Gecko) Chrome/134.0.0.0 Safari/537.36","WebKit","Chrome","134.0.0.0","Windows","10.0","https://hz8g1ckzuq.cognition.run/","en-US,en;q=0.9","hvau0gvqyl4ub0y","19628","","","{""price_1"":""1000"",""price_2"":""600"",""price_3"":""350""}","rating","tcd","attraction_2","1","televisions","null","null","null","null","null","null","2","60","50","60","50","60","40","Screen size","Average lifespan"
"","","","","","rating_trial_setup","html-keyboard-response","15","169951","0.0-3.0-0.6","94","1","2025-04-11 14:44:09","bb671e3ae32f654b8954ea4c4635f915","","Mozilla/5.0 (Windows NT 10.0; Win64; x64) AppleWebKit/537.36 (KHTML, like Gecko) Chrome/134.0.0.0 Safari/537.36","WebKit","Chrome","134.0.0.0","Windows","10.0","https://hz8g1ckzuq.cognition.run/","en-US,en;q=0.9","hvau0gvqyl4ub0y","null","","<p></p>","null","rating","tdc","repulsion_1","2","televisions","null","null","null","null","null","null","1","","","","","","","",""
"","","","","","rating_trial","survey-html-form","16","184587","0.0-3.0-1.6","94","1","2025-04-11 14:44:09","bb671e3ae32f654b8954ea4c4635f915","","Mozilla/5.0 (Windows NT 10.0; Win64; x64) AppleWebKit/537.36 (KHTML, like Gecko) Chrome/134.0.0.0 Safari/537.36","WebKit","Chrome","134.0.0.0","Windows","10.0","https://hz8g1ckzuq.cognition.run/","en-US,en;q=0.9","hvau0gvqyl4ub0y","14634","","","{""price_1"":""400"",""price_2"":""2500"",""price_3"":""1700""}","rating","tdc","repulsion_1","2","televisions","null","null","null","null","null","null","1","30","40","25","100","90","100","Screen size","Average lifespan"
"","","","","","rating_trial_setup","html-keyboard-response","17","184890","0.0-3.0-0.7","94","1","2025-04-11 14:44:09","bb671e3ae32f654b8954ea4c4635f915","","Mozilla/5.0 (Windows NT 10.0; Win64; x64) AppleWebKit/537.36 (KHTML, like Gecko) Chrome/134.0.0.0 Safari/537.36","WebKit","Chrome","134.0.0.0","Windows","10.0","https://hz8g1ckzuq.cognition.run/","en-US,en;q=0.9","hvau0gvqyl4ub0y","null","","<p></p>","null","rating","ctd","attraction_2","2","microwave ovens","null","null","null","null","null","null","1","","","","","","","",""
"","","","","","rating_trial","survey-html-form","18","201603","0.0-3.0-1.7","94","1","2025-04-11 14:44:09","bb671e3ae32f654b8954ea4c4635f915","","Mozilla/5.0 (Windows NT 10.0; Win64; x64) AppleWebKit/537.36 (KHTML, like Gecko) Chrome/134.0.0.0 Safari/537.36","WebKit","Chrome","134.0.0.0","Windows","10.0","https://hz8g1ckzuq.cognition.run/","en-US,en;q=0.9","hvau0gvqyl4ub0y","16711","","","{""price_1"":""5600"",""price_2"":""4500"",""price_3"":""1300""}","rating","ctd","attraction_2","2","microwave ovens","null","null","null","null","null","null","1","50","60","40","60","50","60","Warranty","Cooking power"
"","","","","","rating_trial_setup","html-keyboard-response","19","201905","0.0-3.0-0.8","94","1","2025-04-11 14:44:09","bb671e3ae32f654b8954ea4c4635f915","","Mozilla/5.0 (Windows NT 10.0; Win64; x64) AppleWebKit/537.36 (KHTML, like Gecko) Chrome/134.0.0.0 Safari/537.36","WebKit","Chrome","134.0.0.0","Windows","10.0","https://hz8g1ckzuq.cognition.run/","en-US,en;q=0.9","hvau0gvqyl4ub0y","null","","<p></p>","null","rating","bww","catch","null","microwave ovens","95","75","45","40","35","40","2","","","","","","","",""
"","","","","","rating_trial","survey-html-form","20","217915","0.0-3.0-1.8","94","1","2025-04-11 14:44:09","bb671e3ae32f654b8954ea4c4635f915","","Mozilla/5.0 (Windows NT 10.0; Win64; x64) AppleWebKit/537.36 (KHTML, like Gecko) Chrome/134.0.0.0 Safari/537.36","WebKit","Chrome","134.0.0.0","Windows","10.0","https://hz8g1ckzuq.cognition.run/","en-US,en;q=0.9","hvau0gvqyl4ub0y","16006","","","{""price_1"":""2000"",""price_2"":""1000"",""price_3"":""700""}","rating","bww","catch","null","microwave ovens","95","75","45","40","35","40","2","null","null","null","null","null","null","Warranty","Cooking power"
"","","","","","rating_trial_setup","html-keyboard-response","21","218219","0.0-3.0-0.9","94","1","2025-04-11 14:44:09","bb671e3ae32f654b8954ea4c4635f915","","Mozilla/5.0 (Windows NT 10.0; Win64; x64) AppleWebKit/537.36 (KHTML, like Gecko) Chrome/134.0.0.0 Safari/537.36","WebKit","Chrome","134.0.0.0","Windows","10.0","https://hz8g1ckzuq.cognition.run/","en-US,en;q=0.9","hvau0gvqyl4ub0y","null","","<p></p>","null","rating","dtc","attraction_2","1","washing machines","null","null","null","null","null","null","1","","","","","","","",""
"","","","","","rating_trial","survey-html-form","22","247379","0.0-3.0-1.9","94","1","2025-04-11 14:44:09","bb671e3ae32f654b8954ea4c4635f915","","Mozilla/5.0 (Windows NT 10.0; Win64; x64) AppleWebKit/537.36 (KHTML, like Gecko) Chrome/134.0.0.0 Safari/537.36","WebKit","Chrome","134.0.0.0","Windows","10.0","https://hz8g1ckzuq.cognition.run/","en-US,en;q=0.9","hvau0gvqyl4ub0y","29135","","","{""price_1"":""147"",""price_2"":""97300"",""price_3"":""499""}","rating","dtc","attraction_2","1","washing machines","null","null","null","null","null","null","1","60","50","60","50","60","40","Average lifespan","Energy savings"
"","","","","","rating_trial_setup","html-keyboard-response","23","247682","0.0-3.0-0.10","94","1","2025-04-11 14:44:09","bb671e3ae32f654b8954ea4c4635f915","","Mozilla/5.0 (Windows NT 10.0; Win64; x64) AppleWebKit/537.36 (KHTML, like Gecko) Chrome/134.0.0.0 Safari/537.36","WebKit","Chrome","134.0.0.0","Windows","10.0","https://hz8g1ckzuq.cognition.run/","en-US,en;q=0.9","hvau0gvqyl4ub0y","null","","<p></p>","null","rating","tdc","attraction_2","2","televisions","null","null","null","null","null","null","2","","","","","","","",""
"","","","","","rating_trial","survey-html-form","24","261063","0.0-3.0-1.10","94","1","2025-04-11 14:44:09","bb671e3ae32f654b8954ea4c4635f915","","Mozilla/5.0 (Windows NT 10.0; Win64; x64) AppleWebKit/537.36 (KHTML, like Gecko) Chrome/134.0.0.0 Safari/537.36","WebKit","Chrome","134.0.0.0","Windows","10.0","https://hz8g1ckzuq.cognition.run/","en-US,en;q=0.9","hvau0gvqyl4ub0y","13379","","","{""price_1"":""543"",""price_2"":""3453"",""price_3"":""5345""}","rating","tdc","attraction_2","2","televisions","null","null","null","null","null","null","2","50","60","40","60","50","60","Screen size","Average lifespan"
"","","","","","rating_trial_setup","html-keyboard-response","25","261367","0.0-3.0-0.11","94","1","2025-04-11 14:44:09","bb671e3ae32f654b8954ea4c4635f915","","Mozilla/5.0 (Windows NT 10.0; Win64; x64) AppleWebKit/537.36 (KHTML, like Gecko) Chrome/134.0.0.0 Safari/537.36","WebKit","Chrome","134.0.0.0","Windows","10.0","https://hz8g1ckzuq.cognition.run/","en-US,en;q=0.9","hvau0gvqyl4ub0y","null","","<p></p>","null","rating","tdc","attraction_2","1","laptops","null","null","null","null","null","null","2","","","","","","","",""
"","","","","","rating_trial","survey-html-form","26","275543","0.0-3.0-1.11","94","1","2025-04-11 14:44:09","bb671e3ae32f654b8954ea4c4635f915","","Mozilla/5.0 (Windows NT 10.0; Win64; x64) AppleWebKit/537.36 (KHTML, like Gecko) Chrome/134.0.0.0 Safari/537.36","WebKit","Chrome","134.0.0.0","Windows","10.0","https://hz8g1ckzuq.cognition.run/","en-US,en;q=0.9","hvau0gvqyl4ub0y","14165","","","{""price_1"":""4555"",""price_2"":""433"",""price_3"":""788""}","rating","tdc","attraction_2","1","laptops","null","null","null","null","null","null","2","60","50","60","50","60","40","Processing speed","Memory (RAM)"
"","","","","","rating_trial_setup","html-keyboard-response","27","275845","0.0-3.0-0.12","94","1","2025-04-11 14:44:09","bb671e3ae32f654b8954ea4c4635f915","","Mozilla/5.0 (Windows NT 10.0; Win64; x64) AppleWebKit/537.36 (KHTML, like Gecko) Chrome/134.0.0.0 Safari/537.36","WebKit","Chrome","134.0.0.0","Windows","10.0","https://hz8g1ckzuq.cognition.run/","en-US,en;q=0.9","hvau0gvqyl4ub0y","null","","<p></p>","null","rating","dtc","repulsion_1","2","microwave ovens","null","null","null","null","null","null","2","","","","","","","",""
"","","","","","rating_trial","survey-html-form","28","283957","0.0-3.0-1.12","94","1","2025-04-11 14:44:09","bb671e3ae32f654b8954ea4c4635f915","","Mozilla/5.0 (Windows NT 10.0; Win64; x64) AppleWebKit/537.36 (KHTML, like Gecko) Chrome/134.0.0.0 Safari/537.36","WebKit","Chrome","134.0.0.0","Windows","10.0","https://hz8g1ckzuq.cognition.run/","en-US,en;q=0.9","hvau0gvqyl4ub0y","8106","","","{""price_1"":""588"",""price_2"":""566"",""price_3"":""400""}","rating","dtc","repulsion_1","2","microwave ovens","null","null","null","null","null","null","2","30","40","25","100","90","100","Warranty","Cooking power"
"","","","","","rating_trial_setup","html-keyboard-response","29","284260","0.0-3.0-0.13","94","1","2025-04-11 14:44:09","bb671e3ae32f654b8954ea4c4635f915","","Mozilla/5.0 (Windows NT 10.0; Win64; x64) AppleWebKit/537.36 (KHTML, like Gecko) Chrome/134.0.0.0 Safari/537.36","WebKit","Chrome","134.0.0.0","Windows","10.0","https://hz8g1ckzuq.cognition.run/","en-US,en;q=0.9","hvau0gvqyl4ub0y","null","","<p></p>","null","rating","wbw","catch","null","laptops","65","65","10","10","20","5","2","","","","","","","",""
"","","","","","rating_trial","survey-html-form","30","291386","0.0-3.0-1.13","94","1","2025-04-11 14:44:09","bb671e3ae32f654b8954ea4c4635f915","","Mozilla/5.0 (Windows NT 10.0; Win64; x64) AppleWebKit/537.36 (KHTML, like Gecko) Chrome/134.0.0.0 Safari/537.36","WebKit","Chrome","134.0.0.0","Windows","10.0","https://hz8g1ckzuq.cognition.run/","en-US,en;q=0.9","hvau0gvqyl4ub0y","7121","","","{""price_1"":""677"",""price_2"":""566"",""price_3"":""900""}","rating","wbw","catch","null","laptops","65","65","10","10","20","5","2","null","null","null","null","null","null","Processing speed","Memory (RAM)"
"","","","","","rating_trial_setup","html-keyboard-response","31","291689","0.0-3.0-0.14","94","1","2025-04-11 14:44:09","bb671e3ae32f654b8954ea4c4635f915","","Mozilla/5.0 (Windows NT 10.0; Win64; x64) AppleWebKit/537.36 (KHTML, like Gecko) Chrome/134.0.0.0 Safari/537.36","WebKit","Chrome","134.0.0.0","Windows","10.0","https://hz8g1ckzuq.cognition.run/","en-US,en;q=0.9","hvau0gvqyl4ub0y","null","","<p></p>","null","rating","ctd","repulsion_1","1","televisions","null","null","null","null","null","null","1","","","","","","","",""
"","","","","","rating_trial","survey-html-form","32","307469","0.0-3.0-1.14","94","1","2025-04-11 14:44:09","bb671e3ae32f654b8954ea4c4635f915","","Mozilla/5.0 (Windows NT 10.0; Win64; x64) AppleWebKit/537.36 (KHTML, like Gecko) Chrome/134.0.0.0 Safari/537.36","WebKit","Chrome","134.0.0.0","Windows","10.0","https://hz8g1ckzuq.cognition.run/","en-US,en;q=0.9","hvau0gvqyl4ub0y","15777","","","{""price_1"":""2500"",""price_2"":""2400"",""price_3"":""1250""}","rating","ctd","repulsion_1","1","televisions","null","null","null","null","null","null","1","100","90","100","30","40","25","Screen size","Average lifespan"
"","","","","","rating_trial_setup","html-keyboard-response","33","307772","0.0-3.0-0.15","94","1","2025-04-11 14:44:09","bb671e3ae32f654b8954ea4c4635f915","","Mozilla/5.0 (Windows NT 10.0; Win64; x64) AppleWebKit/537.36 (KHTML, like Gecko) Chrome/134.0.0.0 Safari/537.36","WebKit","Chrome","134.0.0.0","Windows","10.0","https://hz8g1ckzuq.cognition.run/","en-US,en;q=0.9","hvau0gvqyl4ub0y","null","","<p></p>","null","rating","dtc","repulsion_1","1","washing machines","null","null","null","null","null","null","1","","","","","","","",""
"","","","","","rating_trial","survey-html-form","34","321731","0.0-3.0-1.15","94","1","2025-04-11 14:44:09","bb671e3ae32f654b8954ea4c4635f915","","Mozilla/5.0 (Windows NT 10.0; Win64; x64) AppleWebKit/537.36 (KHTML, like Gecko) Chrome/134.0.0.0 Safari/537.36","WebKit","Chrome","134.0.0.0","Windows","10.0","https://hz8g1ckzuq.cognition.run/","en-US,en;q=0.9","hvau0gvqyl4ub0y","13949","","","{""price_1"":""1250"",""price_2"":""1300"",""price_3"":""1300""}","rating","dtc","repulsion_1","1","washing machines","null","null","null","null","null","null","1","100","90","100","30","40","25","Average lifespan","Energy savings"
"","","","","","rating_trial_setup","html-keyboard-response","35","322033","0.0-3.0-0.16","94","1","2025-04-11 14:44:09","bb671e3ae32f654b8954ea4c4635f915","","Mozilla/5.0 (Windows NT 10.0; Win64; x64) AppleWebKit/537.36 (KHTML, like Gecko) Chrome/134.0.0.0 Safari/537.36","WebKit","Chrome","134.0.0.0","Windows","10.0","https://hz8g1ckzuq.cognition.run/","en-US,en;q=0.9","hvau0gvqyl4ub0y","null","","<p></p>","null","rating","dtc","repulsion_1","1","laptops","null","null","null","null","null","null","2","","","","","","","",""
"","","","","","rating_trial","survey-html-form","36","341911","0.0-3.0-1.16","94","1","2025-04-11 14:44:09","bb671e3ae32f654b8954ea4c4635f915","","Mozilla/5.0 (Windows NT 10.0; Win64; x64) AppleWebKit/537.36 (KHTML, like Gecko) Chrome/134.0.0.0 Safari/537.36","WebKit","Chrome","134.0.0.0","Windows","10.0","https://hz8g1ckzuq.cognition.run/","en-US,en;q=0.9","hvau0gvqyl4ub0y","19871","","","{""price_1"":""2510"",""price_2"":""1300"",""price_3"":""1300""}","rating","dtc","repulsion_1","1","laptops","null","null","null","null","null","null","2","100","90","100","30","40","25","Processing speed","Memory (RAM)"
"","","","","","rating_trial_setup","html-keyboard-response","37","342215","0.0-3.0-0.17","94","1","2025-04-11 14:44:09","bb671e3ae32f654b8954ea4c4635f915","","Mozilla/5.0 (Windows NT 10.0; Win64; x64) AppleWebKit/537.36 (KHTML, like Gecko) Chrome/134.0.0.0 Safari/537.36","WebKit","Chrome","134.0.0.0","Windows","10.0","https://hz8g1ckzuq.cognition.run/","en-US,en;q=0.9","hvau0gvqyl4ub0y","null","","<p></p>","null","rating","dct","repulsion_2","1","laptops","null","null","null","null","null","null","1","","","","","","","",""
"","","","","","rating_trial","survey-html-form","38","353005","0.0-3.0-1.17","94","1","2025-04-11 14:44:09","bb671e3ae32f654b8954ea4c4635f915","","Mozilla/5.0 (Windows NT 10.0; Win64; x64) AppleWebKit/537.36 (KHTML, like Gecko) Chrome/134.0.0.0 Safari/537.36","WebKit","Chrome","134.0.0.0","Windows","10.0","https://hz8g1ckzuq.cognition.run/","en-US,en;q=0.9","hvau0gvqyl4ub0y","10783","","","{""price_1"":""1200"",""price_2"":""1300"",""price_3"":""1300""}","rating","dct","repulsion_2","1","laptops","null","null","null","null","null","null","1","100","90","100","30","40","20","Processing speed","Memory (RAM)"
"","","","","","rating_trial_setup","html-keyboard-response","39","353308","0.0-3.0-0.18","94","1","2025-04-11 14:44:09","bb671e3ae32f654b8954ea4c4635f915","","Mozilla/5.0 (Windows NT 10.0; Win64; x64) AppleWebKit/537.36 (KHTML, like Gecko) Chrome/134.0.0.0 Safari/537.36","WebKit","Chrome","134.0.0.0","Windows","10.0","https://hz8g1ckzuq.cognition.run/","en-US,en;q=0.9","hvau0gvqyl4ub0y","null","","<p></p>","null","rating","ctd","repulsion_2","1","washing machines","null","null","null","null","null","null","2","","","","","","","",""
"","","","","","rating_trial","survey-html-form","40","366918","0.0-3.0-1.18","94","1","2025-04-11 14:44:09","bb671e3ae32f654b8954ea4c4635f915","","Mozilla/5.0 (Windows NT 10.0; Win64; x64) AppleWebKit/537.36 (KHTML, like Gecko) Chrome/134.0.0.0 Safari/537.36","WebKit","Chrome","134.0.0.0","Windows","10.0","https://hz8g1ckzuq.cognition.run/","en-US,en;q=0.9","hvau0gvqyl4ub0y","13608","","","{""price_1"":""490"",""price_2"":""1300"",""price_3"":""1205""}","rating","ctd","repulsion_2","1","washing machines","null","null","null","null","null","null","2","100","90","100","30","40","20","Average lifespan","Energy savings"
"","","","","","rating_trial_setup","html-keyboard-response","41","367222","0.0-3.0-0.19","94","1","2025-04-11 14:44:09","bb671e3ae32f654b8954ea4c4635f915","","Mozilla/5.0 (Windows NT 10.0; Win64; x64) AppleWebKit/537.36 (KHTML, like Gecko) Chrome/134.0.0.0 Safari/537.36","WebKit","Chrome","134.0.0.0","Windows","10.0","https://hz8g1ckzuq.cognition.run/","en-US,en;q=0.9","hvau0gvqyl4ub0y","null","","<p></p>","null","rating","cdt","repulsion_2","2","televisions","null","null","null","null","null","null","1","","","","","","","",""
"","","","","","rating_trial","survey-html-form","42","381198","0.0-3.0-1.19","94","1","2025-04-11 14:44:09","bb671e3ae32f654b8954ea4c4635f915","","Mozilla/5.0 (Windows NT 10.0; Win64; x64) AppleWebKit/537.36 (KHTML, like Gecko) Chrome/134.0.0.0 Safari/537.36","WebKit","Chrome","134.0.0.0","Windows","10.0","https://hz8g1ckzuq.cognition.run/","en-US,en;q=0.9","hvau0gvqyl4ub0y","13971","","","{""price_1"":""1300"",""price_2"":""357"",""price_3"":""1300""}","rating","cdt","repulsion_2","2","televisions","null","null","null","null","null","null","1","30","40","20","100","90","100","Screen size","Average lifespan"
"","","","","","rating_trial_setup","html-keyboard-response","43","381513","0.0-3.0-0.20","94","1","2025-04-11 14:44:09","bb671e3ae32f654b8954ea4c4635f915","","Mozilla/5.0 (Windows NT 10.0; Win64; x64) AppleWebKit/537.36 (KHTML, like Gecko) Chrome/134.0.0.0 Safari/537.36","WebKit","Chrome","134.0.0.0","Windows","10.0","https://hz8g1ckzuq.cognition.run/","en-US,en;q=0.9","hvau0gvqyl4ub0y","null","","<p></p>","null","rating","ctd","attraction_1","1","laptops","null","null","null","null","null","null","1","","","","","","","",""
"","","","","","rating_trial","survey-html-form","44","398204","0.0-3.0-1.20","94","1","2025-04-11 14:44:09","bb671e3ae32f654b8954ea4c4635f915","","Mozilla/5.0 (Windows NT 10.0; Win64; x64) AppleWebKit/537.36 (KHTML, like Gecko) Chrome/134.0.0.0 Safari/537.36","WebKit","Chrome","134.0.0.0","Windows","10.0","https://hz8g1ckzuq.cognition.run/","en-US,en;q=0.9","hvau0gvqyl4ub0y","16686","","","{""price_1"":""5060"",""price_2"":""650"",""price_3"":""1050""}","rating","ctd","attraction_1","1","laptops","null","null","null","null","null","null","1","60","50","60","50","60","45","Processing speed","Memory (RAM)"
"","","","","","rating_trial_setup","html-keyboard-response","45","398509","0.0-3.0-0.21","94","1","2025-04-11 14:44:09","bb671e3ae32f654b8954ea4c4635f915","","Mozilla/5.0 (Windows NT 10.0; Win64; x64) AppleWebKit/537.36 (KHTML, like Gecko) Chrome/134.0.0.0 Safari/537.36","WebKit","Chrome","134.0.0.0","Windows","10.0","https://hz8g1ckzuq.cognition.run/","en-US,en;q=0.9","hvau0gvqyl4ub0y","null","","<p></p>","null","rating","tcd","repulsion_1","2","washing machines","null","null","null","null","null","null","1","","","","","","","",""
"","","","","","rating_trial","survey-html-form","46","409108","0.0-3.0-1.21","94","1","2025-04-11 14:44:09","bb671e3ae32f654b8954ea4c4635f915","","Mozilla/5.0 (Windows NT 10.0; Win64; x64) AppleWebKit/537.36 (KHTML, like Gecko) Chrome/134.0.0.0 Safari/537.36","WebKit","Chrome","134.0.0.0","Windows","10.0","https://hz8g1ckzuq.cognition.run/","en-US,en;q=0.9","hvau0gvqyl4ub0y","10592","","","{""price_1"":""1300"",""price_2"":""1300"",""price_3"":""1250""}","rating","tcd","repulsion_1","2","washing machines","null","null","null","null","null","null","1","30","40","25","100","90","100","Average lifespan","Energy savings"
"","","","","","rating_trial_setup","html-keyboard-response","47","409412","0.0-3.0-0.22","94","1","2025-04-11 14:44:09","bb671e3ae32f654b8954ea4c4635f915","","Mozilla/5.0 (Windows NT 10.0; Win64; x64) AppleWebKit/537.36 (KHTML, like Gecko) Chrome/134.0.0.0 Safari/537.36","WebKit","Chrome","134.0.0.0","Windows","10.0","https://hz8g1ckzuq.cognition.run/","en-US,en;q=0.9","hvau0gvqyl4ub0y","null","","<p></p>","null","rating","cdt","repulsion_2","2","washing machines","null","null","null","null","null","null","1","","","","","","","",""
"","","","","","rating_trial","survey-html-form","48","420647","0.0-3.0-1.22","94","1","2025-04-11 14:44:09","bb671e3ae32f654b8954ea4c4635f915","","Mozilla/5.0 (Windows NT 10.0; Win64; x64) AppleWebKit/537.36 (KHTML, like Gecko) Chrome/134.0.0.0 Safari/537.36","WebKit","Chrome","134.0.0.0","Windows","10.0","https://hz8g1ckzuq.cognition.run/","en-US,en;q=0.9","hvau0gvqyl4ub0y","11229","","","{""price_1"":""1250"",""price_2"":""1200"",""price_3"":""1300""}","rating","cdt","repulsion_2","2","washing machines","null","null","null","null","null","null","1","30","40","20","100","90","100","Average lifespan","Energy savings"
"","","","","","rating_trial_setup","html-keyboard-response","49","420950","0.0-3.0-0.23","94","1","2025-04-11 14:44:09","bb671e3ae32f654b8954ea4c4635f915","","Mozilla/5.0 (Windows NT 10.0; Win64; x64) AppleWebKit/537.36 (KHTML, like Gecko) Chrome/134.0.0.0 Safari/537.36","WebKit","Chrome","134.0.0.0","Windows","10.0","https://hz8g1ckzuq.cognition.run/","en-US,en;q=0.9","hvau0gvqyl4ub0y","null","","<p></p>","null","rating","cdt","attraction_1","2","televisions","null","null","null","null","null","null","1","","","","","","","",""
"","","","","","rating_trial","survey-html-form","50","439567","0.0-3.0-1.23","94","1","2025-04-11 14:44:09","bb671e3ae32f654b8954ea4c4635f915","","Mozilla/5.0 (Windows NT 10.0; Win64; x64) AppleWebKit/537.36 (KHTML, like Gecko) Chrome/134.0.0.0 Safari/537.36","WebKit","Chrome","134.0.0.0","Windows","10.0","https://hz8g1ckzuq.cognition.run/","en-US,en;q=0.9","hvau0gvqyl4ub0y","18609","","","{""price_1"":""12440"",""price_2"":""1240"",""price_3"":""1100""}","rating","cdt","attraction_1","2","televisions","null","null","null","null","null","null","1","50","60","45","60","50","60","Screen size","Average lifespan"
"","","","","","rating_trial_setup","html-keyboard-response","51","439871","0.0-3.0-0.24","94","1","2025-04-11 14:44:09","bb671e3ae32f654b8954ea4c4635f915","","Mozilla/5.0 (Windows NT 10.0; Win64; x64) AppleWebKit/537.36 (KHTML, like Gecko) Chrome/134.0.0.0 Safari/537.36","WebKit","Chrome","134.0.0.0","Windows","10.0","https://hz8g1ckzuq.cognition.run/","en-US,en;q=0.9","hvau0gvqyl4ub0y","null","","<p></p>","null","rating","tdc","repulsion_2","1","televisions","null","null","null","null","null","null","2","","","","","","","",""
"","","","","","rating_trial","survey-html-form","52","453488","0.0-3.0-1.24","94","1","2025-04-11 14:44:09","bb671e3ae32f654b8954ea4c4635f915","","Mozilla/5.0 (Windows NT 10.0; Win64; x64) AppleWebKit/537.36 (KHTML, like Gecko) Chrome/134.0.0.0 Safari/537.36","WebKit","Chrome","134.0.0.0","Windows","10.0","https://hz8g1ckzuq.cognition.run/","en-US,en;q=0.9","hvau0gvqyl4ub0y","13613","","","{""price_1"":""235"",""price_2"":""1200"",""price_3"":""1300""}","rating","tdc","repulsion_2","1","televisions","null","null","null","null","null","null","2","100","90","100","30","40","20","Screen size","Average lifespan"
"","","","","","rating_trial_setup","html-keyboard-response","53","453791","0.0-3.0-0.25","94","1","2025-04-11 14:44:09","bb671e3ae32f654b8954ea4c4635f915","","Mozilla/5.0 (Windows NT 10.0; Win64; x64) AppleWebKit/537.36 (KHTML, like Gecko) Chrome/134.0.0.0 Safari/537.36","WebKit","Chrome","134.0.0.0","Windows","10.0","https://hz8g1ckzuq.cognition.run/","en-US,en;q=0.9","hvau0gvqyl4ub0y","null","","<p></p>","null","rating","cdt","repulsion_1","1","microwave ovens","null","null","null","null","null","null","2","","","","","","","",""
"","","","","","rating_trial","survey-html-form","54","464952","0.0-3.0-1.25","94","1","2025-04-11 14:44:09","bb671e3ae32f654b8954ea4c4635f915","","Mozilla/5.0 (Windows NT 10.0; Win64; x64) AppleWebKit/537.36 (KHTML, like Gecko) Chrome/134.0.0.0 Safari/537.36","WebKit","Chrome","134.0.0.0","Windows","10.0","https://hz8g1ckzuq.cognition.run/","en-US,en;q=0.9","hvau0gvqyl4ub0y","11153","","","{""price_1"":""1300"",""price_2"":""1250"",""price_3"":""3050""}","rating","cdt","repulsion_1","1","microwave ovens","null","null","null","null","null","null","2","100","90","100","30","40","25","Warranty","Cooking power"
"","","","","","rating_trial_setup","html-keyboard-response","55","465256","0.0-3.0-0.26","94","1","2025-04-11 14:44:09","bb671e3ae32f654b8954ea4c4635f915","","Mozilla/5.0 (Windows NT 10.0; Win64; x64) AppleWebKit/537.36 (KHTML, like Gecko) Chrome/134.0.0.0 Safari/537.36","WebKit","Chrome","134.0.0.0","Windows","10.0","https://hz8g1ckzuq.cognition.run/","en-US,en;q=0.9","hvau0gvqyl4ub0y","null","","<p></p>","null","rating","dct","attraction_1","2","microwave ovens","null","null","null","null","null","null","1","","","","","","","",""
"","","","","","rating_trial","survey-html-form","56","477334","0.0-3.0-1.26","94","1","2025-04-11 14:44:09","bb671e3ae32f654b8954ea4c4635f915","","Mozilla/5.0 (Windows NT 10.0; Win64; x64) AppleWebKit/537.36 (KHTML, like Gecko) Chrome/134.0.0.0 Safari/537.36","WebKit","Chrome","134.0.0.0","Windows","10.0","https://hz8g1ckzuq.cognition.run/","en-US,en;q=0.9","hvau0gvqyl4ub0y","12073","","","{""price_1"":""160"",""price_2"":""140"",""price_3"":""0457""}","rating","dct","attraction_1","2","microwave ovens","null","null","null","null","null","null","1","50","60","45","60","50","60","Warranty","Cooking power"
"","","","","","rating_trial_setup","html-keyboard-response","57","477637","0.0-3.0-0.27","94","1","2025-04-11 14:44:09","bb671e3ae32f654b8954ea4c4635f915","","Mozilla/5.0 (Windows NT 10.0; Win64; x64) AppleWebKit/537.36 (KHTML, like Gecko) Chrome/134.0.0.0 Safari/537.36","WebKit","Chrome","134.0.0.0","Windows","10.0","https://hz8g1ckzuq.cognition.run/","en-US,en;q=0.9","hvau0gvqyl4ub0y","null","","<p></p>","null","rating","wwb","catch","null","televisions","65","95","5","15","45","35","1","","","","","","","",""
"","","","","","rating_trial","survey-html-form","58","491792","0.0-3.0-1.27","94","1","2025-04-11 14:44:09","bb671e3ae32f654b8954ea4c4635f915","","Mozilla/5.0 (Windows NT 10.0; Win64; x64) AppleWebKit/537.36 (KHTML, like Gecko) Chrome/134.0.0.0 Safari/537.36","WebKit","Chrome","134.0.0.0","Windows","10.0","https://hz8g1ckzuq.cognition.run/","en-US,en;q=0.9","hvau0gvqyl4ub0y","14149","","","{""price_1"":""399"",""price_2"":""580"",""price_3"":""120""}","rating","wwb","catch","null","televisions","65","95","5","15","45","35","1","null","null","null","null","null","null","Screen size","Average lifespan"
"","","","","","rating_trial_setup","html-keyboard-response","59","492096","0.0-3.0-0.28","94","1","2025-04-11 14:44:09","bb671e3ae32f654b8954ea4c4635f915","","Mozilla/5.0 (Windows NT 10.0; Win64; x64) AppleWebKit/537.36 (KHTML, like Gecko) Chrome/134.0.0.0 Safari/537.36","WebKit","Chrome","134.0.0.0","Windows","10.0","https://hz8g1ckzuq.cognition.run/","en-US,en;q=0.9","hvau0gvqyl4ub0y","null","","<p></p>","null","rating","dtc","repulsion_2","2","laptops","null","null","null","null","null","null","2","","","","","","","",""
"","","","","","rating_trial","survey-html-form","60","500460","0.0-3.0-1.28","94","1","2025-04-11 14:44:09","bb671e3ae32f654b8954ea4c4635f915","","Mozilla/5.0 (Windows NT 10.0; Win64; x64) AppleWebKit/537.36 (KHTML, like Gecko) Chrome/134.0.0.0 Safari/537.36","WebKit","Chrome","134.0.0.0","Windows","10.0","https://hz8g1ckzuq.cognition.run/","en-US,en;q=0.9","hvau0gvqyl4ub0y","8356","","","{""price_1"":""1200"",""price_2"":""1300"",""price_3"":""1300""}","rating","dtc","repulsion_2","2","laptops","null","null","null","null","null","null","2","30","40","20","100","90","100","Processing speed","Memory (RAM)"
"","","","","","rating_trial_setup","html-keyboard-response","61","500766","0.0-3.0-0.29","94","1","2025-04-11 14:44:09","bb671e3ae32f654b8954ea4c4635f915","","Mozilla/5.0 (Windows NT 10.0; Win64; x64) AppleWebKit/537.36 (KHTML, like Gecko) Chrome/134.0.0.0 Safari/537.36","WebKit","Chrome","134.0.0.0","Windows","10.0","https://hz8g1ckzuq.cognition.run/","en-US,en;q=0.9","hvau0gvqyl4ub0y","null","","<p></p>","null","rating","wwb","catch","null","washing machines","55","60","45","20","15","40","2","","","","","","","",""
"","","","","","rating_trial","survey-html-form","62","510440","0.0-3.0-1.29","94","1","2025-04-11 14:44:09","bb671e3ae32f654b8954ea4c4635f915","","Mozilla/5.0 (Windows NT 10.0; Win64; x64) AppleWebKit/537.36 (KHTML, like Gecko) Chrome/134.0.0.0 Safari/537.36","WebKit","Chrome","134.0.0.0","Windows","10.0","https://hz8g1ckzuq.cognition.run/","en-US,en;q=0.9","hvau0gvqyl4ub0y","9665","","","{""price_1"":""500"",""price_2"":""450"",""price_3"":""790""}","rating","wwb","catch","null","washing machines","55","60","45","20","15","40","2","null","null","null","null","null","null","Average lifespan","Energy savings"
"","","","","","rating_trial_setup","html-keyboard-response","63","510744","0.0-3.0-0.30","94","1","2025-04-11 14:44:09","bb671e3ae32f654b8954ea4c4635f915","","Mozilla/5.0 (Windows NT 10.0; Win64; x64) AppleWebKit/537.36 (KHTML, like Gecko) Chrome/134.0.0.0 Safari/537.36","WebKit","Chrome","134.0.0.0","Windows","10.0","https://hz8g1ckzuq.cognition.run/","en-US,en;q=0.9","hvau0gvqyl4ub0y","null","","<p></p>","null","rating","ctd","repulsion_2","1","microwave ovens","null","null","null","null","null","null","2","","","","","","","",""
"","","","","","rating_trial","survey-html-form","64","519726","0.0-3.0-1.30","94","1","2025-04-11 14:44:09","bb671e3ae32f654b8954ea4c4635f915","","Mozilla/5.0 (Windows NT 10.0; Win64; x64) AppleWebKit/537.36 (KHTML, like Gecko) Chrome/134.0.0.0 Safari/537.36","WebKit","Chrome","134.0.0.0","Windows","10.0","https://hz8g1ckzuq.cognition.run/","en-US,en;q=0.9","hvau0gvqyl4ub0y","8972","","","{""price_1"":""1300"",""price_2"":""1300"",""price_3"":""1200""}","rating","ctd","repulsion_2","1","microwave ovens","null","null","null","null","null","null","2","100","90","100","30","40","20","Warranty","Cooking power"
"","","","","","rating_trial_setup","html-keyboard-response","65","520030","0.0-3.0-0.31","94","1","2025-04-11 14:44:09","bb671e3ae32f654b8954ea4c4635f915","","Mozilla/5.0 (Windows NT 10.0; Win64; x64) AppleWebKit/537.36 (KHTML, like Gecko) Chrome/134.0.0.0 Safari/537.36","WebKit","Chrome","134.0.0.0","Windows","10.0","https://hz8g1ckzuq.cognition.run/","en-US,en;q=0.9","hvau0gvqyl4ub0y","null","","<p></p>","null","rating","dct","attraction_2","1","microwave ovens","null","null","null","null","null","null","2","","","","","","","",""
"","","","","","rating_trial","survey-html-form","66","536046","0.0-3.0-1.31","94","1","2025-04-11 14:44:09","bb671e3ae32f654b8954ea4c4635f915","","Mozilla/5.0 (Windows NT 10.0; Win64; x64) AppleWebKit/537.36 (KHTML, like Gecko) Chrome/134.0.0.0 Safari/537.36","WebKit","Chrome","134.0.0.0","Windows","10.0","https://hz8g1ckzuq.cognition.run/","en-US,en;q=0.9","hvau0gvqyl4ub0y","16009","","","{""price_1"":""100"",""price_2"":""1104"",""price_3"":""500""}","rating","dct","attraction_2","1","microwave ovens","null","null","null","null","null","null","2","60","50","60","50","60","40","Warranty","Cooking power"
"","","","","","rating_trial_setup","html-keyboard-response","67","536350","0.0-3.0-0.32","94","1","2025-04-11 14:44:09","bb671e3ae32f654b8954ea4c4635f915","","Mozilla/5.0 (Windows NT 10.0; Win64; x64) AppleWebKit/537.36 (KHTML, like Gecko) Chrome/134.0.0.0 Safari/537.36","WebKit","Chrome","134.0.0.0","Windows","10.0","https://hz8g1ckzuq.cognition.run/","en-US,en;q=0.9","hvau0gvqyl4ub0y","null","","<p></p>","null","rating","dtc","attraction_2","2","laptops","null","null","null","null","null","null","2","","","","","","","",""
"","","","","","rating_trial","survey-html-form","68","550508","0.0-3.0-1.32","94","1","2025-04-11 14:44:09","bb671e3ae32f654b8954ea4c4635f915","","Mozilla/5.0 (Windows NT 10.0; Win64; x64) AppleWebKit/537.36 (KHTML, like Gecko) Chrome/134.0.0.0 Safari/537.36","WebKit","Chrome","134.0.0.0","Windows","10.0","https://hz8g1ckzuq.cognition.run/","en-US,en;q=0.9","hvau0gvqyl4ub0y","14147","","","{""price_1"":""1000"",""price_2"":""1000"",""price_3"":""1250""}","rating","dtc","attraction_2","2","laptops","null","null","null","null","null","null","2","50","60","40","60","50","60","Processing speed","Memory (RAM)"
"","","","","","rating_trial_setup","html-keyboard-response","69","550812","0.0-3.0-0.33","94","1","2025-04-11 14:44:09","bb671e3ae32f654b8954ea4c4635f915","","Mozilla/5.0 (Windows NT 10.0; Win64; x64) AppleWebKit/537.36 (KHTML, like Gecko) Chrome/134.0.0.0 Safari/537.36","WebKit","Chrome","134.0.0.0","Windows","10.0","https://hz8g1ckzuq.cognition.run/","en-US,en;q=0.9","hvau0gvqyl4ub0y","null","","<p></p>","null","rating","cdt","attraction_1","2","washing machines","null","null","null","null","null","null","2","","","","","","","",""
"","","","","","rating_trial","survey-html-form","70","565922","0.0-3.0-1.33","94","1","2025-04-11 14:44:09","bb671e3ae32f654b8954ea4c4635f915","","Mozilla/5.0 (Windows NT 10.0; Win64; x64) AppleWebKit/537.36 (KHTML, like Gecko) Chrome/134.0.0.0 Safari/537.36","WebKit","Chrome","134.0.0.0","Windows","10.0","https://hz8g1ckzuq.cognition.run/","en-US,en;q=0.9","hvau0gvqyl4ub0y","15097","","","{""price_1"":""560"",""price_2"":""1340"",""price_3"":""110""}","rating","cdt","attraction_1","2","washing machines","null","null","null","null","null","null","2","50","60","45","60","50","60","Average lifespan","Energy savings"
"","","","","","rating_trial_setup","html-keyboard-response","71","566227","0.0-3.0-0.34","94","1","2025-04-11 14:44:09","bb671e3ae32f654b8954ea4c4635f915","","Mozilla/5.0 (Windows NT 10.0; Win64; x64) AppleWebKit/537.36 (KHTML, like Gecko) Chrome/134.0.0.0 Safari/537.36","WebKit","Chrome","134.0.0.0","Windows","10.0","https://hz8g1ckzuq.cognition.run/","en-US,en;q=0.9","hvau0gvqyl4ub0y","null","","<p></p>","null","rating","cdt","repulsion_1","2","laptops","null","null","null","null","null","null","2","","","","","","","",""
"","","","","","rating_trial","survey-html-form","72","577026","0.0-3.0-1.34","94","1","2025-04-11 14:44:09","bb671e3ae32f654b8954ea4c4635f915","","Mozilla/5.0 (Windows NT 10.0; Win64; x64) AppleWebKit/537.36 (KHTML, like Gecko) Chrome/134.0.0.0 Safari/537.36","WebKit","Chrome","134.0.0.0","Windows","10.0","https://hz8g1ckzuq.cognition.run/","en-US,en;q=0.9","hvau0gvqyl4ub0y","10794","","","{""price_1"":""110"",""price_2"":""124"",""price_3"":""1300""}","rating","cdt","repulsion_1","2","laptops","null","null","null","null","null","null","2","30","40","25","100","90","100","Processing speed","Memory (RAM)"
"","","","","","rating_trial_setup","html-keyboard-response","73","577331","0.0-3.0-0.35","94","1","2025-04-11 14:44:09","bb671e3ae32f654b8954ea4c4635f915","","Mozilla/5.0 (Windows NT 10.0; Win64; x64) AppleWebKit/537.36 (KHTML, like Gecko) Chrome/134.0.0.0 Safari/537.36","WebKit","Chrome","134.0.0.0","Windows","10.0","https://hz8g1ckzuq.cognition.run/","en-US,en;q=0.9","hvau0gvqyl4ub0y","null","","<p></p>","null","rating","ctd","attraction_1","1","televisions","null","null","null","null","null","null","2","","","","","","","",""
"","","","","","rating_trial","survey-html-form","74","589941","0.0-3.0-1.35","94","1","2025-04-11 14:44:09","bb671e3ae32f654b8954ea4c4635f915","","Mozilla/5.0 (Windows NT 10.0; Win64; x64) AppleWebKit/537.36 (KHTML, like Gecko) Chrome/134.0.0.0 Safari/537.36","WebKit","Chrome","134.0.0.0","Windows","10.0","https://hz8g1ckzuq.cognition.run/","en-US,en;q=0.9","hvau0gvqyl4ub0y","12602","","","{""price_1"":""110"",""price_2"":""110"",""price_3"":""1050""}","rating","ctd","attraction_1","1","televisions","null","null","null","null","null","null","2","60","50","60","50","60","45","Screen size","Average lifespan"
"","","","","","rating_trial_setup","html-keyboard-response","75","590245","0.0-3.0-0.36","94","1","2025-04-11 14:44:09","bb671e3ae32f654b8954ea4c4635f915","","Mozilla/5.0 (Windows NT 10.0; Win64; x64) AppleWebKit/537.36 (KHTML, like Gecko) Chrome/134.0.0.0 Safari/537.36","WebKit","Chrome","134.0.0.0","Windows","10.0","https://hz8g1ckzuq.cognition.run/","en-US,en;q=0.9","hvau0gvqyl4ub0y","null","","<p></p>","null","rating","cdt","attraction_2","2","washing machines","null","null","null","null","null","null","2","","","","","","","",""
"","","","","","rating_trial","survey-html-form","76","600024","0.0-3.0-1.36","94","1","2025-04-11 14:44:09","bb671e3ae32f654b8954ea4c4635f915","","Mozilla/5.0 (Windows NT 10.0; Win64; x64) AppleWebKit/537.36 (KHTML, like Gecko) Chrome/134.0.0.0 Safari/537.36","WebKit","Chrome","134.0.0.0","Windows","10.0","https://hz8g1ckzuq.cognition.run/","en-US,en;q=0.9","hvau0gvqyl4ub0y","9769","","","{""price_1"":""110"",""price_2"":""130"",""price_3"":""500""}","rating","cdt","attraction_2","2","washing machines","null","null","null","null","null","null","2","50","60","40","60","50","60","Average lifespan","Energy savings"
"","","","","","rating_trial_setup","html-keyboard-response","77","600328","0.0-3.0-0.37","94","1","2025-04-11 14:44:09","bb671e3ae32f654b8954ea4c4635f915","","Mozilla/5.0 (Windows NT 10.0; Win64; x64) AppleWebKit/537.36 (KHTML, like Gecko) Chrome/134.0.0.0 Safari/537.36","WebKit","Chrome","134.0.0.0","Windows","10.0","https://hz8g1ckzuq.cognition.run/","en-US,en;q=0.9","hvau0gvqyl4ub0y","null","","<p></p>","null","rating","wwb","catch","null","microwave ovens","95","70","40","25","45","35","1","","","","","","","",""
"","","","","","rating_trial","survey-html-form","78","608158","0.0-3.0-1.37","94","1","2025-04-11 14:44:09","bb671e3ae32f654b8954ea4c4635f915","","Mozilla/5.0 (Windows NT 10.0; Win64; x64) AppleWebKit/537.36 (KHTML, like Gecko) Chrome/134.0.0.0 Safari/537.36","WebKit","Chrome","134.0.0.0","Windows","10.0","https://hz8g1ckzuq.cognition.run/","en-US,en;q=0.9","hvau0gvqyl4ub0y","7822","","","{""price_1"":""345"",""price_2"":""567"",""price_3"":""890""}","rating","wwb","catch","null","microwave ovens","95","70","40","25","45","35","1","null","null","null","null","null","null","Warranty","Cooking power"
"","","","","","rating_trial_setup","html-keyboard-response","79","608463","0.0-3.0-0.38","94","1","2025-04-11 14:44:09","bb671e3ae32f654b8954ea4c4635f915","","Mozilla/5.0 (Windows NT 10.0; Win64; x64) AppleWebKit/537.36 (KHTML, like Gecko) Chrome/134.0.0.0 Safari/537.36","WebKit","Chrome","134.0.0.0","Windows","10.0","https://hz8g1ckzuq.cognition.run/","en-US,en;q=0.9","hvau0gvqyl4ub0y","null","","<p></p>","null","rating","bww","catch","null","televisions","80","60","40","50","30","10","1","","","","","","","",""
"","","","","","rating_trial","survey-html-form","80","619071","0.0-3.0-1.38","94","1","2025-04-11 14:44:09","bb671e3ae32f654b8954ea4c4635f915","","Mozilla/5.0 (Windows NT 10.0; Win64; x64) AppleWebKit/537.36 (KHTML, like Gecko) Chrome/134.0.0.0 Safari/537.36","WebKit","Chrome","134.0.0.0","Windows","10.0","https://hz8g1ckzuq.cognition.run/","en-US,en;q=0.9","hvau0gvqyl4ub0y","10597","","","{""price_1"":""600"",""price_2"":""450"",""price_3"":""3500""}","rating","bww","catch","null","televisions","80","60","40","50","30","10","1","null","null","null","null","null","null","Screen size","Average lifespan"
"","","","","","rating_trial_setup","html-keyboard-response","81","619376","0.0-3.0-0.39","94","1","2025-04-11 14:44:09","bb671e3ae32f654b8954ea4c4635f915","","Mozilla/5.0 (Windows NT 10.0; Win64; x64) AppleWebKit/537.36 (KHTML, like Gecko) Chrome/134.0.0.0 Safari/537.36","WebKit","Chrome","134.0.0.0","Windows","10.0","https://hz8g1ckzuq.cognition.run/","en-US,en;q=0.9","hvau0gvqyl4ub0y","null","","<p></p>","null","rating","tdc","attraction_1","1","microwave ovens","null","null","null","null","null","null","1","","","","","","","",""