"success","timeout","failed_images","failed_audio","failed_video","screen_id","trial_type","trial_index","time_elapsed","internal_node_id","run_id","condition","recorded_at","source_code_version","ip","user_agent","device","browser","browser_version","platform","platform_version","referer","accept_language","ppt_id","age","race","ethnicity","gender","exp_duration","rt","view_history","stimulus","response","phase","order","effect","t_high","category","d1_best","d2_best","d1_worst1","d2_worst1","d1_worst2","d2_worst2","first_dim","d1_t","d1_c","d1_d","d2_t","d2_c","d2_d","d1_name","d2_name","strategy_response","question_order"
"true","false","[]","[]","[]","img preload","preload","0","4335","0.0-0.0","95","1","2025-04-11 14:44:40","bb671e3ae32f654b8954ea4c4635f915","","Mozilla/5.0 (Windows NT 10.0; Win64; x64) AppleWebKit/537.36 (KHTML, like Gecko) Chrome/132.0.0.0 Safari/537.36","WebKit","Chrome","132.0.0.0","Windows","10.0","https://hz8g1ckzuq.cognition.run/","en-US,en;q=0.9","wlvk2awbn0j2zqu","28","[""White""]","No","Female","1084730.800000012","","","","","","","","","","","","","","","","","","","","","","","","","",""
"true","","","","","","fullscreen","1","75450","0.0-1.0","95","1","2025-04-11 14:44:40","bb671e3ae32f654b8954ea4c4635f915","","Mozilla/5.0 (Windows NT 10.0; Win64; x64) AppleWebKit/537.36 (KHTML, like Gecko) Chrome/132.0.0.0 Safari/537.36","WebKit","Chrome","132.0.0.0","Windows","10.0","https://hz8g1ckzuq.cognition.run/","en-US,en;q=0.9","wlvk2awbn0j2zqu","28","[""White""]","No","Female","1084730.800000012","70105","","","","","","","","","","","","","","","","","","","","","","","","",""
"","","","","","","instructions","2","182310","0.0-2.0","95","1","2025-04-11 14:44:40","bb671e3ae32f654b8954ea4c4635f915","","Mozilla/5.0 (Windows NT 10.0; Win64; x64) AppleWebKit/537.36 (KHTML, like Gecko) Chrome/132.0.0.0 Safari/537.36","WebKit","Chrome","132.0.0.0","Windows","10.0","https://hz8g1ckzuq.cognition.run/","en-US,en;q=0.9","wlvk2awbn0j2zqu","28","[""White""]","No","Female","1084730.800000012","106857","[{""page_index"":0,""viewing_time"":1620},{""page_index"":1,""viewing_time"":2813},{""page_index"":2,""viewing_time"":3724},{""page_index"":3,""viewing_time"":5425},{""page_index"":4,""viewing_time"":39025},{""page_index"":5,""viewing_time"":11966},{""page_index"":6,""viewing_time"":5894},{""page_index"":7,""viewing_time"":16206},{""page_index"":8,""viewing_time"":17512},{""page_index"":9,""viewing_time"":2673}]","","","","","","","","","","","","","","","","","","","","","","","",""
"","","","","","rating_trial_setup","html-keyboard-response","3","182615","0.0-3.0-0.0","95","1","2025-04-11 14:44:40","bb671e3ae32f654b8954ea4c4635f915","","Mozilla/5.0 (Windows NT 10.0; Win64; x64) AppleWebKit/537.36 (KHTML, like Gecko) Chrome/132.0.0.0 Safari/537.36","WebKit","Chrome","132.0.0.0","Windows","10.0","https://hz8g1ckzuq.cognition.run/","en-US,en;q=0.9","wlvk2awbn0j2zqu","28","[""White""]","No","Female","1084730.800000012","null","","<p></p>","null","rating","ctd","attraction_2","1","microwave ovens","null","null","null","null","null","null","1","","","","","","","","","",""
"","","","","","rating_trial","survey-html-form","4","206897","0.0-3.0-1.0","95","1","2025-04-11 14:44:40","bb671e3ae32f654b8954ea4c4635f915","","Mozilla/5.0 (Windows NT 10.0; Win64; x64) AppleWebKit/537.36 (KHTML, like Gecko) Chrome/132.0.0.0 Safari/537.36","WebKit","Chrome","132.0.0.0","Windows","10.0","https://hz8g1ckzuq.cognition.run/","en-US,en;q=0.9","wlvk2awbn0j2zqu","28","[""White""]","No","Female","1084730.800000012","24273","","","{""price_1"":""50"",""price_2"":""60"",""price_3"":""50""}","rating","ctd","attraction_2","1","microwave ovens","null","null","null","null","null","null","1","60","50","60","50","60","40","Warranty","Cooking power","",""
"","","","","","rating_trial_setup","html-keyboard-response","5","207205","0.0-3.0-0.1","95","1","2025-04-11 14:44:40","bb671e3ae32f654b8954ea4c4635f915","","Mozilla/5.0 (Windows NT 10.0; Win64; x64) AppleWebKit/537.36 (KHTML, like Gecko) Chrome/132.0.0.0 Safari/537.36","WebKit","Chrome","132.0.0.0","Windows","10.0","https://hz8g1ckzuq.cognition.run/","en-US,en;q=0.9","wlvk2awbn0j2zqu","28","[""White""]","No","Female","1084730.800000012","null","","<p></p>","null","rating","dct","repulsion_1","1","laptops","null","null","null","null","null","null","1","","","","","","","","","",""
"","","","","","rating_trial","survey-html-form","6","217316","0.0-3.0-1.1","95","1","2025-04-11 14:44:40","bb671e3ae32f654b8954ea4c4635f915","","Mozilla/5.0 (Windows NT 10.0; Win64; x64) AppleWebKit/537.36 (KHTML, like Gecko) Chrome/132.0.0.0 Safari/537.36","WebKit","Chrome","132.0.0.0","Windows","10.0","https://hz8g1ckzuq.cognition.run/","en-US,en;q=0.9","wlvk2awbn0j2zqu","28","[""White""]","No","Female","1084730.800000012","10105","","","{""price_1"":""50"",""price_2"":""50"",""price_3"":""40""}","rating","dct","repulsion_1","1","laptops","null","null","null","null","null","null","1","100","90","100","30","40","25","Processing speed","Memory (RAM)","",""
"","","","","","rating_trial_setup","html-keyboard-response","7","217621","0.0-3.0-0.2","95","1","2025-04-11 14:44:40","bb671e3ae32f654b8954ea4c4635f915","","Mozilla/5.0 (Windows NT 10.0; Win64; x64) AppleWebKit/537.36 (KHTML, like Gecko) Chrome/132.0.0.0 Safari/537.36","WebKit","Chrome","132.0.0.0","Windows","10.0","https://hz8g1ckzuq.cognition.run/","en-US,en;q=0.9","wlvk2awbn0j2zqu","28","[""White""]","No","Female","1084730.800000012","null","","<p></p>","null","rating","tcd","attraction_2","2","laptops","null","null","null","null","null","null","2","","","","","","","","","",""
"","","","","","rating_trial","survey-html-form","8","229339","0.0-3.0-1.2","95","1","2025-04-11 14:44:40","bb671e3ae32f654b8954ea4c4635f915","","Mozilla/5.0 (Windows NT 10.0; Win64; x64) AppleWebKit/537.36 (KHTML, like Gecko) Chrome/132.0.0.0 Safari/537.36","WebKit","Chrome","132.0.0.0","Windows","10.0","https://hz8g1ckzuq.cognition.run/","en-US,en;q=0.9","wlvk2awbn0j2zqu","28","[""White""]","No","Female","1084730.800000012","11712","","","{""price_1"":""60"",""price_2"":""60"",""price_3"":""50""}","rating","tcd","attraction_2","2","laptops","null","null","null","null","null","null","2","50","60","40","60","50","60","Processing speed","Memory (RAM)","",""
"","","","","","rating_trial_setup","html-keyboard-response","9","229644","0.0-3.0-0.3","95","1","2025-04-11 14:44:40","bb671e3ae32f654b8954ea4c4635f915","","Mozilla/5.0 (Windows NT 10.0; Win64; x64) AppleWebKit/537.36 (KHTML, like Gecko) Chrome/132.0.0.0 Safari/537.36","WebKit","Chrome","132.0.0.0","Windows","10.0","https://hz8g1ckzuq.cognition.run/","en-US,en;q=0.9","wlvk2awbn0j2zqu","28","[""White""]","No","Female","1084730.800000012","null","","<p></p>","null","rating","cdt","repulsion_2","2","laptops","null","null","null","null","null","null","2","","","","","","","","","",""
"","","","","","rating_trial","survey-html-form","10","240483","0.0-3.0-1.3","95","1","2025-04-11 14:44:40","bb671e3ae32f654b8954ea4c4635f915","","Mozilla/5.0 (Windows NT 10.0; Win64; x64) AppleWebKit/537.36 (KHTML, like Gecko) Chrome/132.0.0.0 Safari/537.36","WebKit","Chrome","132.0.0.0","Windows","10.0","https://hz8g1ckzuq.cognition.run/","en-US,en;q=0.9","wlvk2awbn0j2zqu","28","[""White""]","No","Female","1084730.800000012","10835","","","{""price_1"":""50"",""price_2"":""60"",""price_3"":""50""}","rating","cdt","repulsion_2","2","laptops","null","null","null","null","null","null","2","30","40","20","100","90","100","Processing speed","Memory (RAM)","",""
"","","","","","rating_trial_setup","html-keyboard-response","11","240801","0.0-3.0-0.4","95","1","2025-04-11 14:44:40","bb671e3ae32f654b8954ea4c4635f915","","Mozilla/5.0 (Windows NT 10.0; Win64; x64) AppleWebKit/537.36 (KHTML, like Gecko) Chrome/132.0.0.0 Safari/537.36","WebKit","Chrome","132.0.0.0","Windows","10.0","https://hz8g1ckzuq.cognition.run/","en-US,en;q=0.9","wlvk2awbn0j2zqu","28","[""White""]","No","Female","1084730.800000012","null","","<p></p>","null","rating","ctd","repulsion_2","1","televisions","null","null","null","null","null","null","1","","","","","","","","","",""
"","","","","","rating_trial","survey-html-form","12","250187","0.0-3.0-1.4","95","1","2025-04-11 14:44:40","bb671e3ae32f654b8954ea4c4635f915","","Mozilla/5.0 (Windows NT 10.0; Win64; x64) AppleWebKit/537.36 (KHTML, like Gecko) Chrome/132.0.0.0 Safari/537.36","WebKit","Chrome","132.0.0.0","Windows","10.0","https://hz8g1ckzuq.cognition.run/","en-US,en;q=0.9","wlvk2awbn0j2zqu","28","[""White""]","No","Female","1084730.800000012","9381","","","{""price_1"":""50"",""price_2"":""60"",""price_3"":""50""}","rating","ctd","repulsion_2","1","televisions","null","null","null","null","null","null","1","100","90","100","30","40","20","Screen size","Average lifespan","",""
"","","","","","rating_trial_setup","html-keyboard-response","13","250503","0.0-3.0-0.5","95","1","2025-04-11 14:44:40","bb671e3ae32f654b8954ea4c4635f915","","Mozilla/5.0 (Windows NT 10.0; Win64; x64) AppleWebKit/537.36 (KHTML, like Gecko) Chrome/132.0.0.0 Safari/537.36","WebKit","Chrome","132.0.0.0","Windows","10.0","https://hz8g1ckzuq.cognition.run/","en-US,en;q=0.9","wlvk2awbn0j2zqu","28","[""White""]","No","Female","1084730.800000012","null","","<p></p>","null","rating","dtc","repulsion_2","2","microwave ovens","null","null","null","null","null","null","2","","","","","","","","","",""
"","","","","","rating_trial","survey-html-form","14","261446","0.0-3.0-1.5","95","1","2025-04-11 14:44:40","bb671e3ae32f654b8954ea4c4635f915","","Mozilla/5.0 (Windows NT 10.0; Win64; x64) AppleWebKit/537.36 (KHTML, like Gecko) Chrome/132.0.0.0 Safari/537.36","WebKit","Chrome","132.0.0.0","Windows","10.0","https://hz8g1ckzuq.cognition.run/","en-US,en;q=0.9","wlvk2awbn0j2zqu","28","[""White""]","No","Female","1084730.800000012","10937","","","{""price_1"":""70"",""price_2"":""60"",""price_3"":""80""}","rating","dtc","repulsion_2","2","microwave ovens","null","null","null","null","null","null","2","30","40","20","100","90","100","Warranty","Cooking power","",""
"","","","","","rating_trial_setup","html-keyboard-response","15","261753","0.0-3.0-0.6","95","1","2025-04-11 14:44:40","bb671e3ae32f654b8954ea4c4635f915","","Mozilla/5.0 (Windows NT 10.0; Win64; x64) AppleWebKit/537.36 (KHTML, like Gecko) Chrome/132.0.0.0 Safari/537.36","WebKit","Chrome","132.0.0.0","Windows","10.0","https://hz8g1ckzuq.cognition.run/","en-US,en;q=0.9","wlvk2awbn0j2zqu","28","[""White""]","No","Female","1084730.800000012","null","","<p></p>","null","rating","tdc","repulsion_1","1","microwave ovens","null","null","null","null","null","null","1","","","","","","","","","",""
"","","","","","rating_trial","survey-html-form","16","270182","0.0-3.0-1.6","95","1","2025-04-11 14:44:40","bb671e3ae32f654b8954ea4c4635f915","","Mozilla/5.0 (Windows NT 10.0; Win64; x64) AppleWebKit/537.36 (KHTML, like Gecko) Chrome/132.0.0.0 Safari/537.36","WebKit","Chrome","132.0.0.0","Windows","10.0","https://hz8g1ckzuq.cognition.run/","en-US,en;q=0.9","wlvk2awbn0j2zqu","28","[""White""]","No","Female","1084730.800000012","8423","","","{""price_1"":""60"",""price_2"":""50"",""price_3"":""70""}","rating","tdc","repulsion_1","1","microwave ovens","null","null","null","null","null","null","1","100","90","100","30","40","25","Warranty","Cooking power","",""
"","","","","","rating_trial_setup","html-keyboard-response","17","270488","0.0-3.0-0.7","95","1","2025-04-11 14:44:40","bb671e3ae32f654b8954ea4c4635f915","","Mozilla/5.0 (Windows NT 10.0; Win64; x64) AppleWebKit/537.36 (KHTML, like Gecko) Chrome/132.0.0.0 Safari/537.36","WebKit","Chrome","132.0.0.0","Windows","10.0","https://hz8g1ckzuq.cognition.run/","en-US,en;q=0.9","wlvk2awbn0j2zqu","28","[""White""]","No","Female","1084730.800000012","null","","<p></p>","null","rating","cdt","attraction_1","2","microwave ovens","null","null","null","null","null","null","1","","","","","","","","","",""
"","","","","","rating_trial","survey-html-form","18","284452","0.0-3.0-1.7","95","1","2025-04-11 14:44:40","bb671e3ae32f654b8954ea4c4635f915","","Mozilla/5.0 (Windows NT 10.0; Win64; x64) AppleWebKit/537.36 (KHTML, like Gecko) Chrome/132.0.0.0 Safari/537.36","WebKit","Chrome","132.0.0.0","Windows","10.0","https://hz8g1ckzuq.cognition.run/","en-US,en;q=0.9","wlvk2awbn0j2zqu","28","[""White""]","No","Female","1084730.800000012","13959","","","{""price_1"":""60"",""price_2"":""50"",""price_3"":""60""}","rating","cdt","attraction_1","2","microwave ovens","null","null","null","null","null","null","1","50","60","45","60","50","60","Warranty","Cooking power","",""
"","","","","","rating_trial_setup","html-keyboard-response","19","284764","0.0-3.0-0.8","95","1","2025-04-11 14:44:40","bb671e3ae32f654b8954ea4c4635f915","","Mozilla/5.0 (Windows NT 10.0; Win64; x64) AppleWebKit/537.36 (KHTML, like Gecko) Chrome/132.0.0.0 Safari/537.36","WebKit","Chrome","132.0.0.0","Windows","10.0","https://hz8g1ckzuq.cognition.run/","en-US,en;q=0.9","wlvk2awbn0j2zqu","28","[""White""]","No","Female","1084730.800000012","null","","<p></p>","null","rating","cdt","attraction_1","1","washing machines","null","null","null","null","null","null","2","","","","","","","","","",""
"","","","","","rating_trial","survey-html-form","20","342151","0.0-3.0-1.8","95","1","2025-04-11 14:44:40","bb671e3ae32f654b8954ea4c4635f915","","Mozilla/5.0 (Windows NT 10.0; Win64; x64) AppleWebKit/537.36 (KHTML, like Gecko) Chrome/132.0.0.0 Safari/537.36","WebKit","Chrome","132.0.0.0","Windows","10.0","https://hz8g1ckzuq.cognition.run/","en-US,en;q=0.9","wlvk2awbn0j2zqu","28","[""White""]","No","Female","1084730.800000012","57380","","","{""price_1"":""50"",""price_2"":""40"",""price_3"":""50""}","rating","cdt","attraction_1","1","washing machines","null","null","null","null","null","null","2","60","50","60","50","60","45","Average lifespan","Energy savings","",""
"","","","","","rating_trial_setup","html-keyboard-response","21","342467","0.0-3.0-0.9","95","1","2025-04-11 14:44:40","bb671e3ae32f654b8954ea4c4635f915","","Mozilla/5.0 (Windows NT 10.0; Win64; x64) AppleWebKit/537.36 (KHTML, like Gecko) Chrome/132.0.0.0 Safari/537.36","WebKit","Chrome","132.0.0.0","Windows","10.0","https://hz8g1ckzuq.cognition.run/","en-US,en;q=0.9","wlvk2awbn0j2zqu","28","[""White""]","No","Female","1084730.800000012","null","","<p></p>","null","rating","tcd","repulsion_2","2","washing machines","null","null","null","null","null","null","1","","","","","","","","","",""
"","","","","","rating_trial","survey-html-form","22","357731","0.0-3.0-1.9","95","1","2025-04-11 14:44:40","bb671e3ae32f654b8954ea4c4635f915","","Mozilla/5.0 (Windows NT 10.0; Win64; x64) AppleWebKit/537.36 (KHTML, like Gecko) Chrome/132.0.0.0 Safari/537.36","WebKit","Chrome","132.0.0.0","Windows","10.0","https://hz8g1ckzuq.cognition.run/","en-US,en;q=0.9","wlvk2awbn0j2zqu","28","[""White""]","No","Female","1084730.800000012","15257","","","{""price_1"":""200"",""price_2"":""90"",""price_3"":""180""}","rating","tcd","repulsion_2","2","washing machines","null","null","null","null","null","null","1","30","40","20","100","90","100","Average lifespan","Energy savings","",""
"","","","","","rating_trial_setup","html-keyboard-response","23","358046","0.0-3.0-0.10","95","1","2025-04-11 14:44:40","bb671e3ae32f654b8954ea4c4635f915","","Mozilla/5.0 (Windows NT 10.0; Win64; x64) AppleWebKit/537.36 (KHTML, like Gecko) Chrome/132.0.0.0 Safari/537.36","WebKit","Chrome","132.0.0.0","Windows","10.0","https://hz8g1ckzuq.cognition.run/","en-US,en;q=0.9","wlvk2awbn0j2zqu","28","[""White""]","No","Female","1084730.800000012","null","","<p></p>","null","rating","wwb","catch","null","microwave ovens","75","50","25","15","20","45","1","","","","","","","","","",""
"","","","","","rating_trial","survey-html-form","24","372108","0.0-3.0-1.10","95","1","2025-04-11 14:44:40","bb671e3ae32f654b8954ea4c4635f915","","Mozilla/5.0 (Windows NT 10.0; Win64; x64) AppleWebKit/537.36 (KHTML, like Gecko) Chrome/132.0.0.0 Safari/537.36","WebKit","Chrome","132.0.0.0","Windows","10.0","https://hz8g1ckzuq.cognition.run/","en-US,en;q=0.9","wlvk2awbn0j2zqu","28","[""White""]","No","Female","1084730.800000012","14056","","","{""price_1"":""198"",""price_2"":""176"",""price_3"":""150""}","rating","wwb","catch","null","microwave ovens","75","50","25","15","20","45","1","null","null","null","null","null","null","Warranty","Cooking power","",""
"","","","","","rating_trial_setup","html-keyboard-response","25","372426","0.0-3.0-0.11","95","1","2025-04-11 14:44:40","bb671e3ae32f654b8954ea4c4635f915","","Mozilla/5.0 (Windows NT 10.0; Win64; x64) AppleWebKit/537.36 (KHTML, like Gecko) Chrome/132.0.0.0 Safari/537.36","WebKit","Chrome","132.0.0.0","Windows","10.0","https://hz8g1ckzuq.cognition.run/","en-US,en;q=0.9","wlvk2awbn0j2zqu","28","[""White""]","No","Female","1084730.800000012","null","","<p></p>","null","rating","tdc","repulsion_1","2","washing machines","null","null","null","null","null","null","2","","","","","","","","","",""
"","","","","","rating_trial","survey-html-form","26","389697","0.0-3.0-1.11","95","1","2025-04-11 14:44:40","bb671e3ae32f654b8954ea4c4635f915","","Mozilla/5.0 (Windows NT 10.0; Win64; x64) AppleWebKit/537.36 (KHTML, like Gecko) Chrome/132.0.0.0 Safari/537.36","WebKit","Chrome","132.0.0.0","Windows","10.0","https://hz8g1ckzuq.cognition.run/","en-US,en;q=0.9","wlvk2awbn0j2zqu","28","[""White""]","No","Female","1084730.800000012","17263","","","{""price_1"":""200"",""price_2"":""300"",""price_3"":""210""}","rating","tdc","repulsion_1","2","washing machines","null","null","null","null","null","null","2","30","40","25","100","90","100","Average lifespan","Energy savings","",""
"","","","","","rating_trial_setup","html-keyboard-response","27","390005","0.0-3.0-0.12","95","1","2025-04-11 14:44:40","bb671e3ae32f654b8954ea4c4635f915","","Mozilla/5.0 (Windows NT 10.0; Win64; x64) AppleWebKit/537.36 (KHTML, like Gecko) Chrome/132.0.0.0 Safari/537.36","WebKit","Chrome","132.0.0.0","Windows","10.0","https://hz8g1ckzuq.cognition.run/","en-US,en;q=0.9","wlvk2awbn0j2zqu","28","[""White""]","No","Female","1084730.800000012","null","","<p></p>","null","rating","tcd","attraction_1","2","televisions","null","null","null","null","null","null","1","","","","","","","","","",""
"","","","","","rating_trial","survey-html-form","28","406516","0.0-3.0-1.12","95","1","2025-04-11 14:44:40","bb671e3ae32f654b8954ea4c4635f915","","Mozilla/5.0 (Windows NT 10.0; Win64; x64) AppleWebKit/537.36 (KHTML, like Gecko) Chrome/132.0.0.0 Safari/537.36","WebKit","Chrome","132.0.0.0","Windows","10.0","https://hz8g1ckzuq.cognition.run/","en-US,en;q=0.9","wlvk2awbn0j2zqu","28","[""White""]","No","Female","1084730.800000012","16505","","","{""price_1"":""345"",""price_2"":""230"",""price_3"":""198""}","rating","tcd","attraction_1","2","televisions","null","null","null","null","null","null","1","50","60","45","60","50","60","Screen size","Average lifespan","",""
"","","","","","rating_trial_setup","html-keyboard-response","29","406821","0.0-3.0-0.13","95","1","2025-04-11 14:44:40","bb671e3ae32f654b8954ea4c4635f915","","Mozilla/5.0 (Windows NT 10.0; Win64; x64) AppleWebKit/537.36 (KHTML, like Gecko) Chrome/132.0.0.0 Safari/537.36","WebKit","Chrome","132.0.0.0","Windows","10.0","https://hz8g1ckzuq.cognition.run/","en-US,en;q=0.9","wlvk2awbn0j2zqu","28","[""White""]","No","Female","1084730.800000012","null","","<p></p>","null","rating","tdc","repulsion_1","1","washing machines","null","null","null","null","null","null","2","","","","","","","","","",""
"","","","","","rating_trial","survey-html-form","30","429569","0.0-3.0-1.13","95","1","2025-04-11 14:44:40","bb671e3ae32f654b8954ea4c4635f915","","Mozilla/5.0 (Windows NT 10.0; Win64; x64) AppleWebKit/537.36 (KHTML, like Gecko) Chrome/132.0.0.0 Safari/537.36","WebKit","Chrome","132.0.0.0","Windows","10.0","https://hz8g1ckzuq.cognition.run/","en-US,en;q=0.9","wlvk2awbn0j2zqu","28","[""White""]","No","Female","1084730.800000012","22744","","","{""price_1"":""400"",""price_2"":""300"",""price_3"":""400""}","rating","tdc","repulsion_1","1","washing machines","null","null","null","null","null","null","2","100","90","100","30","40","25","Average lifespan","Energy savings","",""
"","","","","","rating_trial_setup","html-keyboard-response","31","429887","0.0-3.0-0.14","95","1","2025-04-11 14:44:40","bb671e3ae32f654b8954ea4c4635f915","","Mozilla/5.0 (Windows NT 10.0; Win64; x64) AppleWebKit/537.36 (KHTML, like Gecko) Chrome/132.0.0.0 Safari/537.36","WebKit","Chrome","132.0.0.0","Windows","10.0","https://hz8g1ckzuq.cognition.run/","en-US,en;q=0.9","wlvk2awbn0j2zqu","28","[""White""]","No","Female","1084730.800000012","null","","<p></p>","null","rating","tcd","attraction_1","1","televisions","null","null","null","null","null","null","2","","","","","","","","","",""
"","","","","","rating_trial","survey-html-form","32","450036","0.0-3.0-1.14","95","1","2025-04-11 14:44:40","bb671e3ae32f654b8954ea4c4635f915","","Mozilla/5.0 (Windows NT 10.0; Win64; x64) AppleWebKit/537.36 (KHTML, like Gecko) Chrome/132.0.0.0 Safari/537.36","WebKit","Chrome","132.0.0.0","Windows","10.0","https://hz8g1ckzuq.cognition.run/","en-US,en;q=0.9","wlvk2awbn0j2zqu","28","[""White""]","No","Female","1084730.800000012","20142","","","{""price_1"":""400"",""price_2"":""300"",""price_3"":""300""}","rating","tcd","attraction_1","1","televisions","null","null","null","null","null","null","2","60","50","60","50","60","45","Screen size","Average lifespan","",""
"","","","","","rating_trial_setup","html-keyboard-response","33","450344","0.0-3.0-0.15","95","1","2025-04-11 14:44:40","bb671e3ae32f654b8954ea4c4635f915","","Mozilla/5.0 (Windows NT 10.0; Win64; x64) AppleWebKit/537.36 (KHTML, like Gecko) Chrome/132.0.0.0 Safari/537.36","WebKit","Chrome","132.0.0.0","Windows","10.0","https://hz8g1ckzuq.cognition.run/","en-US,en;q=0.9","wlvk2awbn0j2zqu","28","[""White""]","No","Female","1084730.800000012","null","","<p></p>","null","rating","bww","catch","null","televisions","75","70","30","5","40","10","2","","","","","","","","","",""
"","","","","","rating_trial","survey-html-form","34","463513","0.0-3.0-1.15","95","1","2025-04-11 14:44:40","bb671e3ae32f654b8954ea4c4635f915","","Mozilla/5.0 (Windows NT 10.0; Win64; x64) AppleWebKit/537.36 (KHTML, like Gecko) Chrome/132.0.0.0 Safari/537.36","WebKit","Chrome","132.0.0.0","Windows","10.0","https://hz8g1ckzuq.cognition.run/","en-US,en;q=0.9","wlvk2awbn0j2zqu","28","[""White""]","No","Female","1084730.800000012","13162","","","{""price_1"":""300"",""price_2"":""280"",""price_3"":""180""}","rating","bww","catch","null","televisions","75","70","30","5","40","10","2","null","null","null","null","null","null","Screen size","Average lifespan","",""
"","","","","","rating_trial_setup","html-keyboard-response","35","463834","0.0-3.0-0.16","95","1","2025-04-11 14:44:40","bb671e3ae32f654b8954ea4c4635f915","","Mozilla/5.0 (Windows NT 10.0; Win64; x64) AppleWebKit/537.36 (KHTML, like Gecko) Chrome/132.0.0.0 Safari/537.36","WebKit","Chrome","132.0.0.0","Windows","10.0","https://hz8g1ckzuq.cognition.run/","en-US,en;q=0.9","wlvk2awbn0j2zqu","28","[""White""]","No","Female","1084730.800000012","null","","<p></p>","null","rating","ctd","attraction_2","1","washing machines","null","null","null","null","null","null","1","","","","","","","","","",""
"","","","","","rating_trial","survey-html-form","36","484206","0.0-3.0-1.16","95","1","2025-04-11 14:44:40","bb671e3ae32f654b8954ea4c4635f915","","Mozilla/5.0 (Windows NT 10.0; Win64; x64) AppleWebKit/537.36 (KHTML, like Gecko) Chrome/132.0.0.0 Safari/537.36","WebKit","Chrome","132.0.0.0","Windows","10.0","https://hz8g1ckzuq.cognition.run/","en-US,en;q=0.9","wlvk2awbn0j2zqu","28","[""White""]","No","Female","1084730.800000012","20363","","","{""price_1"":""170"",""price_2"":""300"",""price_3"":""400""}","rating","ctd","attraction_2","1","washing machines","null","null","null","null","null","null","1","60","50","60","50","60","40","Average lifespan","Energy savings","",""
"","","","","","rating_trial_setup","html-keyboard-response","37","484511","0.0-3.0-0.17","95","1","2025-04-11 14:44:40","bb671e3ae32f654b8954ea4c4635f915","","Mozilla/5.0 (Windows NT 10.0; Win64; x64) AppleWebKit/537.36 (KHTML, like Gecko) Chrome/132.0.0.0 Safari/537.36","WebKit","Chrome","132.0.0.0","Windows","10.0","https://hz8g1ckzuq.cognition.run/","en-US,en;q=0.9","wlvk2awbn0j2zqu","28","[""White""]","No","Female","1084730.800000012","null","","<p></p>","null","rating","dct","attraction_1","2","washing machines","null","null","null","null","null","null","2","","","","","","","","","",""
"","","","","","rating_trial","survey-html-form","38","512979","0.0-3.0-1.17","95","1","2025-04-11 14:44:40","bb671e3ae32f654b8954ea4c4635f915","","Mozilla/5.0 (Windows NT 10.0; Win64; x64) AppleWebKit/537.36 (KHTML, like Gecko) Chrome/132.0.0.0 Safari/537.36","WebKit","Chrome","132.0.0.0","Windows","10.0","https://hz8g1ckzuq.cognition.run/","en-US,en;q=0.9","wlvk2awbn0j2zqu","28","[""White""]","No","Female","1084730.800000012","28464","","","{""price_1"":""280"",""price_2"":""190"",""price_3"":""180""}","rating","dct","attraction_1","2","washing machines","null","null","null","null","null","null","2","50","60","45","60","50","60","Average lifespan","Energy savings","",""
"","","","","","rating_trial_setup","html-keyboard-response","39","513299","0.0-3.0-0.18","95","1","2025-04-11 14:44:40","bb671e3ae32f654b8954ea4c4635f915","","Mozilla/5.0 (Windows NT 10.0; Win64; x64) AppleWebKit/537.36 (KHTML, like Gecko) Chrome/132.0.0.0 Safari/537.36","WebKit","Chrome","132.0.0.0","Windows","10.0","https://hz8g1ckzuq.cognition.run/","en-US,en;q=0.9","wlvk2awbn0j2zqu","28","[""White""]","No","Female","1084730.800000012","null","","<p></p>","null","rating","wbw","catch","null","televisions","90","90","30","5","25","25","2","","","","","","","","","",""
"","","","","","rating_trial","survey-html-form","40","528343","0.0-3.0-1.18","95","1","2025-04-11 14:44:40","bb671e3ae32f654b8954ea4c4635f915","","Mozilla/5.0 (Windows NT 10.0; Win64; x64) AppleWebKit/537.36 (KHTML, like Gecko) Chrome/132.0.0.0 Safari/537.36","WebKit","Chrome","132.0.0.0","Windows","10.0","https://hz8g1ckzuq.cognition.run/","en-US,en;q=0.9","wlvk2awbn0j2zqu","28","[""White""]","No","Female","1084730.800000012","15037","","","{""price_1"":""100"",""price_2"":""190"",""price_3"":""200""}","rating","wbw","catch","null","televisions","90","90","30","5","25","25","2","null","null","null","null","null","null","Screen size","Average lifespan","",""
"","","","","","rating_trial_setup","html-keyboard-response","41","528650","0.0-3.0-0.19","95","1","2025-04-11 14:44:40","bb671e3ae32f654b8954ea4c4635f915","","Mozilla/5.0 (Windows NT 10.0; Win64; x64) AppleWebKit/537.36 (KHTML, like Gecko) Chrome/132.0.0.0 Safari/537.36","WebKit","Chrome","132.0.0.0","Windows","10.0","https://hz8g1ckzuq.cognition.run/","en-US,en;q=0.9","wlvk2awbn0j2zqu","28","[""White""]","No","Female","1084730.800000012","null","","<p></p>","null","rating","cdt","repulsion_1","2","laptops","null","null","null","null","null","null","2","","","","","","","","","",""
"","","","","","rating_trial","survey-html-form","42","547494","0.0-3.0-1.19","95","1","2025-04-11 14:44:40","bb671e3ae32f654b8954ea4c4635f915","","Mozilla/5.0 (Windows NT 10.0; Win64; x64) AppleWebKit/537.36 (KHTML, like Gecko) Chrome/132.0.0.0 Safari/537.36","WebKit","Chrome","132.0.0.0","Windows","10.0","https://hz8g1ckzuq.cognition.run/","en-US,en;q=0.9","wlvk2awbn0j2zqu","28","[""White""]","No","Female","1084730.800000012","18836","","","{""price_1"":""180"",""price_2"":""300"",""price_3"":""290""}","rating","cdt","repulsion_1","2","laptops","null","null","null","null","null","null","2","30","40","25","100","90","100","Processing speed","Memory (RAM)","",""
"","","","","","rating_trial_setup","html-keyboard-response","43","547809","0.0-3.0-0.20","95","1","2025-04-11 14:44:40","bb671e3ae32f654b8954ea4c4635f915","","Mozilla/5.0 (Windows NT 10.0; Win64; x64) AppleWebKit/537.36 (KHTML, like Gecko) Chrome/132.0.0.0 Safari/537.36","WebKit","Chrome","132.0.0.0","Windows","10.0","https://hz8g1ckzuq.cognition.run/","en-US,en;q=0.9","wlvk2awbn0j2zqu","28","[""White""]","No","Female","1084730.800000012","null","","<p></p>","null","rating","ctd","attraction_2","2","microwave ovens","null","null","null","null","null","null","1","","","","","","","","","",""
"","","","","","rating_trial","survey-html-form","44","565861","0.0-3.0-1.20","95","1","2025-04-11 14:44:40","bb671e3ae32f654b8954ea4c4635f915","","Mozilla/5.0 (Windows NT 10.0; Win64; x64) AppleWebKit/537.36 (KHTML, like Gecko) Chrome/132.0.0.0 Safari/537.36","WebKit","Chrome","132.0.0.0","Windows","10.0","https://hz8g1ckzuq.cognition.run/","en-US,en;q=0.9","wlvk2awbn0j2zqu","28","[""White""]","No","Female","1084730.800000012","18045","","","{""price_1"":""200"",""price_2"":""180"",""price_3"":""100""}","rating","ctd","attraction_2","2","microwave ovens","null","null","null","null","null","null","1","50","60","40","60","50","60","Warranty","Cooking power","",""
"","","","","","rating_trial_setup","html-keyboard-response","45","566172","0.0-3.0-0.21","95","1","2025-04-11 14:44:40","bb671e3ae32f654b8954ea4c4635f915","","Mozilla/5.0 (Windows NT 10.0; Win64; x64) AppleWebKit/537.36 (KHTML, like Gecko) Chrome/132.0.0.0 Safari/537.36","WebKit","Chrome","132.0.0.0","Windows","10.0","https://hz8g1ckzuq.cognition.run/","en-US,en;q=0.9","wlvk2awbn0j2zqu","28","[""White""]","No","Female","1084730.800000012","null","","<p></p>","null","rating","wwb","catch","null","laptops","50","75","10","35","10","45","1","","","","","","","","","",""
"","","","","","rating_trial","survey-html-form","46","579749","0.0-3.0-1.21","95","1","2025-04-11 14:44:40","bb671e3ae32f654b8954ea4c4635f915","","Mozilla/5.0 (Windows NT 10.0; Win64; x64) AppleWebKit/537.36 (KHTML, like Gecko) Chrome/132.0.0.0 Safari/537.36","WebKit","Chrome","132.0.0.0","Windows","10.0","https://hz8g1ckzuq.cognition.run/","en-US,en;q=0.9","wlvk2awbn0j2zqu","28","[""White""]","No","Female","1084730.800000012","13569","","","{""price_1"":""140"",""price_2"":""160"",""price_3"":""200""}","rating","wwb","catch","null","laptops","50","75","10","35","10","45","1","null","null","null","null","null","null","Processing speed","Memory (RAM)","",""
"","","","","","rating_trial_setup","html-keyboard-response","47","580070","0.0-3.0-0.22","95","1","2025-04-11 14:44:40","bb671e3ae32f654b8954ea4c4635f915","","Mozilla/5.0 (Windows NT 10.0; Win64; x64) AppleWebKit/537.36 (KHTML, like Gecko) Chrome/132.0.0.0 Safari/537.36","WebKit","Chrome","132.0.0.0","Windows","10.0","https://hz8g1ckzuq.cognition.run/","en-US,en;q=0.9","wlvk2awbn0j2zqu","28","[""White""]","No","Female","1084730.800000012","null","","<p></p>","null","rating","tdc","repulsion_2","1","microwave ovens","null","null","null","null","null","null","1","","","","","","","","","",""
"","","","","","rating_trial","survey-html-form","48","593124","0.0-3.0-1.22","95","1","2025-04-11 14:44:40","bb671e3ae32f654b8954ea4c4635f915","","Mozilla/5.0 (Windows NT 10.0; Win64; x64) AppleWebKit/537.36 (KHTML, like Gecko) Chrome/132.0.0.0 Safari/537.36","WebKit","Chrome","132.0.0.0","Windows","10.0","https://hz8g1ckzuq.cognition.run/","en-US,en;q=0.9","wlvk2awbn0j2zqu","28","[""White""]","No","Female","1084730.800000012","13043","","","{""price_1"":""390"",""price_2"":""360"",""price_3"":""290""}","rating","tdc","repulsion_2","1","microwave ovens","null","null","null","null","null","null","1","100","90","100","30","40","20","Warranty","Cooking power","",""
"","","","","","rating_trial_setup","html-keyboard-response","49","593439","0.0-3.0-0.23","95","1","2025-04-11 14:44:40","bb671e3ae32f654b8954ea4c4635f915","","Mozilla/5.0 (Windows NT 10.0; Win64; x64) AppleWebKit/537.36 (KHTML, like Gecko) Chrome/132.0.0.0 Safari/537.36","WebKit","Chrome","132.0.0.0","Windows","10.0","https://hz8g1ckzuq.cognition.run/","en-US,en;q=0.9","wlvk2awbn0j2zqu","28","[""White""]","No","Female","1084730.800000012","null","","<p></p>","null","rating","dtc","repulsion_1","2","televisions","null","null","null","null","null","null","1","","","","","","","","","",""
"","","","","","rating_trial","survey-html-form","50","608337","0.0-3.0-1.23","95","1","2025-04-11 14:44:40","bb671e3ae32f654b8954ea4c4635f915","","Mozilla/5.0 (Windows NT 10.0; Win64; x64) AppleWebKit/537.36 (KHTML, like Gecko) Chrome/132.0.0.0 Safari/537.36","WebKit","Chrome","132.0.0.0","Windows","10.0","https://hz8g1ckzuq.cognition.run/","en-US,en;q=0.9","wlvk2awbn0j2zqu","28","[""White""]","No","Female","1084730.800000012","14890","","","{""price_1"":""100"",""price_2"":""150"",""price_3"":""120""}","rating","dtc","repulsion_1","2","televisions","null","null","null","null","null","null","1","30","40","25","100","90","100","Screen size","Average lifespan","",""
"","","","","","rating_trial_setup","html-keyboard-response","51","608646","0.0-3.0-0.24","95","1","2025-04-11 14:44:40","bb671e3ae32f654b8954ea4c4635f915","","Mozilla/5.0 (Windows NT 10.0; Win64; x64) AppleWebKit/537.36 (KHTML, like Gecko) Chrome/132.0.0.0 Safari/537.36","WebKit","Chrome","132.0.0.0","Windows","10.0","https://hz8g1ckzuq.cognition.run/","en-US,en;q=0.9","wlvk2awbn0j2zqu","28","[""White""]","No","Female","1084730.800000012","null","","<p></p>","null","rating","dct","attraction_2","1","televisions","null","null","null","null","null","null","2","","","","","","","","","",""
"","","","","","rating_trial","survey-html-form","52","621807","0.0-3.0-1.24","95","1","2025-04-11 14:44:40","bb671e3ae32f654b8954ea4c4635f915","","Mozilla/5.0 (Windows NT 10.0; Win64; x64) AppleWebKit/537.36 (KHTML, like Gecko) Chrome/132.0.0.0 Safari/537.36","WebKit","Chrome","132.0.0.0","Windows","10.0","https://hz8g1ckzuq.cognition.run/","en-US,en;q=0.9","wlvk2awbn0j2zqu","28","[""White""]","No","Female","1084730.800000012","13154","","","{""price_1"":""120"",""price_2"":""230"",""price_3"":""200""}","rating","dct","attraction_2","1","televisions","null","null","null","null","null","null","2","60","50","60","50","60","40","Screen size","Average lifespan","",""
"","","","","","rating_trial_setup","html-keyboard-response","53","622114","0.0-3.0-0.25","95","1","2025-04-11 14:44:40","bb671e3ae32f654b8954ea4c4635f915","","Mozilla/5.0 (Windows NT 10.0; Win64; x64) AppleWebKit/537.36 (KHTML, like Gecko) Chrome/132.0.0.0 Safari/537.36","WebKit","Chrome","132.0.0.0","Windows","10.0","https://hz8g1ckzuq.cognition.run/","en-US,en;q=0.9","wlvk2awbn0j2zqu","28","[""White""]","No","Female","1084730.800000012","null","","<p></p>","null","rating","cdt","attraction_1","1","laptops","null","null","null","null","null","null","2","","","","","","","","","",""
"","","","","","rating_trial","survey-html-form","54","633432","0.0-3.0-1.25","95","1","2025-04-11 14:44:40","bb671e3ae32f654b8954ea4c4635f915","","Mozilla/5.0 (Windows NT 10.0; Win64; x64) AppleWebKit/537.36 (KHTML, like Gecko) Chrome/132.0.0.0 Safari/537.36","WebKit","Chrome","132.0.0.0","Windows","10.0","https://hz8g1ckzuq.cognition.run/","en-US,en;q=0.9","wlvk2awbn0j2zqu","28","[""White""]","No","Female","1084730.800000012","11309","","","{""price_1"":""300"",""price_2"":""200"",""price_3"":""250""}","rating","cdt","attraction_1","1","laptops","null","null","null","null","null","null","2","60","50","60","50","60","45","Processing speed","Memory (RAM)","",""
"","","","","","rating_trial_setup","html-keyboard-response","55","633746","0.0-3.0-0.26","95","1","2025-04-11 14:44:40","bb671e3ae32f654b8954ea4c4635f915","","Mozilla/5.0 (Windows NT 10.0; Win64; x64) AppleWebKit/537.36 (KHTML, like Gecko) Chrome/132.0.0.0 Safari/537.36","WebKit","Chrome","132.0.0.0","Windows","10.0","https://hz8g1ckzuq.cognition.run/","en-US,en;q=0.9","wlvk2awbn0j2zqu","28","[""White""]","No","Female","1084730.800000012","null","","<p></p>","null","rating","tcd","repulsion_2","1","washing machines","null","null","null","null","null","null","1","","","","","","","","","",""
"","","","","","rating_trial","survey-html-form","56","649580","0.0-3.0-1.26","95","1","2025-04-11 14:44:40","bb671e3ae32f654b8954ea4c4635f915","","Mozilla/5.0 (Windows NT 10.0; Win64; x64) AppleWebKit/537.36 (KHTML, like Gecko) Chrome/132.0.0.0 Safari/537.36","WebKit","Chrome","132.0.0.0","Windows","10.0","https://hz8g1ckzuq.cognition.run/","en-US,en;q=0.9","wlvk2awbn0j2zqu","28","[""White""]","No","Female","1084730.800000012","15826","","","{""price_1"":""400"",""price_2"":""320"",""price_3"":""300""}","rating","tcd","repulsion_2","1","washing machines","null","null","null","null","null","null","1","100","90","100","30","40","20","Average lifespan","Energy savings","",""
"","","","","","rating_trial_setup","html-keyboard-response","57","649892","0.0-3.0-0.27","95","1","2025-04-11 14:44:40","bb671e3ae32f654b8954ea4c4635f915","","Mozilla/5.0 (Windows NT 10.0; Win64; x64) AppleWebKit/537.36 (KHTML, like Gecko) Chrome/132.0.0.0 Safari/537.36","WebKit","Chrome","132.0.0.0","Windows","10.0","https://hz8g1ckzuq.cognition.run/","en-US,en;q=0.9","wlvk2awbn0j2zqu","28","[""White""]","No","Female","1084730.800000012","null","","<p></p>","null","rating","dct","attraction_1","2","laptops","null","null","null","null","null","null","2","","","","","","","","","",""
"","","","","","rating_trial","survey-html-form","58","662906","0.0-3.0-1.27","95","1","2025-04-11 14:44:40","bb671e3ae32f654b8954ea4c4635f915","","Mozilla/5.0 (Windows NT 10.0; Win64; x64) AppleWebKit/537.36 (KHTML, like Gecko) Chrome/132.0.0.0 Safari/537.36","WebKit","Chrome","132.0.0.0","Windows","10.0","https://hz8g1ckzuq.cognition.run/","en-US,en;q=0.9","wlvk2awbn0j2zqu","28","[""White""]","No","Female","1084730.800000012","13006","","","{""price_1"":""300"",""price_2"":""280"",""price_3"":""200""}","rating","dct","attraction_1","2","laptops","null","null","null","null","null","null","2","50","60","45","60","50","60","Processing speed","Memory (RAM)","",""
"","","","","","rating_trial_setup","html-keyboard-response","59","663229","0.0-3.0-0.28","95","1","2025-04-11 14:44:40","bb671e3ae32f654b8954ea4c4635f915","","Mozilla/5.0 (Windows NT 10.0; Win64; x64) AppleWebKit/537.36 (KHTML, like Gecko) Chrome/132.0.0.0 Safari/537.36","WebKit","Chrome","132.0.0.0","Windows","10.0","https://hz8g1ckzuq.cognition.run/","en-US,en;q=0.9","wlvk2awbn0j2zqu","28","[""White""]","No","Female","1084730.800000012","null","","<p></p>","null","rating","dtc","attraction_1","1","microwave ovens","null","null","null","null","null","null","2","","","","","","","","","",""
"","","","","","rating_trial","survey-html-form","60","675126","0.0-3.0-1.28","95","1","2025-04-11 14:44:40","bb671e3ae32f654b8954ea4c4635f915","","Mozilla/5.0 (Windows NT 10.0; Win64; x64) AppleWebKit/537.36 (KHTML, like Gecko) Chrome/132.0.0.0 Safari/537.36","WebKit","Chrome","132.0.0.0","Windows","10.0","https://hz8g1ckzuq.cognition.run/","en-US,en;q=0.9","wlvk2awbn0j2zqu","28","[""White""]","No","Female","1084730.800000012","11888","","","{""price_1"":""399"",""price_2"":""298"",""price_3"":""400""}","rating","dtc","attraction_1","1","microwave ovens","null","null","null","null","null","null","2","60","50","60","50","60","45","Warranty","Cooking power","",""
"","","","","","rating_trial_setup","html-keyboard-response","61","675444","0.0-3.0-0.29","95","1","2025-04-11 14:44:40","bb671e3ae32f654b8954ea4c4635f915","","Mozilla/5.0 (Windows NT 10.0; Win64; x64) AppleWebKit/537.36 (KHTML, like Gecko) Chrome/132.0.0.0 Safari/537.36","WebKit","Chrome","132.0.0.0","Windows","10.0","https://hz8g1ckzuq.cognition.run/","en-US,en;q=0.9","wlvk2awbn0j2zqu","28","[""White""]","No","Female","1084730.800000012","null","","<p></p>","null","rating","cdt","attraction_2","2","televisions","null","null","null","null","null","null","2","","","","","","","","","",""
"","","","","","rating_trial","survey-html-form","62","694052","0.0-3.0-1.29","95","1","2025-04-11 14:44:40","bb671e3ae32f654b8954ea4c4635f915","","Mozilla/5.0 (Windows NT 10.0; Win64; x64) AppleWebKit/537.36 (KHTML, like Gecko) Chrome/132.0.0.0 Safari/537.36","WebKit","Chrome","132.0.0.0","Windows","10.0","https://hz8g1ckzuq.cognition.run/","en-US,en;q=0.9","wlvk2awbn0j2zqu","28","[""White""]","No","Female","1084730.800000012","18596","","","{""price_1"":""300"",""price_2"":""280"",""price_3"":""300""}","rating","cdt","attraction_2","2","televisions","null","null","null","null","null","null","2","50","60","40","60","50","60","Screen size","Average lifespan","",""
"","","","","","rating_trial_setup","html-keyboard-response","63","694377","0.0-3.0-0.30","95","1","2025-04-11 14:44:40","bb671e3ae32f654b8954ea4c4635f915","","Mozilla/5.0 (Windows NT 10.0; Win64; x64) AppleWebKit/537.36 (KHTML, like Gecko) Chrome/132.0.0.0 Safari/537.36","WebKit","Chrome","132.0.0.0","Windows","10.0","https://hz8g1ckzuq.cognition.run/","en-US,en;q=0.9","wlvk2awbn0j2zqu","28","[""White""]","No","Female","1084730.800000012","null","","<p></p>","null","rating","bww","catch","null","washing machines","95","85","20","25","35","20","2","","","","","","","","","",""
"","","","","","rating_trial","survey-html-form","64","704165","0.0-3.0-1.30","95","1","2025-04-11 14:44:40","bb671e3ae32f654b8954ea4c4635f915","","Mozilla/5.0 (Windows NT 10.0; Win64; x64) AppleWebKit/537.36 (KHTML, like Gecko) Chrome/132.0.0.0 Safari/537.36","WebKit","Chrome","132.0.0.0","Windows","10.0","https://hz8g1ckzuq.cognition.run/","en-US,en;q=0.9","wlvk2awbn0j2zqu","28","[""White""]","No","Female","1084730.800000012","9778","","","{""price_1"":""300"",""price_2"":""320"",""price_3"":""290""}","rating","bww","catch","null","washing machines","95","85","20","25","35","20","2","null","null","null","null","null","null","Average lifespan","Energy savings","",""
"","","","","","rating_trial_setup","html-keyboard-response","65","704485","0.0-3.0-0.31","95","1","2025-04-11 14:44:40","bb671e3ae32f654b8954ea4c4635f915","","Mozilla/5.0 (Windows NT 10.0; Win64; x64) AppleWebKit/537.36 (KHTML, like Gecko) Chrome/132.0.0.0 Safari/537.36","WebKit","Chrome","132.0.0.0","Windows","10.0","https://hz8g1ckzuq.cognition.run/","en-US,en;q=0.9","wlvk2awbn0j2zqu","28","[""White""]","No","Female","1084730.800000012","null","","<p></p>","null","rating","bww","catch","null","laptops","95","50","10","10","45","10","2","","","","","","","","","",""
"","","","","","rating_trial","survey-html-form","66","714389","0.0-3.0-1.31","95","1","2025-04-11 14:44:40","bb671e3ae32f654b8954ea4c4635f915","","Mozilla/5.0 (Windows NT 10.0; Win64; x64) AppleWebKit/537.36 (KHTML, like Gecko) Chrome/132.0.0.0 Safari/537.36","WebKit","Chrome","132.0.0.0","Windows","10.0","https://hz8g1ckzuq.cognition.run/","en-US,en;q=0.9","wlvk2awbn0j2zqu","28","[""White""]","No","Female","1084730.800000012","9894","","","{""price_1"":""290"",""price_2"":""300"",""price_3"":""430""}","rating","bww","catch","null","laptops","95","50","10","10","45","10","2","null","null","null","null","null","null","Processing speed","Memory (RAM)","",""
"","","","","","rating_trial_setup","html-keyboard-response","67","714704","0.0-3.0-0.32","95","1","2025-04-11 14:44:40","bb671e3ae32f654b8954ea4c4635f915","","Mozilla/5.0 (Windows NT 10.0; Win64; x64) AppleWebKit/537.36 (KHTML, like Gecko) Chrome/132.0.0.0 Safari/537.36","WebKit","Chrome","132.0.0.0","Windows","10.0","https://hz8g1ckzuq.cognition.run/","en-US,en;q=0.9","wlvk2awbn0j2zqu","28","[""White""]","No","Female","1084730.800000012","null","","<p></p>","null","rating","bww","catch","null","microwave ovens","65","70","40","45","5","10","1","","","","","","","","","",""
"","","","","","rating_trial","survey-html-form","68","733017","0.0-3.0-1.32","95","1","2025-04-11 14:44:40","bb671e3ae32f654b8954ea4c4635f915","","Mozilla/5.0 (Windows NT 10.0; Win64; x64) AppleWebKit/537.36 (KHTML, like Gecko) Chrome/132.0.0.0 Safari/537.36","WebKit","Chrome","132.0.0.0","Windows","10.0","https://hz8g1ckzuq.cognition.run/","en-US,en;q=0.9","wlvk2awbn0j2zqu","28","[""White""]","No","Female","1084730.800000012","18303","","","{""price_1"":""350"",""price_2"":""200"",""price_3"":""100""}","rating","bww","catch","null","microwave ovens","65","70","40","45","5","10","1","null","null","null","null","null","null","Warranty","Cooking power","",""
"","","","","","rating_trial_setup","html-keyboard-response","69","733331","0.0-3.0-0.33","95","1","2025-04-11 14:44:40","bb671e3ae32f654b8954ea4c4635f915","","Mozilla/5.0 (Windows NT 10.0; Win64; x64) AppleWebKit/537.36 (KHTML, like Gecko) Chrome/132.0.0.0 Safari/537.36","WebKit","Chrome","132.0.0.0","Windows","10.0","https://hz8g1ckzuq.cognition.run/","en-US,en;q=0.9","wlvk2awbn0j2zqu","28","[""White""]","No","Female","1084730.800000012","null","","<p></p>","null","rating","tcd","attraction_2","2","washing machines","null","null","null","null","null","null","1","","","","","","","","","",""
"","","","","","rating_trial","survey-html-form","70","751944","0.0-3.0-1.33","95","1","2025-04-11 14:44:40","bb671e3ae32f654b8954ea4c4635f915","","Mozilla/5.0 (Windows NT 10.0; Win64; x64) AppleWebKit/537.36 (KHTML, like Gecko) Chrome/132.0.0.0 Safari/537.36","WebKit","Chrome","132.0.0.0","Windows","10.0","https://hz8g1ckzuq.cognition.run/","en-US,en;q=0.9","wlvk2awbn0j2zqu","28","[""White""]","No","Female","1084730.800000012","18604","","","{""price_1"":""260"",""price_2"":""348"",""price_3"":""300""}","rating","tcd","attraction_2","2","washing machines","null","null","null","null","null","null","1","50","60","40","60","50","60","Average lifespan","Energy savings","",""
"","","","","","rating_trial_setup","html-keyboard-response","71","752257","0.0-3.0-0.34","95","1","2025-04-11 14:44:40","bb671e3ae32f654b8954ea4c4635f915","","Mozilla/5.0 (Windows NT 10.0; Win64; x64) AppleWebKit/537.36 (KHTML, like Gecko) Chrome/132.0.0.0 Safari/537.36","WebKit","Chrome","132.0.0.0","Windows","10.0","https://hz8g1ckzuq.cognition.run/","en-US,en;q=0.9","wlvk2awbn0j2zqu","28","[""White""]","No","Female","1084730.800000012","null","","<p></p>","null","rating","tcd","repulsion_2","2","televisions","null","null","null","null","null","null","2","","","","","","","","","",""
"","","","","","rating_trial","survey-html-form","72","768388","0.0-3.0-1.34","95","1","2025-04-11 14:44:40","bb671e3ae32f654b8954ea4c4635f915","","Mozilla/5.0 (Windows NT 10.0; Win64; x64) AppleWebKit/537.36 (KHTML, like Gecko) Chrome/132.0.0.0 Safari/537.36","WebKit","Chrome","132.0.0.0","Windows","10.0","https://hz8g1ckzuq.cognition.run/","en-US,en;q=0.9","wlvk2awbn0j2zqu","28","[""White""]","No","Female","1084730.800000012","16119","","","{""price_1"":""450"",""price_2"":""230"",""price_3"":""260""}","rating","tcd","repulsion_2","2","televisions","null","null","null","null","null","null","2","30","40","20","100","90","100","Screen size","Average lifespan","",""
"","","","","","rating_trial_setup","html-keyboard-response","73","768704","0.0-3.0-0.35","95","1","2025-04-11 14:44:40","bb671e3ae32f654b8954ea4c4635f915","","Mozilla/5.0 (Windows NT 10.0; Win64; x64) AppleWebKit/537.36 (KHTML, like Gecko) Chrome/132.0.0.0 Safari/537.36","WebKit","Chrome","132.0.0.0","Windows","10.0","https://hz8g1ckzuq.cognition.run/","en-US,en;q=0.9","wlvk2awbn0j2zqu","28","[""White""]","No","Female","1084730.800000012","null","","<p></p>","null","rating","tcd","repulsion_1","2","microwave ovens","null","null","null","null","null","null","2","","","","","","","","","",""
"","","","","","rating_trial","survey-html-form","74","780518","0.0-3.0-1.35","95","1","2025-04-11 14:44:40","bb671e3ae32f654b8954ea4c4635f915","","Mozilla/5.0 (Windows NT 10.0; Win64; x64) AppleWebKit/537.36 (KHTML, like Gecko) Chrome/132.0.0.0 Safari/537.36","WebKit","Chrome","132.0.0.0","Windows","10.0","https://hz8g1ckzuq.cognition.run/","en-US,en;q=0.9","wlvk2awbn0j2zqu","28","[""White""]","No","Female","1084730.800000012","11804","","","{""price_1"":""300"",""price_2"":""260"",""price_3"":""403""}","rating","tcd","repulsion_1","2","microwave ovens","null","null","null","null","null","null","2","30","40","25","100","90","100","Warranty","Cooking power","",""
"","","","","","rating_trial_setup","html-keyboard-response","75","780834","0.0-3.0-0.36","95","1","2025-04-11 14:44:40","bb671e3ae32f654b8954ea4c4635f915","","Mozilla/5.0 (Windows NT 10.0; Win64; x64) AppleWebKit/537.36 (KHTML, like Gecko) Chrome/132.0.0.0 Safari/537.36","WebKit","Chrome","132.0.0.0","Windows","10.0","https://hz8g1ckzuq.cognition.run/","en-US,en;q=0.9","wlvk2awbn0j2zqu","28","[""White""]","No","Female","1084730.800000012","null","","<p></p>","null","rating","tcd","repulsion_2","1","laptops","null","null","null","null","null","null","2","","","","","","","","","",""
"","","","","","rating_trial","survey-html-form","76","796147","0.0-3.0-1.36","95","1","2025-04-11 14:44:40","bb671e3ae32f654b8954ea4c4635f915","","Mozilla/5.0 (Windows NT 10.0; Win64; x64) AppleWebKit/537.36 (KHTML, like Gecko) Chrome/132.0.0.0 Safari/537.36","WebKit","Chrome","132.0.0.0","Windows","10.0","https://hz8g1ckzuq.cognition.run/","en-US,en;q=0.9","wlvk2awbn0j2zqu","28","[""White""]","No","Female","1084730.800000012","15297","","","{""price_1"":""200"",""price_2"":""305"",""price_3"":""320""}","rating","tcd","repulsion_2","1","laptops","null","null","null","null","null","null","2","100","90","100","30","40","20","Processing speed","Memory (RAM)","",""
"","","","","","rating_trial_setup","html-keyboard-response","77","796477","0.0-3.0-0.37","95","1","2025-04-11 14:44:40","bb671e3ae32f654b8954ea4c4635f915","","Mozilla/5.0 (Windows NT 10.0; Win64; x64) AppleWebKit/537.36 (KHTML, like Gecko) Chrome/132.0.0.0 Safari/537.36","WebKit","Chrome","132.0.0.0","Windows","10.0","https://hz8g1ckzuq.cognition.run/","en-US,en;q=0.9","wlvk2awbn0j2zqu","28","[""White""]","No","Female","1084730.800000012","null","","<p></p>","null","rating","ctd","repulsion_1","1","televisions","null","null","null","null","null","null","2","","","","","","","","","",""
"","","","","","rating_trial","survey-html-form","78","819070","0.0-3.0-1.37","95","1","2025-04-11 14:44:40","bb671e3ae32f654b8954ea4c4635f915","","Mozilla/5.0 (Windows NT 10.0; Win64; x64) AppleWebKit/537.36 (KHTML, like Gecko) Chrome/132.0.0.0 Safari/537.36","WebKit","Chrome","132.0.0.0","Windows","10.0","https://hz8g1ckzuq.cognition.run/","en-US,en;q=0.9","wlvk2awbn0j2zqu","28","[""White""]","No","Female","1084730.800000012","22583","","","{""price_1"":""300"",""price_2"":""30"",""price_3"":""240""}","rating","ctd","repulsion_1","1","televisions","null","null","null","null","null","null","2","100","90","100","30","40","25","Screen size","Average lifespan","",""
"","","","","","rating_trial_setup","html-keyboard-response","79","819385","0.0-3.0-0.38","95","1","2025-04-11 14:44:40","bb671e3ae32f654b8954ea4c4635f915","","Mozilla/5.0 (Windows NT 10.0; Win64; x64) AppleWebKit/537.36 (KHTML, like Gecko) Chrome/132.0.0.0 Safari/537.36","WebKit","Chrome","132.0.0.0","Windows","10.0","https://hz8g1ckzuq.cognition.run/","en-US,en;q=0.9","wlvk2awbn0j2zqu","28","[""White""]","No","Female","1084730.800000012","null","","<p></p>","null","rating","wwb","catch","null","washing machines","95","80","50","20","5","25","1","","","","","","","","","",""
"","","","","","rating_trial","survey-html-form","80","830601","0.0-3.0-1.38","95","1","2025-04-11 14:44:40","bb671e3ae32f654b8954ea4c4635f915","","Mozilla/5.0 (Windows NT 10.0; Win64; x64) AppleWebKit/537.36 (KHTML, like Gecko) Chrome/132.0.0.0 Safari/537.36","WebKit","Chrome","132.0.0.0","Windows","10.0","https://hz8g1ckzuq.cognition.run/","en-US,en;q=0.9","wlvk2awbn0j2zqu","28","[""White""]","No","Female","1084730.800000012","11206","","","{""price_1"":""200"",""price_2"":""300"",""price_3"":""320""}","rating","wwb","catch","null","washing machines","95","80","50","20","5","25","1","null","null","null","null","null","null","Average lifespan","Energy savings","",""
"","","","","","rating_trial_setup","html-keyboard-response","81","830915","0.0-3.0-0.39","95","1","2025-04-11 14:44:40","bb671e3ae32f654b8954ea4c4635f915","","Mozilla/5.0 (Windows NT 10.0; Win64; x64) AppleWebKit/537.36 (KHTML, like Gecko) Chrome/132.0.0.0 Safari/537.36","WebKit","Chrome","132.0.0.0","Windows","10.0","https://hz8g1ckzuq.cognition.run/","en-US,en;q=0.9","wlvk2awbn0j2zqu","28","[""White""]","No","Female","1084730.800000012","null","","<p></p>","null","rating","cdt","attraction_2","1","laptops","null","null","null","null","null","null","1","","","","","","","","","",""
"","","","","","rating_trial","survey-html-form","82","843816","0.0-3.0-1.39","95","1","2025-04-11 14:44:40","bb671e3ae32f654b8954ea4c4635f915","","Mozilla/5.0 (Windows NT 10.0; Win64; x64) AppleWebKit/537.36 (KHTML, like Gecko) Chrome/132.0.0.0 Safari/537.36","WebKit","Chrome","132.0.0.0","Windows","10.0","https://hz8g1ckzuq.cognition.run/","en-US,en;q=0.9","wlvk2awbn0j2zqu","28","[""White""]","No","Female","1084730.800000012","12890","","","{""price_1"":""200"",""price_2"":""300"",""price_3"":""390""}","rating","cdt","attraction_2","1","laptops","null","null","null","null","null","null","1","60","50","60","50","60","40","Processing speed","Memory (RAM)","",""
"","","","","","","instructions","83","881369","0.0-4.0","95","1","2025-04-11 14:44:40","bb671e3ae32f654b8954ea4c4635f915","","Mozilla/5.0 (Windows NT 10.0; Win64; x64) AppleWebKit/537.36 (KHTML, like Gecko) Chrome/132.0.0.0 Safari/537.36","WebKit","Chrome","132.0.0.0","Windows","10.0","https://hz8g1ckzuq.cognition.run/","en-US,en;q=0.9","wlvk2awbn0j2zqu","28","[""White""]","No","Female","1084730.800000012","37539","[{""page_index"":0,""viewing_time"":1898},{""page_index"":1,""viewing_time"":1483},{""page_index"":2,""viewing_time"":3490},{""page_index"":3,""viewing_time"":4739},{""page_index"":4,""viewing_time"":4726},{""page_index"":5,""viewing_time"":1815},{""page_index"":6,""viewing_time"":17174},{""page_index"":7,""viewing_time"":2213}]","","","","","","","","","","","","","","","","","","","","","","","",""
"","","","","","choice_trial_setup","html-keyboard-response","84","881688","0.0-5.0-0.0","95","1","2025-04-11 14:44:40","bb671e3ae32f654b8954ea4c4635f915","","Mozilla/5.0 (Windows NT 10.0; Win64; x64) AppleWebKit/537.36 (KHTML, like Gecko) Chrome/132.0.0.0 Safari/537.36","WebKit","Chrome","132.0.0.0","Windows","10.0","https://hz8g1ckzuq.cognition.run/","en-US,en;q=0.9","wlvk2awbn0j2zqu","28","[""White""]","No","Female","1084730.800000012","null","","<p></p>","null","choice","wwb","catch","null","washing machines","95","85","25","50","5","15","2","","","","","","","","","",""
"","","","","","choice_trial","survey-html-form","85","894060","0.0-5.0-1.0","95","1","2025-04-11 14:44:40","bb671e3ae32f654b8954ea4c4635f915","","Mozilla/5.0 (Windows NT 10.0; Win64; x64) AppleWebKit/537.36 (KHTML, like Gecko) Chrome/132.0.0.0 Safari/537.36","WebKit","Chrome","132.0.0.0","Windows","10.0","https://hz8g1ckzuq.cognition.run/","en-US,en;q=0.9","wlvk2awbn0j2zqu","28","[""White""]","No","Female","1084730.800000012","12360","","","{""product_choice"":""C""}","choice","wwb","catch","null","washing machines","95","85","25","50","5","15","2","null","null","null","null","null","null","Average lifespan","Energy savings","",""
"","","","","","choice_trial_setup","html-keyboard-response","86","894383","0.0-5.0-0.1","95","1","2025-04-11 14:44:40","bb671e3ae32f654b8954ea4c4635f915","","Mozilla/5.0 (Windows NT 10.0; Win64; x64) AppleWebKit/537.36 (KHTML, like Gecko) Chrome/132.0.0.0 Safari/537.36","WebKit","Chrome","132.0.0.0","Windows","10.0","https://hz8g1ckzuq.cognition.run/","en-US,en;q=0.9","wlvk2awbn0j2zqu","28","[""White""]","No","Female","1084730.800000012","null","","<p></p>","null","choice","wwb","catch","null","laptops","85","80","30","15","20","25","2","","","","","","","","","",""
"","","","","","choice_trial","survey-html-form","87","896587","0.0-5.0-1.1","95","1","2025-04-11 14:44:40","bb671e3ae32f654b8954ea4c4635f915","","Mozilla/5.0 (Windows NT 10.0; Win64; x64) AppleWebKit/537.36 (KHTML, like Gecko) Chrome/132.0.0.0 Safari/537.36","WebKit","Chrome","132.0.0.0","Windows","10.0","https://hz8g1ckzuq.cognition.run/","en-US,en;q=0.9","wlvk2awbn0j2zqu","28","[""White""]","No","Female","1084730.800000012","2194","","","{""product_choice"":""C""}","choice","wwb","catch","null","laptops","85","80","30","15","20","25","2","null","null","null","null","null","null","Processing speed","Memory (RAM)","",""
"","","","","","choice_trial_setup","html-keyboard-response","88","896895","0.0-5.0-0.2","95","1","2025-04-11 14:44:40","bb671e3ae32f654b8954ea4c4635f915","","Mozilla/5.0 (Windows NT 10.0; Win64; x64) AppleWebKit/537.36 (KHTML, like Gecko) Chrome/132.0.0.0 Safari/537.36","WebKit","Chrome","132.0.0.0","Windows","10.0","https://hz8g1ckzuq.cognition.run/","en-US,en;q=0.9","wlvk2awbn0j2zqu","28","[""White""]","No","Female","1084730.800000012","null","","<p></p>","null","choice","tcd","attraction_1","1","microwave ovens","null","null","null","null","null","null","1","","","","","","","","","",""
"","","","","","choice_trial","survey-html-form","89","900589","0.0-5.0-1.2","95","1","2025-04-11 14:44:40","bb671e3ae32f654b8954ea4c4635f915","","Mozilla/5.0 (Windows NT 10.0; Win64; x64) AppleWebKit/537.36 (KHTML, like Gecko) Chrome/132.0.0.0 Safari/537.36","WebKit","Chrome","132.0.0.0","Windows","10.0","https://hz8g1ckzuq.cognition.run/","en-US,en;q=0.9","wlvk2awbn0j2zqu","28","[""White""]","No","Female","1084730.800000012","3683","","","{""product_choice"":""B""}","choice","tcd","attraction_1","1","microwave ovens","null","null","null","null","null","null","1","60","50","60","50","60","45","Warranty","Cooking power","",""
"","","","","","choice_trial_setup","html-keyboard-response","90","900902","0.0-5.0-0.3","95","1","2025-04-11 14:44:40","bb671e3ae32f654b8954ea4c4635f915","","Mozilla/5.0 (Windows NT 10.0; Win64; x64) AppleWebKit/537.36 (KHTML, like Gecko) Chrome/132.0.0.0 Safari/537.36","WebKit","Chrome","132.0.0.0","Windows","10.0","https://hz8g1ckzuq.cognition.run/","en-US,en;q=0.9","wlvk2awbn0j2zqu","28","[""White""]","No","Female","1084730.800000012","null","","<p></p>","null","choice","dct","attraction_2","1","laptops","null","null","null","null","null","null","2","","","","","","","","","",""
"","","","","","choice_trial","survey-html-form","91","904723","0.0-5.0-1.3","95","1","2025-04-11 14:44:40","bb671e3ae32f654b8954ea4c4635f915","","Mozilla/5.0 (Windows NT 10.0; Win64; x64) AppleWebKit/537.36 (KHTML, like Gecko) Chrome/132.0.0.0 Safari/537.36","WebKit","Chrome","132.0.0.0","Windows","10.0","https://hz8g1ckzuq.cognition.run/","en-US,en;q=0.9","wlvk2awbn0j2zqu","28","[""White""]","No","Female","1084730.800000012","3810","","","{""product_choice"":""B""}","choice","dct","attraction_2","1","laptops","null","null","null","null","null","null","2","60","50","60","50","60","40","Processing speed","Memory (RAM)","",""
"","","","","","choice_trial_setup","html-keyboard-response","92","905043","0.0-5.0-0.4","95","1","2025-04-11 14:44:40","bb671e3ae32f654b8954ea4c4635f915","","Mozilla/5.0 (Windows NT 10.0; Win64; x64) AppleWebKit/537.36 (KHTML, like Gecko) Chrome/132.0.0.0 Safari/537.36","WebKit","Chrome","132.0.0.0","Windows","10.0","https://hz8g1ckzuq.cognition.run/","en-US,en;q=0.9","wlvk2awbn0j2zqu","28","[""White""]","No","Female","1084730.800000012","null","","<p></p>","null","choice","ctd","attraction_1","1","laptops","null","null","null","null","null","null","2","","","","","","","","","",""
"","","","","","choice_trial","survey-html-form","93","907342","0.0-5.0-1.4","95","1","2025-04-11 14:44:40","bb671e3ae32f654b8954ea4c4635f915","","Mozilla/5.0 (Windows NT 10.0; Win64; x64) AppleWebKit/537.36 (KHTML, like Gecko) Chrome/132.0.0.0 Safari/537.36","WebKit","Chrome","132.0.0.0","Windows","10.0","https://hz8g1ckzuq.cognition.run/","en-US,en;q=0.9","wlvk2awbn0j2zqu","28","[""White""]","No","Female","1084730.800000012","2286","","","{""product_choice"":""B""}","choice","ctd","attraction_1","1","laptops","null","null","null","null","null","null","2","60","50","60","50","60","45","Processing speed","Memory (RAM)","",""
"","","","","","choice_trial_setup","html-keyboard-response","94","907650","0.0-5.0-0.5","95","1","2025-04-11 14:44:40","bb671e3ae32f654b8954ea4c4635f915","","Mozilla/5.0 (Windows NT 10.0; Win64; x64) AppleWebKit/537.36 (KHTML, like Gecko) Chrome/132.0.0.0 Safari/537.36","WebKit","Chrome","132.0.0.0","Windows","10.0","https://hz8g1ckzuq.cognition.run/","en-US,en;q=0.9","wlvk2awbn0j2zqu","28","[""White""]","No","Female","1084730.800000012","null","","<p></p>","null","choice","tcd","attraction_1","2","microwave ovens","null","null","null","null","null","null","1","","","","","","","","","",""
"","","","","","choice_trial","survey-html-form","95","910996","0.0-5.0-1.5","95","1","2025-04-11 14:44:40","bb671e3ae32f654b8954ea4c4635f915","","Mozilla/5.0 (Windows NT 10.0; Win64; x64) AppleWebKit/537.36 (KHTML, like Gecko) Chrome/132.0.0.0 Safari/537.36","WebKit","Chrome","132.0.0.0","Windows","10.0","https://hz8g1ckzuq.cognition.run/","en-US,en;q=0.9","wlvk2awbn0j2zqu","28","[""White""]","No","Female","1084730.800000012","3337","","","{""product_choice"":""B""}","choice","tcd","attraction_1","2","microwave ovens","null","null","null","null","null","null","1","50","60","45","60","50","60","Warranty","Cooking power","",""
"","","","","","choice_trial_setup","html-keyboard-response","96","911307","0.0-5.0-0.6","95","1","2025-04-11 14:44:40","bb671e3ae32f654b8954ea4c4635f915","","Mozilla/5.0 (Windows NT 10.0; Win64; x64) AppleWebKit/537.36 (KHTML, like Gecko) Chrome/132.0.0.0 Safari/537.36","WebKit","Chrome","132.0.0.0","Windows","10.0","https://hz8g1ckzuq.cognition.run/","en-US,en;q=0.9","wlvk2awbn0j2zqu","28","[""White""]","No","Female","1084730.800000012","null","","<p></p>","null","choice","wbw","catch","null","televisions","75","70","50","35","50","40","1","","","","","","","","","",""
"","","","","","choice_trial","survey-html-form","97","915104","0.0-5.0-1.6","95","1","2025-04-11 14:44:40","bb671e3ae32f654b8954ea4c4635f915","","Mozilla/5.0 (Windows NT 10.0; Win64; x64) AppleWebKit/537.36 (KHTML, like Gecko) Chrome/132.0.0.0 Safari/537.36","WebKit","Chrome","132.0.0.0","Windows","10.0","https://hz8g1ckzuq.cognition.run/","en-US,en;q=0.9","wlvk2awbn0j2zqu","28","[""White""]","No","Female","1084730.800000012","3785","","","{""product_choice"":""B""}","choice","wbw","catch","null","televisions","75","70","50","35","50","40","1","null","null","null","null","null","null","Screen size","Average lifespan","",""
"","","","","","choice_trial_setup","html-keyboard-response","98","915415","0.0-5.0-0.7","95","1","2025-04-11 14:44:40","bb671e3ae32f654b8954ea4c4635f915","","Mozilla/5.0 (Windows NT 10.0; Win64; x64) AppleWebKit/537.36 (KHTML, like Gecko) Chrome/132.0.0.0 Safari/537.36","WebKit","Chrome","132.0.0.0","Windows","10.0","https://hz8g1ckzuq.cognition.run/","en-US,en;q=0.9","wlvk2awbn0j2zqu","28","[""White""]","No","Female","1084730.800000012","null","","<p></p>","null","choice","wbw","catch","null","televisions","70","65","50","45","15","30","1","","","","","","","","","",""
"","","","","","choice_trial","survey-html-form","99","918197","0.0-5.0-1.7","95","1","2025-04-11 14:44:40","bb671e3ae32f654b8954ea4c4635f915","","Mozilla/5.0 (Windows NT 10.0; Win64; x64) AppleWebKit/537.36 (KHTML, like Gecko) Chrome/132.0.0.0 Safari/537.36","WebKit","Chrome","132.0.0.0","Windows","10.0","https://hz8g1ckzuq.cognition.run/","en-US,en;q=0.9","wlvk2awbn0j2zqu","28","[""White""]","No","Female","1084730.800000012","2765","","","{""product_choice"":""B""}","choice","wbw","catch","null","televisions","70","65","50","45","15","30","1","null","null","null","null","null","null","Screen size","Average lifespan","",""
"","","","","","choice_trial_setup","html-keyboard-response","100","918511","0.0-5.0-0.8","95","1","2025-04-11 14:44:40","bb671e3ae32f654b8954ea4c4635f915","","Mozilla/5.0 (Windows NT 10.0; Win64; x64) AppleWebKit/537.36 (KHTML, like Gecko) Chrome/132.0.0.0 Safari/537.36","WebKit","Chrome","132.0.0.0","Windows","10.0","https://hz8g1ckzuq.cognition.run/","en-US,en;q=0.9","wlvk2awbn0j2zqu","28","[""White""]","No","Female","1084730.800000012","null","","<p></p>","null","choice","tcd","repulsion_2","1","microwave ovens","null","null","null","null","null","null","1","","","","","","","","","",""
"","","","","","choice_trial","survey-html-form","101","920594","0.0-5.0-1.8","95","1","2025-04-11 14:44:40","bb671e3ae32f654b8954ea4c4635f915","","Mozilla/5.0 (Windows NT 10.0; Win64; x64) AppleWebKit/537.36 (KHTML, like Gecko) Chrome/132.0.0.0 Safari/537.36","WebKit","Chrome","132.0.0.0","Windows","10.0","https://hz8g1ckzuq.cognition.run/","en-US,en;q=0.9","wlvk2awbn0j2zqu","28","[""White""]","No","Female","1084730.800000012","2071","","","{""product_choice"":""B""}","choice","tcd","repulsion_2","1","microwave ovens","null","null","null","null","null","null","1","100","90","100","30","40","20","Warranty","Cooking power","",""
"","","","","","choice_trial_setup","html-keyboard-response","102","920905","0.0-5.0-0.9","95","1","2025-04-11 14:44:40","bb671e3ae32f654b8954ea4c4635f915","","Mozilla/5.0 (Windows NT 10.0; Win64; x64) AppleWebKit/537.36 (KHTML, like Gecko) Chrome/132.0.0.0 Safari/537.36","WebKit","Chrome","132.0.0.0","Windows","10.0","https://hz8g1ckzuq.cognition.run/","en-US,en;q=0.9","wlvk2awbn0j2zqu","28","[""White""]","No","Female","1084730.800000012","null","","<p></p>","null","choice","dct","attraction_2","1","microwave ovens","null","null","null","null","null","null","2","","","","","","","","","",""
"","","","","","choice_trial","survey-html-form","103","924012","0.0-5.0-1.9","95","1","2025-04-11 14:44:40","bb671e3ae32f654b8954ea4c4635f915","","Mozilla/5.0 (Windows NT 10.0; Win64; x64) AppleWebKit/537.36 (KHTML, like Gecko) Chrome/132.0.0.0 Safari/537.36","WebKit","Chrome","132.0.0.0","Windows","10.0","https://hz8g1ckzuq.cognition.run/","en-US,en;q=0.9","wlvk2awbn0j2zqu","28","[""White""]","No","Female","1084730.800000012","3096","","","{""product_choice"":""C""}","choice","dct","attraction_2","1","microwave ovens","null","null","null","null","null","null","2","60","50","60","50","60","40","Warranty","Cooking power","",""
"","","","","","choice_trial_setup","html-keyboard-response","104","924332","0.0-5.0-0.10","95","1","2025-04-11 14:44:40","bb671e3ae32f654b8954ea4c4635f915","","Mozilla/5.0 (Windows NT 10.0; Win64; x64) AppleWebKit/537.36 (KHTML, like Gecko) Chrome/132.0.0.0 Safari/537.36","WebKit","Chrome","132.0.0.0","Windows","10.0","https://hz8g1ckzuq.cognition.run/","en-US,en;q=0.9","wlvk2awbn0j2zqu","28","[""White""]","No","Female","1084730.800000012","null","","<p></p>","null","choice","tdc","repulsion_1","1","washing machines","null","null","null","null","null","null","2","","","","","","","","","",""
"","","","","","choice_trial","survey-html-form","105","926712","0.0-5.0-1.10","95","1","2025-04-11 14:44:40","bb671e3ae32f654b8954ea4c4635f915","","Mozilla/5.0 (Windows NT 10.0; Win64; x64) AppleWebKit/537.36 (KHTML, like Gecko) Chrome/132.0.0.0 Safari/537.36","WebKit","Chrome","132.0.0.0","Windows","10.0","https://hz8g1ckzuq.cognition.run/","en-US,en;q=0.9","wlvk2awbn0j2zqu","28","[""White""]","No","Female","1084730.800000012","2370","","","{""product_choice"":""A""}","choice","tdc","repulsion_1","1","washing machines","null","null","null","null","null","null","2","100","90","100","30","40","25","Average lifespan","Energy savings","",""
"","","","","","choice_trial_setup","html-keyboard-response","106","927026","0.0-5.0-0.11","95","1","2025-04-11 14:44:40","bb671e3ae32f654b8954ea4c4635f915","","Mozilla/5.0 (Windows NT 10.0; Win64; x64) AppleWebKit/537.36 (KHTML, like Gecko) Chrome/132.0.0.0 Safari/537.36","WebKit","Chrome","132.0.0.0","Windows","10.0","https://hz8g1ckzuq.cognition.run/","en-US,en;q=0.9","wlvk2awbn0j2zqu","28","[""White""]","No","Female","1084730.800000012","null","","<p></p>","null","choice","cdt","repulsion_1","1","televisions","null","null","null","null","null","null","2","","","","","","","","","",""
"","","","","","choice_trial","survey-html-form","107","929709","0.0-5.0-1.11","95","1","2025-04-11 14:44:40","bb671e3ae32f654b8954ea4c4635f915","","Mozilla/5.0 (Windows NT 10.0; Win64; x64) AppleWebKit/537.36 (KHTML, like Gecko) Chrome/132.0.0.0 Safari/537.36","WebKit","Chrome","132.0.0.0","Windows","10.0","https://hz8g1ckzuq.cognition.run/","en-US,en;q=0.9","wlvk2awbn0j2zqu","28","[""White""]","No","Female","1084730.800000012","2672","","","{""product_choice"":""C""}","choice","cdt","repulsion_1","1","televisions","null","null","null","null","null","null","2","100","90","100","30","40","25","Screen size","Average lifespan","",""
"","","","","","choice_trial_setup","html-keyboard-response","108","930021","0.0-5.0-0.12","95","1","2025-04-11 14:44:40","bb671e3ae32f654b8954ea4c4635f915","","Mozilla/5.0 (Windows NT 10.0; Win64; x64) AppleWebKit/537.36 (KHTML, like Gecko) Chrome/132.0.0.0 Safari/537.36","WebKit","Chrome","132.0.0.0","Windows","10.0","https://hz8g1ckzuq.cognition.run/","en-US,en;q=0.9","wlvk2awbn0j2zqu","28","[""White""]","No","Female","1084730.800000012","null","","<p></p>","null","choice","dct","attraction_2","2","laptops","null","null","null","null","null","null","2","","","","","","","","","",""
"","","","","","choice_trial","survey-html-form","109","937562","0.0-5.0-1.12","95","1","2025-04-11 14:44:40","bb671e3ae32f654b8954ea4c4635f915","","Mozilla/5.0 (Windows NT 10.0; Win64; x64) AppleWebKit/537.36 (KHTML, like Gecko) Chrome/132.0.0.0 Safari/537.36","WebKit","Chrome","132.0.0.0","Windows","10.0","https://hz8g1ckzuq.cognition.run/","en-US,en;q=0.9","wlvk2awbn0j2zqu","28","[""White""]","No","Female","1084730.800000012","7530","","","{""product_choice"":""B""}","choice","dct","attraction_2","2","laptops","null","null","null","null","null","null","2","50","60","40","60","50","60","Processing speed","Memory (RAM)","",""
"","","","","","choice_trial_setup","html-keyboard-response","110","937874","0.0-5.0-0.13","95","1","2025-04-11 14:44:40","bb671e3ae32f654b8954ea4c4635f915","","Mozilla/5.0 (Windows NT 10.0; Win64; x64) AppleWebKit/537.36 (KHTML, like Gecko) Chrome/132.0.0.0 Safari/537.36","WebKit","Chrome","132.0.0.0","Windows","10.0","https://hz8g1ckzuq.cognition.run/","en-US,en;q=0.9","wlvk2awbn0j2zqu","28","[""White""]","No","Female","1084730.800000012","null","","<p></p>","null","choice","dtc","attraction_1","2","laptops","null","null","null","null","null","null","2","","","","","","","","","",""
"","","","","","choice_trial","survey-html-form","111","940507","0.0-5.0-1.13","95","1","2025-04-11 14:44:40","bb671e3ae32f654b8954ea4c4635f915","","Mozilla/5.0 (Windows NT 10.0; Win64; x64) AppleWebKit/537.36 (KHTML, like Gecko) Chrome/132.0.0.0 Safari/537.36","WebKit","Chrome","132.0.0.0","Windows","10.0","https://hz8g1ckzuq.cognition.run/","en-US,en;q=0.9","wlvk2awbn0j2zqu","28","[""White""]","No","Female","1084730.800000012","2626","","","{""product_choice"":""C""}","choice","dtc","attraction_1","2","laptops","null","null","null","null","null","null","2","50","60","45","60","50","60","Processing speed","Memory (RAM)","",""
"","","","","","choice_trial_setup","html-keyboard-response","112","940817","0.0-5.0-0.14","95","1","2025-04-11 14:44:40","bb671e3ae32f654b8954ea4c4635f915","","Mozilla/5.0 (Windows NT 10.0; Win64; x64) AppleWebKit/537.36 (KHTML, like Gecko) Chrome/132.0.0.0 Safari/537.36","WebKit","Chrome","132.0.0.0","Windows","10.0","https://hz8g1ckzuq.cognition.run/","en-US,en;q=0.9","wlvk2awbn0j2zqu","28","[""White""]","No","Female","1084730.800000012","null","","<p></p>","null","choice","dtc","repulsion_1","2","laptops","null","null","null","null","null","null","2","","","","","","","","","",""
"","","","","","choice_trial","survey-html-form","113","942554","0.0-5.0-1.14","95","1","2025-04-11 14:44:40","bb671e3ae32f654b8954ea4c4635f915","","Mozilla/5.0 (Windows NT 10.0; Win64; x64) AppleWebKit/537.36 (KHTML, like Gecko) Chrome/132.0.0.0 Safari/537.36","WebKit","Chrome","132.0.0.0","Windows","10.0","https://hz8g1ckzuq.cognition.run/","en-US,en;q=0.9","wlvk2awbn0j2zqu","28","[""White""]","No","Female","1084730.800000012","1721","","","{""product_choice"":""C""}","choice","dtc","repulsion_1","2","laptops","null","null","null","null","null","null","2","30","40","25","100","90","100","Processing speed","Memory (RAM)","",""
"","","","","","choice_trial_setup","html-keyboard-response","114","942862","0.0-5.0-0.15","95","1","2025-04-11 14:44:40","bb671e3ae32f654b8954ea4c4635f915","","Mozilla/5.0 (Windows NT 10.0; Win64; x64) AppleWebKit/537.36 (KHTML, like Gecko) Chrome/132.0.0.0 Safari/537.36","WebKit","Chrome","132.0.0.0","Windows","10.0","https://hz8g1ckzuq.cognition.run/","en-US,en;q=0.9","wlvk2awbn0j2zqu","28","[""White""]","No","Female","1084730.800000012","null","","<p></p>","null","choice","dct","repulsion_1","2","microwave ovens","null","null","null","null","null","null","1","","","","","","","","","",""
"","","","","","choice_trial","survey-html-form","115","945065","0.0-5.0-1.15","95","1","2025-04-11 14:44:40","bb671e3ae32f654b8954ea4c4635f915","","Mozilla/5.0 (Windows NT 10.0; Win64; x64) AppleWebKit/537.36 (KHTML, like Gecko) Chrome/132.0.0.0 Safari/537.36","WebKit","Chrome","132.0.0.0","Windows","10.0","https://hz8g1ckzuq.cognition.run/","en-US,en;q=0.9","wlvk2awbn0j2zqu","28","[""White""]","No","Female","1084730.800000012","2179","","","{""product_choice"":""C""}","choice","dct","repulsion_1","2","microwave ovens","null","null","null","null","null","null","1","30","40","25","100","90","100","Warranty","Cooking power","",""
"","","","","","choice_trial_setup","html-keyboard-response","116","945385","0.0-5.0-0.16","95","1","2025-04-11 14:44:40","bb671e3ae32f654b8954ea4c4635f915","","Mozilla/5.0 (Windows NT 10.0; Win64; x64) AppleWebKit/537.36 (KHTML, like Gecko) Chrome/132.0.0.0 Safari/537.36","WebKit","Chrome","132.0.0.0","Windows","10.0","https://hz8g1ckzuq.cognition.run/","en-US,en;q=0.9","wlvk2awbn0j2zqu","28","[""White""]","No","Female","1084730.800000012","null","","<p></p>","null","choice","dct","attraction_2","2","washing machines","null","null","null","null","null","null","1","","","","","","","","","",""
"","","","","","choice_trial","survey-html-form","117","948263","0.0-5.0-1.16","95","1","2025-04-11 14:44:40","bb671e3ae32f654b8954ea4c4635f915","","Mozilla/5.0 (Windows NT 10.0; Win64; x64) AppleWebKit/537.36 (KHTML, like Gecko) Chrome/132.0.0.0 Safari/537.36","WebKit","Chrome","132.0.0.0","Windows","10.0","https://hz8g1ckzuq.cognition.run/","en-US,en;q=0.9","wlvk2awbn0j2zqu","28","[""White""]","No","Female","1084730.800000012","2861","","","{""product_choice"":""C""}","choice","dct","attraction_2","2","washing machines","null","null","null","null","null","null","1","50","60","40","60","50","60","Average lifespan","Energy savings","",""
"","","","","","choice_trial_setup","html-keyboard-response","118","948585","0.0-5.0-0.17","95","1","2025-04-11 14:44:40","bb671e3ae32f654b8954ea4c4635f915","","Mozilla/5.0 (Windows NT 10.0; Win64; x64) AppleWebKit/537.36 (KHTML, like Gecko) Chrome/132.0.0.0 Safari/537.36","WebKit","Chrome","132.0.0.0","Windows","10.0","https://hz8g1ckzuq.cognition.run/","en-US,en;q=0.9","wlvk2awbn0j2zqu","28","[""White""]","No","Female","1084730.800000012","null","","<p></p>","null","choice","tdc","attraction_2","1","washing machines","null","null","null","null","null","null","1","","","","","","","","","",""
"","","","","","choice_trial","survey-html-form","119","953171","0.0-5.0-1.17","95","1","2025-04-11 14:44:40","bb671e3ae32f654b8954ea4c4635f915","","Mozilla/5.0 (Windows NT 10.0; Win64; x64) AppleWebKit/537.36 (KHTML, like Gecko) Chrome/132.0.0.0 Safari/537.36","WebKit","Chrome","132.0.0.0","Windows","10.0","https://hz8g1ckzuq.cognition.run/","en-US,en;q=0.9","wlvk2awbn0j2zqu","28","[""White""]","No","Female","1084730.800000012","4572","","","{""product_choice"":""A""}","choice","tdc","attraction_2","1","washing machines","null","null","null","null","null","null","1","60","50","60","50","60","40","Average lifespan","Energy savings","",""
"","","","","","choice_trial_setup","html-keyboard-response","120","953497","0.0-5.0-0.18","95","1","2025-04-11 14:44:40","bb671e3ae32f654b8954ea4c4635f915","","Mozilla/5.0 (Windows NT 10.0; Win64; x64) AppleWebKit/537.36 (KHTML, like Gecko) Chrome/132.0.0.0 Safari/537.36","WebKit","Chrome","132.0.0.0","Windows","10.0","https://hz8g1ckzuq.cognition.run/","en-US,en;q=0.9","wlvk2awbn0j2zqu","28","[""White""]","No","Female","1084730.800000012","null","","<p></p>","null","choice","wbw","catch","null","washing machines","60","80","15","40","5","20","2","","","","","","","","","",""
"","","","","","choice_trial","survey-html-form","121","955573","0.0-5.0-1.18","95","1","2025-04-11 14:44:40","bb671e3ae32f654b8954ea4c4635f915","","Mozilla/5.0 (Windows NT 10.0; Win64; x64) AppleWebKit/537.36 (KHTML, like Gecko) Chrome/132.0.0.0 Safari/537.36","WebKit","Chrome","132.0.0.0","Windows","10.0","https://hz8g1ckzuq.cognition.run/","en-US,en;q=0.9","wlvk2awbn0j2zqu","28","[""White""]","No","Female","1084730.800000012","2060","","","{""product_choice"":""B""}","choice","wbw","catch","null","washing machines","60","80","15","40","5","20","2","null","null","null","null","null","null","Average lifespan","Energy savings","",""
"","","","","","choice_trial_setup","html-keyboard-response","122","955892","0.0-5.0-0.19","95","1","2025-04-11 14:44:40","bb671e3ae32f654b8954ea4c4635f915","","Mozilla/5.0 (Windows NT 10.0; Win64; x64) AppleWebKit/537.36 (KHTML, like Gecko) Chrome/132.0.0.0 Safari/537.36","WebKit","Chrome","132.0.0.0","Windows","10.0","https://hz8g1ckzuq.cognition.run/","en-US,en;q=0.9","wlvk2awbn0j2zqu","28","[""White""]","No","Female","1084730.800000012","null","","<p></p>","null","choice","tcd","repulsion_2","2","televisions","null","null","null","null","null","null","1","","","","","","","","","",""
"","","","","","choice_trial","survey-html-form","123","959184","0.0-5.0-1.19","95","1","2025-04-11 14:44:40","bb671e3ae32f654b8954ea4c4635f915","","Mozilla/5.0 (Windows NT 10.0; Win64; x64) AppleWebKit/537.36 (KHTML, like Gecko) Chrome/132.0.0.0 Safari/537.36","WebKit","Chrome","132.0.0.0","Windows","10.0","https://hz8g1ckzuq.cognition.run/","en-US,en;q=0.9","wlvk2awbn0j2zqu","28","[""White""]","No","Female","1084730.800000012","3277","","","{""product_choice"":""A""}","choice","tcd","repulsion_2","2","televisions","null","null","null","null","null","null","1","30","40","20","100","90","100","Screen size","Average lifespan","",""
"","","","","","choice_trial_setup","html-keyboard-response","124","959493","0.0-5.0-0.20","95","1","2025-04-11 14:44:40","bb671e3ae32f654b8954ea4c4635f915","","Mozilla/5.0 (Windows NT 10.0; Win64; x64) AppleWebKit/537.36 (KHTML, like Gecko) Chrome/132.0.0.0 Safari/537.36","WebKit","Chrome","132.0.0.0","Windows","10.0","https://hz8g1ckzuq.cognition.run/","en-US,en;q=0.9","wlvk2awbn0j2zqu","28","[""White""]","No","Female","1084730.800000012","null","","<p></p>","null","choice","tcd","repulsion_2","1","laptops","null","null","null","null","null","null","1","","","","","","","","","",""
"","","","","","choice_trial","survey-html-form","125","962378","0.0-5.0-1.20","95","1","2025-04-11 14:44:40","bb671e3ae32f654b8954ea4c4635f915","","Mozilla/5.0 (Windows NT 10.0; Win64; x64) AppleWebKit/537.36 (KHTML, like Gecko) Chrome/132.0.0.0 Safari/537.36","WebKit","Chrome","132.0.0.0","Windows","10.0","https://hz8g1ckzuq.cognition.run/","en-US,en;q=0.9","wlvk2awbn0j2zqu","28","[""White""]","No","Female","1084730.800000012","2871","","","{""product_choice"":""A""}","choice","tcd","repulsion_2","1","laptops","null","null","null","null","null","null","1","100","90","100","30","40","20","Processing speed","Memory (RAM)","",""
"","","","","","choice_trial_setup","html-keyboard-response","126","962690","0.0-5.0-0.21","95","1","2025-04-11 14:44:40","bb671e3ae32f654b8954ea4c4635f915","","Mozilla/5.0 (Windows NT 10.0; Win64; x64) AppleWebKit/537.36 (KHTML, like Gecko) Chrome/132.0.0.0 Safari/537.36","WebKit","Chrome","132.0.0.0","Windows","10.0","https://hz8g1ckzuq.cognition.run/","en-US,en;q=0.9","wlvk2awbn0j2zqu","28","[""White""]","No","Female","1084730.800000012","null","","<p></p>","null","choice","tdc","repulsion_1","1","laptops","null","null","null","null","null","null","2","","","","","","","","","",""
"","","","","","choice_trial","survey-html-form","127","965197","0.0-5.0-1.21","95","1","2025-04-11 14:44:40","bb671e3ae32f654b8954ea4c4635f915","","Mozilla/5.0 (Windows NT 10.0; Win64; x64) AppleWebKit/537.36 (KHTML, like Gecko) Chrome/132.0.0.0 Safari/537.36","WebKit","Chrome","132.0.0.0","Windows","10.0","https://hz8g1ckzuq.cognition.run/","en-US,en;q=0.9","wlvk2awbn0j2zqu","28","[""White""]","No","Female","1084730.800000012","2490","","","{""product_choice"":""A""}","choice","tdc","repulsion_1","1","laptops","null","null","null","null","null","null","2","100","90","100","30","40","25","Processing speed","Memory (RAM)","",""
"","","","","","choice_trial_setup","html-keyboard-response","128","965513","0.0-5.0-0.22","95","1","2025-04-11 14:44:40","bb671e3ae32f654b8954ea4c4635f915","","Mozilla/5.0 (Windows NT 10.0; Win64; x64) AppleWebKit/537.36 (KHTML, like Gecko) Chrome/132.0.0.0 Safari/537.36","WebKit","Chrome","132.0.0.0","Windows","10.0","https://hz8g1ckzuq.cognition.run/","en-US,en;q=0.9","wlvk2awbn0j2zqu","28","[""White""]","No","Female","1084730.800000012","null","","<p></p>","null","choice","cdt","attraction_2","2","televisions","null","null","null","null","null","null","1","","","","","","","","","",""
"","","","","","choice_trial","survey-html-form","129","970396","0.0-5.0-1.22","95","1","2025-04-11 14:44:40","bb671e3ae32f654b8954ea4c4635f915","","Mozilla/5.0 (Windows NT 10.0; Win64; x64) AppleWebKit/537.36 (KHTML, like Gecko) Chrome/132.0.0.0 Safari/537.36","WebKit","Chrome","132.0.0.0","Windows","10.0","https://hz8g1ckzuq.cognition.run/","en-US,en;q=0.9","wlvk2awbn0j2zqu","28","[""White""]","No","Female","1084730.800000012","4868","","","{""product_choice"":""C""}","choice","cdt","attraction_2","2","televisions","null","null","null","null","null","null","1","50","60","40","60","50","60","Screen size","Average lifespan","",""
"","","","","","choice_trial_setup","html-keyboard-response","130","970709","0.0-5.0-0.23","95","1","2025-04-11 14:44:40","bb671e3ae32f654b8954ea4c4635f915","","Mozilla/5.0 (Windows NT 10.0; Win64; x64) AppleWebKit/537.36 (KHTML, like Gecko) Chrome/132.0.0.0 Safari/537.36","WebKit","Chrome","132.0.0.0","Windows","10.0","https://hz8g1ckzuq.cognition.run/","en-US,en;q=0.9","wlvk2awbn0j2zqu","28","[""White""]","No","Female","1084730.800000012","null","","<p></p>","null","choice","ctd","repulsion_2","2","microwave ovens","null","null","null","null","null","null","1","","","","","","","","","",""
"","","","","","choice_trial","survey-html-form","131","973228","0.0-5.0-1.23","95","1","2025-04-11 14:44:40","bb671e3ae32f654b8954ea4c4635f915","","Mozilla/5.0 (Windows NT 10.0; Win64; x64) AppleWebKit/537.36 (KHTML, like Gecko) Chrome/132.0.0.0 Safari/537.36","WebKit","Chrome","132.0.0.0","Windows","10.0","https://hz8g1ckzuq.cognition.run/","en-US,en;q=0.9","wlvk2awbn0j2zqu","28","[""White""]","No","Female","1084730.800000012","2505","","","{""product_choice"":""B""}","choice","ctd","repulsion_2","2","microwave ovens","null","null","null","null","null","null","1","30","40","20","100","90","100","Warranty","Cooking power","",""
"","","","","","choice_trial_setup","html-keyboard-response","132","973553","0.0-5.0-0.24","95","1","2025-04-11 14:44:40","bb671e3ae32f654b8954ea4c4635f915","","Mozilla/5.0 (Windows NT 10.0; Win64; x64) AppleWebKit/537.36 (KHTML, like Gecko) Chrome/132.0.0.0 Safari/537.36","WebKit","Chrome","132.0.0.0","Windows","10.0","https://hz8g1ckzuq.cognition.run/","en-US,en;q=0.9","wlvk2awbn0j2zqu","28","[""White""]","No","Female","1084730.800000012","null","","<p></p>","null","choice","dtc","attraction_1","1","televisions","null","null","null","null","null","null","1","","","","","","","","","",""
"","","","","","choice_trial","survey-html-form","133","978674","0.0-5.0-1.24","95","1","2025-04-11 14:44:40","bb671e3ae32f654b8954ea4c4635f915","","Mozilla/5.0 (Windows NT 10.0; Win64; x64) AppleWebKit/537.36 (KHTML, like Gecko) Chrome/132.0.0.0 Safari/537.36","WebKit","Chrome","132.0.0.0","Windows","10.0","https://hz8g1ckzuq.cognition.run/","en-US,en;q=0.9","wlvk2awbn0j2zqu","28","[""White""]","No","Female","1084730.800000012","5099","","","{""product_choice"":""C""}","choice","dtc","attraction_1","1","televisions","null","null","null","null","null","null","1","60","50","60","50","60","45","Screen size","Average lifespan","",""
"","","","","","choice_trial_setup","html-keyboard-response","134","978990","0.0-5.0-0.25","95","1","2025-04-11 14:44:40","bb671e3ae32f654b8954ea4c4635f915","","Mozilla/5.0 (Windows NT 10.0; Win64; x64) AppleWebKit/537.36 (KHTML, like Gecko) Chrome/132.0.0.0 Safari/537.36","WebKit","Chrome","132.0.0.0","Windows","10.0","https://hz8g1ckzuq.cognition.run/","en-US,en;q=0.9","wlvk2awbn0j2zqu","28","[""White""]","No","Female","1084730.800000012","null","","<p></p>","null","choice","ctd","attraction_2","1","televisions","null","null","null","null","null","null","2","","","","","","","","","",""
"","","","","","choice_trial","survey-html-form","135","981581","0.0-5.0-1.25","95","1","2025-04-11 14:44:40","bb671e3ae32f654b8954ea4c4635f915","","Mozilla/5.0 (Windows NT 10.0; Win64; x64) AppleWebKit/537.36 (KHTML, like Gecko) Chrome/132.0.0.0 Safari/537.36","WebKit","Chrome","132.0.0.0","Windows","10.0","https://hz8g1ckzuq.cognition.run/","en-US,en;q=0.9","wlvk2awbn0j2zqu","28","[""White""]","No","Female","1084730.800000012","2575","","","{""product_choice"":""B""}","choice","ctd","attraction_2","1","televisions","null","null","null","null","null","null","2","60","50","60","50","60","40","Screen size","Average lifespan","",""
"","","","","","choice_trial_setup","html-keyboard-response","136","981898","0.0-5.0-0.26","95","1","2025-04-11 14:44:40","bb671e3ae32f654b8954ea4c4635f915","","Mozilla/5.0 (Windows NT 10.0; Win64; x64) AppleWebKit/537.36 (KHTML, like Gecko) Chrome/132.0.0.0 Safari/537.36","WebKit","Chrome","132.0.0.0","Windows","10.0","https://hz8g1ckzuq.cognition.run/","en-US,en;q=0.9","wlvk2awbn0j2zqu","28","[""White""]","No","Female","1084730.800000012","null","","<p></p>","null","choice","bww","catch","null","laptops","90","60","15","5","5","40","1","","","","","","","","","",""
"","","","","","choice_trial","survey-html-form","137","983859","0.0-5.0-1.26","95","1","2025-04-11 14:44:40","bb671e3ae32f654b8954ea4c4635f915","","Mozilla/5.0 (Windows NT 10.0; Win64; x64) AppleWebKit/537.36 (KHTML, like Gecko) Chrome/132.0.0.0 Safari/537.36","WebKit","Chrome","132.0.0.0","Windows","10.0","https://hz8g1ckzuq.cognition.run/","en-US,en;q=0.9","wlvk2awbn0j2zqu","28","[""White""]","No","Female","1084730.800000012","1942","","","{""product_choice"":""A""}","choice","bww","catch","null","laptops","90","60","15","5","5","40","1","null","null","null","null","null","null","Processing speed","Memory (RAM)","",""
"","","","","","choice_trial_setup","html-keyboard-response","138","984174","0.0-5.0-0.27","95","1","2025-04-11 14:44:40","bb671e3ae32f654b8954ea4c4635f915","","Mozilla/5.0 (Windows NT 10.0; Win64; x64) AppleWebKit/537.36 (KHTML, like Gecko) Chrome/132.0.0.0 Safari/537.36","WebKit","Chrome","132.0.0.0","Windows","10.0","https://hz8g1ckzuq.cognition.run/","en-US,en;q=0.9","wlvk2awbn0j2zqu","28","[""White""]","No","Female","1084730.800000012","null","","<p></p>","null","choice","dct","repulsion_2","1","washing machines","null","null","null","null","null","null","2","","","","","","","","","",""
"","","","","","choice_trial","survey-html-form","139","986437","0.0-5.0-1.27","95","1","2025-04-11 14:44:40","bb671e3ae32f654b8954ea4c4635f915","","Mozilla/5.0 (Windows NT 10.0; Win64; x64) AppleWebKit/537.36 (KHTML, like Gecko) Chrome/132.0.0.0 Safari/537.36","WebKit","Chrome","132.0.0.0","Windows","10.0","https://hz8g1ckzuq.cognition.run/","en-US,en;q=0.9","wlvk2awbn0j2zqu","28","[""White""]","No","Female","1084730.800000012","2248","","","{""product_choice"":""C""}","choice","dct","repulsion_2","1","washing machines","null","null","null","null","null","null","2","100","90","100","30","40","20","Average lifespan","Energy savings","",""
"","","","","","choice_trial_setup","html-keyboard-response","140","986752","0.0-5.0-0.28","95","1","2025-04-11 14:44:40","bb671e3ae32f654b8954ea4c4635f915","","Mozilla/5.0 (Windows NT 10.0; Win64; x64) AppleWebKit/537.36 (KHTML, like Gecko) Chrome/132.0.0.0 Safari/537.36","WebKit","Chrome","132.0.0.0","Windows","10.0","https://hz8g1ckzuq.cognition.run/","en-US,en;q=0.9","wlvk2awbn0j2zqu","28","[""White""]","No","Female","1084730.800000012","null","","<p></p>","null","choice","tdc","attraction_1","1","washing machines","null","null","null","null","null","null","2","","","","","","","","","",""
"","","","","","choice_trial","survey-html-form","141","989971","0.0-5.0-1.28","95","1","2025-04-11 14:44:40","bb671e3ae32f654b8954ea4c4635f915","","Mozilla/5.0 (Windows NT 10.0; Win64; x64) AppleWebKit/537.36 (KHTML, like Gecko) Chrome/132.0.0.0 Safari/537.36","WebKit","Chrome","132.0.0.0","Windows","10.0","https://hz8g1ckzuq.cognition.run/","en-US,en;q=0.9","wlvk2awbn0j2zqu","28","[""White""]","No","Female","1084730.800000012","3205","","","{""product_choice"":""A""}","choice","tdc","attraction_1","1","washing machines","null","null","null","null","null","null","2","60","50","60","50","60","45","Average lifespan","Energy savings","",""
"","","","","","choice_trial_setup","html-keyboard-response","142","990287","0.0-5.0-0.29","95","1","2025-04-11 14:44:40","bb671e3ae32f654b8954ea4c4635f915","","Mozilla/5.0 (Windows NT 10.0; Win64; x64) AppleWebKit/537.36 (KHTML, like Gecko) Chrome/132.0.0.0 Safari/537.36","WebKit","Chrome","132.0.0.0","Windows","10.0","https://hz8g1ckzuq.cognition.run/","en-US,en;q=0.9","wlvk2awbn0j2zqu","28","[""White""]","No","Female","1084730.800000012","null","","<p></p>","null","choice","tdc","attraction_1","2","televisions","null","null","null","null","null","null","1","","","","","","","","","",""
"","","","","","choice_trial","survey-html-form","143","991956","0.0-5.0-1.29","95","1","2025-04-11 14:44:40","bb671e3ae32f654b8954ea4c4635f915","","Mozilla/5.0 (Windows NT 10.0; Win64; x64) AppleWebKit/537.36 (KHTML, like Gecko) Chrome/132.0.0.0 Safari/537.36","WebKit","Chrome","132.0.0.0","Windows","10.0","https://hz8g1ckzuq.cognition.run/","en-US,en;q=0.9","wlvk2awbn0j2zqu","28","[""White""]","No","Female","1084730.800000012","1654","","","{""product_choice"":""A""}","choice","tdc","attraction_1","2","televisions","null","null","null","null","null","null","1","50","60","45","60","50","60","Screen size","Average lifespan","",""
"","","","","","choice_trial_setup","html-keyboard-response","144","992275","0.0-5.0-0.30","95","1","2025-04-11 14:44:40","bb671e3ae32f654b8954ea4c4635f915","","Mozilla/5.0 (Windows NT 10.0; Win64; x64) AppleWebKit/537.36 (KHTML, like Gecko) Chrome/132.0.0.0 Safari/537.36","WebKit","Chrome","132.0.0.0","Windows","10.0","https://hz8g1ckzuq.cognition.run/","en-US,en;q=0.9","wlvk2awbn0j2zqu","28","[""White""]","No","Female","1084730.800000012","null","","<p></p>","null","choice","tcd","repulsion_2","1","televisions","null","null","null","null","null","null","2","","","","","","","","","",""
"","","","","","choice_trial","survey-html-form","145","1004757","0.0-5.0-1.30","95","1","2025-04-11 14:44:40","bb671e3ae32f654b8954ea4c4635f915","","Mozilla/5.0 (Windows NT 10.0; Win64; x64) AppleWebKit/537.36 (KHTML, like Gecko) Chrome/132.0.0.0 Safari/537.36","WebKit","Chrome","132.0.0.0","Windows","10.0","https://hz8g1ckzuq.cognition.run/","en-US,en;q=0.9","wlvk2awbn0j2zqu","28","[""White""]","No","Female","1084730.800000012","12467","","","{""product_choice"":""A""}","choice","tcd","repulsion_2","1","televisions","null","null","null","null","null","null","2","100","90","100","30","40","20","Screen size","Average lifespan","",""
"","","","","","choice_trial_setup","html-keyboard-response","146","1005082","0.0-5.0-0.31","95","1","2025-04-11 14:44:40","bb671e3ae32f654b8954ea4c4635f915","","Mozilla/5.0 (Windows NT 10.0; Win64; x64) AppleWebKit/537.36 (KHTML, like Gecko) Chrome/132.0.0.0 Safari/537.36","WebKit","Chrome","132.0.0.0","Windows","10.0","https://hz8g1ckzuq.cognition.run/","en-US,en;q=0.9","wlvk2awbn0j2zqu","28","[""White""]","No","Female","1084730.800000012","null","","<p></p>","null","choice","tdc","repulsion_1","1","microwave ovens","null","null","null","null","null","null","2","","","","","","","","","",""
"","","","","","choice_trial","survey-html-form","147","1007027","0.0-5.0-1.31","95","1","2025-04-11 14:44:40","bb671e3ae32f654b8954ea4c4635f915","","Mozilla/5.0 (Windows NT 10.0; Win64; x64) AppleWebKit/537.36 (KHTML, like Gecko) Chrome/132.0.0.0 Safari/537.36","WebKit","Chrome","132.0.0.0","Windows","10.0","https://hz8g1ckzuq.cognition.run/","en-US,en;q=0.9","wlvk2awbn0j2zqu","28","[""White""]","No","Female","1084730.800000012","1929","","","{""product_choice"":""A""}","choice","tdc","repulsion_1","1","microwave ovens","null","null","null","null","null","null","2","100","90","100","30","40","25","Warranty","Cooking power","",""
"","","","","","choice_trial_setup","html-keyboard-response","148","1007342","0.0-5.0-0.32","95","1","2025-04-11 14:44:40","bb671e3ae32f654b8954ea4c4635f915","","Mozilla/5.0 (Windows NT 10.0; Win64; x64) AppleWebKit/537.36 (KHTML, like Gecko) Chrome/132.0.0.0 Safari/537.36","WebKit","Chrome","132.0.0.0","Windows","10.0","https://hz8g1ckzuq.cognition.run/","en-US,en;q=0.9","wlvk2awbn0j2zqu","28","[""White""]","No","Female","1084730.800000012","null","","<p></p>","null","choice","bww","catch","null","microwave ovens","50","80","10","20","40","45","1","","","","","","","","","",""
"","","","","","choice_trial","survey-html-form","149","1009271","0.0-5.0-1.32","95","1","2025-04-11 14:44:40","bb671e3ae32f654b8954ea4c4635f915","","Mozilla/5.0 (Windows NT 10.0; Win64; x64) AppleWebKit/537.36 (KHTML, like Gecko) Chrome/132.0.0.0 Safari/537.36","WebKit","Chrome","132.0.0.0","Windows","10.0","https://hz8g1ckzuq.cognition.run/","en-US,en;q=0.9","wlvk2awbn0j2zqu","28","[""White""]","No","Female","1084730.800000012","1912","","","{""product_choice"":""A""}","choice","bww","catch","null","microwave ovens","50","80","10","20","40","45","1","null","null","null","null","null","null","Warranty","Cooking power","",""
"","","","","","choice_trial_setup","html-keyboard-response","150","1009592","0.0-5.0-0.33","95","1","2025-04-11 14:44:40","bb671e3ae32f654b8954ea4c4635f915","","Mozilla/5.0 (Windows NT 10.0; Win64; x64) AppleWebKit/537.36 (KHTML, like Gecko) Chrome/132.0.0.0 Safari/537.36","WebKit","Chrome","132.0.0.0","Windows","10.0","https://hz8g1ckzuq.cognition.run/","en-US,en;q=0.9","wlvk2awbn0j2zqu","28","[""White""]","No","Female","1084730.800000012","null","","<p></p>","null","choice","cdt","repulsion_2","2","laptops","null","null","null","null","null","null","2","","","","","","","","","",""
"","","","","","choice_trial","survey-html-form","151","1012354","0.0-5.0-1.33","95","1","2025-04-11 14:44:40","bb671e3ae32f654b8954ea4c4635f915","","Mozilla/5.0 (Windows NT 10.0; Win64; x64) AppleWebKit/537.36 (KHTML, like Gecko) Chrome/132.0.0.0 Safari/537.36","WebKit","Chrome","132.0.0.0","Windows","10.0","https://hz8g1ckzuq.cognition.run/","en-US,en;q=0.9","wlvk2awbn0j2zqu","28","[""White""]","No","Female","1084730.800000012","2752","","","{""product_choice"":""C""}","choice","cdt","repulsion_2","2","laptops","null","null","null","null","null","null","2","30","40","20","100","90","100","Processing speed","Memory (RAM)","",""
"","","","","","choice_trial_setup","html-keyboard-response","152","1012674","0.0-5.0-0.34","95","1","2025-04-11 14:44:40","bb671e3ae32f654b8954ea4c4635f915","","Mozilla/5.0 (Windows NT 10.0; Win64; x64) AppleWebKit/537.36 (KHTML, like Gecko) Chrome/132.0.0.0 Safari/537.36","WebKit","Chrome","132.0.0.0","Windows","10.0","https://hz8g1ckzuq.cognition.run/","en-US,en;q=0.9","wlvk2awbn0j2zqu","28","[""White""]","No","Female","1084730.800000012","null","","<p></p>","null","choice","cdt","attraction_2","2","microwave ovens","null","null","null","null","null","null","2","","","","","","","","","",""
"","","","","","choice_trial","survey-html-form","153","1015289","0.0-5.0-1.34","95","1","2025-04-11 14:44:40","bb671e3ae32f654b8954ea4c4635f915","","Mozilla/5.0 (Windows NT 10.0; Win64; x64) AppleWebKit/537.36 (KHTML, like Gecko) Chrome/132.0.0.0 Safari/537.36","WebKit","Chrome","132.0.0.0","Windows","10.0","https://hz8g1ckzuq.cognition.run/","en-US,en;q=0.9","wlvk2awbn0j2zqu","28","[""White""]","No","Female","1084730.800000012","2599","","","{""product_choice"":""C""}","choice","cdt","attraction_2","2","microwave ovens","null","null","null","null","null","null","2","50","60","40","60","50","60","Warranty","Cooking power","",""
"","","","","","choice_trial_setup","html-keyboard-response","154","1015610","0.0-5.0-0.35","95","1","2025-04-11 14:44:40","bb671e3ae32f654b8954ea4c4635f915","","Mozilla/5.0 (Windows NT 10.0; Win64; x64) AppleWebKit/537.36 (KHTML, like Gecko) Chrome/132.0.0.0 Safari/537.36","WebKit","Chrome","132.0.0.0","Windows","10.0","https://hz8g1ckzuq.cognition.run/","en-US,en;q=0.9","wlvk2awbn0j2zqu","28","[""White""]","No","Female","1084730.800000012","null","","<p></p>","null","choice","tcd","repulsion_2","2","washing machines","null","null","null","null","null","null","1","","","","","","","","","",""
"","","","","","choice_trial","survey-html-form","155","1017748","0.0-5.0-1.35","95","1","2025-04-11 14:44:40","bb671e3ae32f654b8954ea4c4635f915","","Mozilla/5.0 (Windows NT 10.0; Win64; x64) AppleWebKit/537.36 (KHTML, like Gecko) Chrome/132.0.0.0 Safari/537.36","WebKit","Chrome","132.0.0.0","Windows","10.0","https://hz8g1ckzuq.cognition.run/","en-US,en;q=0.9","wlvk2awbn0j2zqu","28","[""White""]","No","Female","1084730.800000012","2123","","","{""product_choice"":""A""}","choice","tcd","repulsion_2","2","washing machines","null","null","null","null","null","null","1","30","40","20","100","90","100","Average lifespan","Energy savings","",""
"","","","","","choice_trial_setup","html-keyboard-response","156","1018062","0.0-5.0-0.36","95","1","2025-04-11 14:44:40","bb671e3ae32f654b8954ea4c4635f915","","Mozilla/5.0 (Windows NT 10.0; Win64; x64) AppleWebKit/537.36 (KHTML, like Gecko) Chrome/132.0.0.0 Safari/537.36","WebKit","Chrome","132.0.0.0","Windows","10.0","https://hz8g1ckzuq.cognition.run/","en-US,en;q=0.9","wlvk2awbn0j2zqu","28","[""White""]","No","Female","1084730.800000012","null","","<p></p>","null","choice","cdt","attraction_1","2","washing machines","null","null","null","null","null","null","1","","","","","","","","","",""
"","","","","","choice_trial","survey-html-form","157","1021436","0.0-5.0-1.36","95","1","2025-04-11 14:44:40","bb671e3ae32f654b8954ea4c4635f915","","Mozilla/5.0 (Windows NT 10.0; Win64; x64) AppleWebKit/537.36 (KHTML, like Gecko) Chrome/132.0.0.0 Safari/537.36","WebKit","Chrome","132.0.0.0","Windows","10.0","https://hz8g1ckzuq.cognition.run/","en-US,en;q=0.9","wlvk2awbn0j2zqu","28","[""White""]","No","Female","1084730.800000012","3359","","","{""product_choice"":""C""}","choice","cdt","attraction_1","2","washing machines","null","null","null","null","null","null","1","50","60","45","60","50","60","Average lifespan","Energy savings","",""
