"success","timeout","failed_images","failed_audio","failed_video","screen_id","trial_type","trial_index","time_elapsed","internal_node_id","run_id","condition","recorded_at","source_code_version","ip","user_agent","device","browser","browser_version","platform","platform_version","referer","accept_language","ppt_id","age","race","ethnicity","gender","exp_duration","rt","view_history","stimulus","response","phase","order","effect","t_high","category","d1_best","d2_best","d1_worst1","d2_worst1","d1_worst2","d2_worst2","first_dim","d1_t","d1_c","d1_d","d2_t","d2_c","d2_d","d1_name","d2_name","strategy_response","question_order"
"true","false","[]","[]","[]","img preload","preload","0","208","0.0-0.0","99","1","2025-04-11 14:48:42","bb671e3ae32f654b8954ea4c4635f915","","Mozilla/5.0 (Windows NT 10.0; Win64; x64) AppleWebKit/537.36 (KHTML, like Gecko) Chrome/135.0.0.0 Safari/537.36","WebKit","Chrome","135.0.0.0","Windows","10.0","https://hz8g1ckzuq.cognition.run/","en-US,en;q=0.9","cq578fpe104wsfa","54","[""Black or African-American""]","No","Female","1054232.7000000477","","","","","","","","","","","","","","","","","","","","","","","","","",""
"true","","","","","","fullscreen","1","4045","0.0-1.0","99","1","2025-04-11 14:48:42","bb671e3ae32f654b8954ea4c4635f915","","Mozilla/5.0 (Windows NT 10.0; Win64; x64) AppleWebKit/537.36 (KHTML, like Gecko) Chrome/135.0.0.0 Safari/537.36","WebKit","Chrome","135.0.0.0","Windows","10.0","https://hz8g1ckzuq.cognition.run/","en-US,en;q=0.9","cq578fpe104wsfa","54","[""Black or African-American""]","No","Female","1054232.7000000477","2821","","","","","","","","","","","","","","","","","","","","","","","","",""
"","","","","","","instructions","2","248326","0.0-2.0","99","1","2025-04-11 14:48:42","bb671e3ae32f654b8954ea4c4635f915","","Mozilla/5.0 (Windows NT 10.0; Win64; x64) AppleWebKit/537.36 (KHTML, like Gecko) Chrome/135.0.0.0 Safari/537.36","WebKit","Chrome","135.0.0.0","Windows","10.0","https://hz8g1ckzuq.cognition.run/","en-US,en;q=0.9","cq578fpe104wsfa","54","[""Black or African-American""]","No","Female","1054232.7000000477","244280","[{""page_index"":0,""viewing_time"":4521},{""page_index"":1,""viewing_time"":6104},{""page_index"":2,""viewing_time"":9129},{""page_index"":3,""viewing_time"":7342},{""page_index"":4,""viewing_time"":44830},{""page_index"":5,""viewing_time"":12425},{""page_index"":6,""viewing_time"":10442},{""page_index"":7,""viewing_time"":126495},{""page_index"":8,""viewing_time"":20229},{""page_index"":9,""viewing_time"":2763}]","","","","","","","","","","","","","","","","","","","","","","","",""
"","","","","","rating_trial_setup","html-keyboard-response","3","248644","0.0-3.0-0.0","99","1","2025-04-11 14:48:42","bb671e3ae32f654b8954ea4c4635f915","","Mozilla/5.0 (Windows NT 10.0; Win64; x64) AppleWebKit/537.36 (KHTML, like Gecko) Chrome/135.0.0.0 Safari/537.36","WebKit","Chrome","135.0.0.0","Windows","10.0","https://hz8g1ckzuq.cognition.run/","en-US,en;q=0.9","cq578fpe104wsfa","54","[""Black or African-American""]","No","Female","1054232.7000000477","null","","<p></p>","null","rating","tdc","repulsion_1","2","televisions","null","null","null","null","null","null","1","","","","","","","","","",""
"","","","","","rating_trial","survey-html-form","4","276110","0.0-3.0-1.0","99","1","2025-04-11 14:48:42","bb671e3ae32f654b8954ea4c4635f915","","Mozilla/5.0 (Windows NT 10.0; Win64; x64) AppleWebKit/537.36 (KHTML, like Gecko) Chrome/135.0.0.0 Safari/537.36","WebKit","Chrome","135.0.0.0","Windows","10.0","https://hz8g1ckzuq.cognition.run/","en-US,en;q=0.9","cq578fpe104wsfa","54","[""Black or African-American""]","No","Female","1054232.7000000477","27459","","","{""price_1"":""350"",""price_2"":""300"",""price_3"":""250""}","rating","tdc","repulsion_1","2","televisions","null","null","null","null","null","null","1","30","40","25","100","90","100","Screen size","Average lifespan","",""
"","","","","","rating_trial_setup","html-keyboard-response","5","276421","0.0-3.0-0.1","99","1","2025-04-11 14:48:42","bb671e3ae32f654b8954ea4c4635f915","","Mozilla/5.0 (Windows NT 10.0; Win64; x64) AppleWebKit/537.36 (KHTML, like Gecko) Chrome/135.0.0.0 Safari/537.36","WebKit","Chrome","135.0.0.0","Windows","10.0","https://hz8g1ckzuq.cognition.run/","en-US,en;q=0.9","cq578fpe104wsfa","54","[""Black or African-American""]","No","Female","1054232.7000000477","null","","<p></p>","null","rating","tcd","repulsion_1","2","laptops","null","null","null","null","null","null","2","","","","","","","","","",""
"","","","","","rating_trial","survey-html-form","6","287918","0.0-3.0-1.1","99","1","2025-04-11 14:48:42","bb671e3ae32f654b8954ea4c4635f915","","Mozilla/5.0 (Windows NT 10.0; Win64; x64) AppleWebKit/537.36 (KHTML, like Gecko) Chrome/135.0.0.0 Safari/537.36","WebKit","Chrome","135.0.0.0","Windows","10.0","https://hz8g1ckzuq.cognition.run/","en-US,en;q=0.9","cq578fpe104wsfa","54","[""Black or African-American""]","No","Female","1054232.7000000477","11491","","","{""price_1"":""600"",""price_2"":""400"",""price_3"":""299""}","rating","tcd","repulsion_1","2","laptops","null","null","null","null","null","null","2","30","40","25","100","90","100","Processing speed","Memory (RAM)","",""
"","","","","","rating_trial_setup","html-keyboard-response","7","288224","0.0-3.0-0.2","99","1","2025-04-11 14:48:42","bb671e3ae32f654b8954ea4c4635f915","","Mozilla/5.0 (Windows NT 10.0; Win64; x64) AppleWebKit/537.36 (KHTML, like Gecko) Chrome/135.0.0.0 Safari/537.36","WebKit","Chrome","135.0.0.0","Windows","10.0","https://hz8g1ckzuq.cognition.run/","en-US,en;q=0.9","cq578fpe104wsfa","54","[""Black or African-American""]","No","Female","1054232.7000000477","null","","<p></p>","null","rating","wbw","catch","null","televisions","90","65","15","50","40","45","2","","","","","","","","","",""
"","","","","","rating_trial","survey-html-form","8","308232","0.0-3.0-1.2","99","1","2025-04-11 14:48:42","bb671e3ae32f654b8954ea4c4635f915","","Mozilla/5.0 (Windows NT 10.0; Win64; x64) AppleWebKit/537.36 (KHTML, like Gecko) Chrome/135.0.0.0 Safari/537.36","WebKit","Chrome","135.0.0.0","Windows","10.0","https://hz8g1ckzuq.cognition.run/","en-US,en;q=0.9","cq578fpe104wsfa","54","[""Black or African-American""]","No","Female","1054232.7000000477","20003","","","{""price_1"":""75"",""price_2"":""300"",""price_3"":""210""}","rating","wbw","catch","null","televisions","90","65","15","50","40","45","2","null","null","null","null","null","null","Screen size","Average lifespan","",""
"","","","","","rating_trial_setup","html-keyboard-response","9","308542","0.0-3.0-0.3","99","1","2025-04-11 14:48:42","bb671e3ae32f654b8954ea4c4635f915","","Mozilla/5.0 (Windows NT 10.0; Win64; x64) AppleWebKit/537.36 (KHTML, like Gecko) Chrome/135.0.0.0 Safari/537.36","WebKit","Chrome","135.0.0.0","Windows","10.0","https://hz8g1ckzuq.cognition.run/","en-US,en;q=0.9","cq578fpe104wsfa","54","[""Black or African-American""]","No","Female","1054232.7000000477","null","","<p></p>","null","rating","ctd","repulsion_2","1","laptops","null","null","null","null","null","null","1","","","","","","","","","",""
"","","","","","rating_trial","survey-html-form","10","319912","0.0-3.0-1.3","99","1","2025-04-11 14:48:42","bb671e3ae32f654b8954ea4c4635f915","","Mozilla/5.0 (Windows NT 10.0; Win64; x64) AppleWebKit/537.36 (KHTML, like Gecko) Chrome/135.0.0.0 Safari/537.36","WebKit","Chrome","135.0.0.0","Windows","10.0","https://hz8g1ckzuq.cognition.run/","en-US,en;q=0.9","cq578fpe104wsfa","54","[""Black or African-American""]","No","Female","1054232.7000000477","11365","","","{""price_1"":""400"",""price_2"":""500"",""price_3"":""200""}","rating","ctd","repulsion_2","1","laptops","null","null","null","null","null","null","1","100","90","100","30","40","20","Processing speed","Memory (RAM)","",""
"","","","","","rating_trial_setup","html-keyboard-response","11","320221","0.0-3.0-0.4","99","1","2025-04-11 14:48:42","bb671e3ae32f654b8954ea4c4635f915","","Mozilla/5.0 (Windows NT 10.0; Win64; x64) AppleWebKit/537.36 (KHTML, like Gecko) Chrome/135.0.0.0 Safari/537.36","WebKit","Chrome","135.0.0.0","Windows","10.0","https://hz8g1ckzuq.cognition.run/","en-US,en;q=0.9","cq578fpe104wsfa","54","[""Black or African-American""]","No","Female","1054232.7000000477","null","","<p></p>","null","rating","tdc","attraction_2","1","microwave ovens","null","null","null","null","null","null","1","","","","","","","","","",""
"","","","","","rating_trial","survey-html-form","12","327761","0.0-3.0-1.4","99","1","2025-04-11 14:48:42","bb671e3ae32f654b8954ea4c4635f915","","Mozilla/5.0 (Windows NT 10.0; Win64; x64) AppleWebKit/537.36 (KHTML, like Gecko) Chrome/135.0.0.0 Safari/537.36","WebKit","Chrome","135.0.0.0","Windows","10.0","https://hz8g1ckzuq.cognition.run/","en-US,en;q=0.9","cq578fpe104wsfa","54","[""Black or African-American""]","No","Female","1054232.7000000477","7536","","","{""price_1"":""75"",""price_2"":""50"",""price_3"":""40""}","rating","tdc","attraction_2","1","microwave ovens","null","null","null","null","null","null","1","60","50","60","50","60","40","Warranty","Cooking power","",""
"","","","","","rating_trial_setup","html-keyboard-response","13","328067","0.0-3.0-0.5","99","1","2025-04-11 14:48:42","bb671e3ae32f654b8954ea4c4635f915","","Mozilla/5.0 (Windows NT 10.0; Win64; x64) AppleWebKit/537.36 (KHTML, like Gecko) Chrome/135.0.0.0 Safari/537.36","WebKit","Chrome","135.0.0.0","Windows","10.0","https://hz8g1ckzuq.cognition.run/","en-US,en;q=0.9","cq578fpe104wsfa","54","[""Black or African-American""]","No","Female","1054232.7000000477","null","","<p></p>","null","rating","tdc","repulsion_2","2","televisions","null","null","null","null","null","null","2","","","","","","","","","",""
"","","","","","rating_trial","survey-html-form","14","351644","0.0-3.0-1.5","99","1","2025-04-11 14:48:42","bb671e3ae32f654b8954ea4c4635f915","","Mozilla/5.0 (Windows NT 10.0; Win64; x64) AppleWebKit/537.36 (KHTML, like Gecko) Chrome/135.0.0.0 Safari/537.36","WebKit","Chrome","135.0.0.0","Windows","10.0","https://hz8g1ckzuq.cognition.run/","en-US,en;q=0.9","cq578fpe104wsfa","54","[""Black or African-American""]","No","Female","1054232.7000000477","23572","","","{""price_1"":""250"",""price_2"":""150"",""price_3"":""200""}","rating","tdc","repulsion_2","2","televisions","null","null","null","null","null","null","2","30","40","20","100","90","100","Screen size","Average lifespan","",""
"","","","","","rating_trial_setup","html-keyboard-response","15","351955","0.0-3.0-0.6","99","1","2025-04-11 14:48:42","bb671e3ae32f654b8954ea4c4635f915","","Mozilla/5.0 (Windows NT 10.0; Win64; x64) AppleWebKit/537.36 (KHTML, like Gecko) Chrome/135.0.0.0 Safari/537.36","WebKit","Chrome","135.0.0.0","Windows","10.0","https://hz8g1ckzuq.cognition.run/","en-US,en;q=0.9","cq578fpe104wsfa","54","[""Black or African-American""]","No","Female","1054232.7000000477","null","","<p></p>","null","rating","tcd","attraction_2","2","televisions","null","null","null","null","null","null","2","","","","","","","","","",""
"","","","","","rating_trial","survey-html-form","16","368991","0.0-3.0-1.6","99","1","2025-04-11 14:48:42","bb671e3ae32f654b8954ea4c4635f915","","Mozilla/5.0 (Windows NT 10.0; Win64; x64) AppleWebKit/537.36 (KHTML, like Gecko) Chrome/135.0.0.0 Safari/537.36","WebKit","Chrome","135.0.0.0","Windows","10.0","https://hz8g1ckzuq.cognition.run/","en-US,en;q=0.9","cq578fpe104wsfa","54","[""Black or African-American""]","No","Female","1054232.7000000477","17028","","","{""price_1"":""200"",""price_2"":""100"",""price_3"":""75""}","rating","tcd","attraction_2","2","televisions","null","null","null","null","null","null","2","50","60","40","60","50","60","Screen size","Average lifespan","",""
"","","","","","rating_trial_setup","html-keyboard-response","17","369310","0.0-3.0-0.7","99","1","2025-04-11 14:48:42","bb671e3ae32f654b8954ea4c4635f915","","Mozilla/5.0 (Windows NT 10.0; Win64; x64) AppleWebKit/537.36 (KHTML, like Gecko) Chrome/135.0.0.0 Safari/537.36","WebKit","Chrome","135.0.0.0","Windows","10.0","https://hz8g1ckzuq.cognition.run/","en-US,en;q=0.9","cq578fpe104wsfa","54","[""Black or African-American""]","No","Female","1054232.7000000477","null","","<p></p>","null","rating","cdt","attraction_2","1","televisions","null","null","null","null","null","null","2","","","","","","","","","",""
"","","","","","rating_trial","survey-html-form","18","378948","0.0-3.0-1.7","99","1","2025-04-11 14:48:42","bb671e3ae32f654b8954ea4c4635f915","","Mozilla/5.0 (Windows NT 10.0; Win64; x64) AppleWebKit/537.36 (KHTML, like Gecko) Chrome/135.0.0.0 Safari/537.36","WebKit","Chrome","135.0.0.0","Windows","10.0","https://hz8g1ckzuq.cognition.run/","en-US,en;q=0.9","cq578fpe104wsfa","54","[""Black or African-American""]","No","Female","1054232.7000000477","9632","","","{""price_1"":""300"",""price_2"":""200"",""price_3"":""100""}","rating","cdt","attraction_2","1","televisions","null","null","null","null","null","null","2","60","50","60","50","60","40","Screen size","Average lifespan","",""
"","","","","","rating_trial_setup","html-keyboard-response","19","379261","0.0-3.0-0.8","99","1","2025-04-11 14:48:42","bb671e3ae32f654b8954ea4c4635f915","","Mozilla/5.0 (Windows NT 10.0; Win64; x64) AppleWebKit/537.36 (KHTML, like Gecko) Chrome/135.0.0.0 Safari/537.36","WebKit","Chrome","135.0.0.0","Windows","10.0","https://hz8g1ckzuq.cognition.run/","en-US,en;q=0.9","cq578fpe104wsfa","54","[""Black or African-American""]","No","Female","1054232.7000000477","null","","<p></p>","null","rating","tdc","attraction_1","1","microwave ovens","null","null","null","null","null","null","1","","","","","","","","","",""
"","","","","","rating_trial","survey-html-form","20","393388","0.0-3.0-1.8","99","1","2025-04-11 14:48:42","bb671e3ae32f654b8954ea4c4635f915","","Mozilla/5.0 (Windows NT 10.0; Win64; x64) AppleWebKit/537.36 (KHTML, like Gecko) Chrome/135.0.0.0 Safari/537.36","WebKit","Chrome","135.0.0.0","Windows","10.0","https://hz8g1ckzuq.cognition.run/","en-US,en;q=0.9","cq578fpe104wsfa","54","[""Black or African-American""]","No","Female","1054232.7000000477","14121","","","{""price_1"":""50"",""price_2"":""40"",""price_3"":""65""}","rating","tdc","attraction_1","1","microwave ovens","null","null","null","null","null","null","1","60","50","60","50","60","45","Warranty","Cooking power","",""
"","","","","","rating_trial_setup","html-keyboard-response","21","393702","0.0-3.0-0.9","99","1","2025-04-11 14:48:42","bb671e3ae32f654b8954ea4c4635f915","","Mozilla/5.0 (Windows NT 10.0; Win64; x64) AppleWebKit/537.36 (KHTML, like Gecko) Chrome/135.0.0.0 Safari/537.36","WebKit","Chrome","135.0.0.0","Windows","10.0","https://hz8g1ckzuq.cognition.run/","en-US,en;q=0.9","cq578fpe104wsfa","54","[""Black or African-American""]","No","Female","1054232.7000000477","null","","<p></p>","null","rating","bww","catch","null","microwave ovens","80","70","25","30","10","15","2","","","","","","","","","",""
"","","","","","rating_trial","survey-html-form","22","402129","0.0-3.0-1.9","99","1","2025-04-11 14:48:42","bb671e3ae32f654b8954ea4c4635f915","","Mozilla/5.0 (Windows NT 10.0; Win64; x64) AppleWebKit/537.36 (KHTML, like Gecko) Chrome/135.0.0.0 Safari/537.36","WebKit","Chrome","135.0.0.0","Windows","10.0","https://hz8g1ckzuq.cognition.run/","en-US,en;q=0.9","cq578fpe104wsfa","54","[""Black or African-American""]","No","Female","1054232.7000000477","8420","","","{""price_1"":""75"",""price_2"":""50"",""price_3"":""40""}","rating","bww","catch","null","microwave ovens","80","70","25","30","10","15","2","null","null","null","null","null","null","Warranty","Cooking power","",""
"","","","","","rating_trial_setup","html-keyboard-response","23","402439","0.0-3.0-0.10","99","1","2025-04-11 14:48:42","bb671e3ae32f654b8954ea4c4635f915","","Mozilla/5.0 (Windows NT 10.0; Win64; x64) AppleWebKit/537.36 (KHTML, like Gecko) Chrome/135.0.0.0 Safari/537.36","WebKit","Chrome","135.0.0.0","Windows","10.0","https://hz8g1ckzuq.cognition.run/","en-US,en;q=0.9","cq578fpe104wsfa","54","[""Black or African-American""]","No","Female","1054232.7000000477","null","","<p></p>","null","rating","tdc","repulsion_1","1","televisions","null","null","null","null","null","null","1","","","","","","","","","",""
"","","","","","rating_trial","survey-html-form","24","415751","0.0-3.0-1.10","99","1","2025-04-11 14:48:42","bb671e3ae32f654b8954ea4c4635f915","","Mozilla/5.0 (Windows NT 10.0; Win64; x64) AppleWebKit/537.36 (KHTML, like Gecko) Chrome/135.0.0.0 Safari/537.36","WebKit","Chrome","135.0.0.0","Windows","10.0","https://hz8g1ckzuq.cognition.run/","en-US,en;q=0.9","cq578fpe104wsfa","54","[""Black or African-American""]","No","Female","1054232.7000000477","13306","","","{""price_1"":""300"",""price_2"":""175"",""price_3"":""200""}","rating","tdc","repulsion_1","1","televisions","null","null","null","null","null","null","1","100","90","100","30","40","25","Screen size","Average lifespan","",""
"","","","","","rating_trial_setup","html-keyboard-response","25","416059","0.0-3.0-0.11","99","1","2025-04-11 14:48:42","bb671e3ae32f654b8954ea4c4635f915","","Mozilla/5.0 (Windows NT 10.0; Win64; x64) AppleWebKit/537.36 (KHTML, like Gecko) Chrome/135.0.0.0 Safari/537.36","WebKit","Chrome","135.0.0.0","Windows","10.0","https://hz8g1ckzuq.cognition.run/","en-US,en;q=0.9","cq578fpe104wsfa","54","[""Black or African-American""]","No","Female","1054232.7000000477","null","","<p></p>","null","rating","dtc","attraction_2","2","microwave ovens","null","null","null","null","null","null","1","","","","","","","","","",""
"","","","","","rating_trial","survey-html-form","26","424105","0.0-3.0-1.11","99","1","2025-04-11 14:48:42","bb671e3ae32f654b8954ea4c4635f915","","Mozilla/5.0 (Windows NT 10.0; Win64; x64) AppleWebKit/537.36 (KHTML, like Gecko) Chrome/135.0.0.0 Safari/537.36","WebKit","Chrome","135.0.0.0","Windows","10.0","https://hz8g1ckzuq.cognition.run/","en-US,en;q=0.9","cq578fpe104wsfa","54","[""Black or African-American""]","No","Female","1054232.7000000477","8041","","","{""price_1"":""75"",""price_2"":""60"",""price_3"":""40""}","rating","dtc","attraction_2","2","microwave ovens","null","null","null","null","null","null","1","50","60","40","60","50","60","Warranty","Cooking power","",""
"","","","","","rating_trial_setup","html-keyboard-response","27","424415","0.0-3.0-0.12","99","1","2025-04-11 14:48:42","bb671e3ae32f654b8954ea4c4635f915","","Mozilla/5.0 (Windows NT 10.0; Win64; x64) AppleWebKit/537.36 (KHTML, like Gecko) Chrome/135.0.0.0 Safari/537.36","WebKit","Chrome","135.0.0.0","Windows","10.0","https://hz8g1ckzuq.cognition.run/","en-US,en;q=0.9","cq578fpe104wsfa","54","[""Black or African-American""]","No","Female","1054232.7000000477","null","","<p></p>","null","rating","bww","catch","null","televisions","80","90","30","10","35","50","1","","","","","","","","","",""
"","","","","","rating_trial","survey-html-form","28","433048","0.0-3.0-1.12","99","1","2025-04-11 14:48:42","bb671e3ae32f654b8954ea4c4635f915","","Mozilla/5.0 (Windows NT 10.0; Win64; x64) AppleWebKit/537.36 (KHTML, like Gecko) Chrome/135.0.0.0 Safari/537.36","WebKit","Chrome","135.0.0.0","Windows","10.0","https://hz8g1ckzuq.cognition.run/","en-US,en;q=0.9","cq578fpe104wsfa","54","[""Black or African-American""]","No","Female","1054232.7000000477","8627","","","{""price_1"":""300"",""price_2"":""200"",""price_3"":""150""}","rating","bww","catch","null","televisions","80","90","30","10","35","50","1","null","null","null","null","null","null","Screen size","Average lifespan","",""
"","","","","","rating_trial_setup","html-keyboard-response","29","433371","0.0-3.0-0.13","99","1","2025-04-11 14:48:42","bb671e3ae32f654b8954ea4c4635f915","","Mozilla/5.0 (Windows NT 10.0; Win64; x64) AppleWebKit/537.36 (KHTML, like Gecko) Chrome/135.0.0.0 Safari/537.36","WebKit","Chrome","135.0.0.0","Windows","10.0","https://hz8g1ckzuq.cognition.run/","en-US,en;q=0.9","cq578fpe104wsfa","54","[""Black or African-American""]","No","Female","1054232.7000000477","null","","<p></p>","null","rating","ctd","attraction_1","1","laptops","null","null","null","null","null","null","1","","","","","","","","","",""
"","","","","","rating_trial","survey-html-form","30","444998","0.0-3.0-1.13","99","1","2025-04-11 14:48:42","bb671e3ae32f654b8954ea4c4635f915","","Mozilla/5.0 (Windows NT 10.0; Win64; x64) AppleWebKit/537.36 (KHTML, like Gecko) Chrome/135.0.0.0 Safari/537.36","WebKit","Chrome","135.0.0.0","Windows","10.0","https://hz8g1ckzuq.cognition.run/","en-US,en;q=0.9","cq578fpe104wsfa","54","[""Black or African-American""]","No","Female","1054232.7000000477","11621","","","{""price_1"":""600"",""price_2"":""400"",""price_3"":""300""}","rating","ctd","attraction_1","1","laptops","null","null","null","null","null","null","1","60","50","60","50","60","45","Processing speed","Memory (RAM)","",""
"","","","","","rating_trial_setup","html-keyboard-response","31","445309","0.0-3.0-0.14","99","1","2025-04-11 14:48:42","bb671e3ae32f654b8954ea4c4635f915","","Mozilla/5.0 (Windows NT 10.0; Win64; x64) AppleWebKit/537.36 (KHTML, like Gecko) Chrome/135.0.0.0 Safari/537.36","WebKit","Chrome","135.0.0.0","Windows","10.0","https://hz8g1ckzuq.cognition.run/","en-US,en;q=0.9","cq578fpe104wsfa","54","[""Black or African-American""]","No","Female","1054232.7000000477","null","","<p></p>","null","rating","dtc","repulsion_2","1","microwave ovens","null","null","null","null","null","null","2","","","","","","","","","",""
"","","","","","rating_trial","survey-html-form","32","453344","0.0-3.0-1.14","99","1","2025-04-11 14:48:42","bb671e3ae32f654b8954ea4c4635f915","","Mozilla/5.0 (Windows NT 10.0; Win64; x64) AppleWebKit/537.36 (KHTML, like Gecko) Chrome/135.0.0.0 Safari/537.36","WebKit","Chrome","135.0.0.0","Windows","10.0","https://hz8g1ckzuq.cognition.run/","en-US,en;q=0.9","cq578fpe104wsfa","54","[""Black or African-American""]","No","Female","1054232.7000000477","8029","","","{""price_1"":""75"",""price_2"":""60"",""price_3"":""40""}","rating","dtc","repulsion_2","1","microwave ovens","null","null","null","null","null","null","2","100","90","100","30","40","20","Warranty","Cooking power","",""
"","","","","","rating_trial_setup","html-keyboard-response","33","453667","0.0-3.0-0.15","99","1","2025-04-11 14:48:42","bb671e3ae32f654b8954ea4c4635f915","","Mozilla/5.0 (Windows NT 10.0; Win64; x64) AppleWebKit/537.36 (KHTML, like Gecko) Chrome/135.0.0.0 Safari/537.36","WebKit","Chrome","135.0.0.0","Windows","10.0","https://hz8g1ckzuq.cognition.run/","en-US,en;q=0.9","cq578fpe104wsfa","54","[""Black or African-American""]","No","Female","1054232.7000000477","null","","<p></p>","null","rating","bww","catch","null","washing machines","95","90","45","20","40","20","1","","","","","","","","","",""
"","","","","","rating_trial","survey-html-form","34","463665","0.0-3.0-1.15","99","1","2025-04-11 14:48:42","bb671e3ae32f654b8954ea4c4635f915","","Mozilla/5.0 (Windows NT 10.0; Win64; x64) AppleWebKit/537.36 (KHTML, like Gecko) Chrome/135.0.0.0 Safari/537.36","WebKit","Chrome","135.0.0.0","Windows","10.0","https://hz8g1ckzuq.cognition.run/","en-US,en;q=0.9","cq578fpe104wsfa","54","[""Black or African-American""]","No","Female","1054232.7000000477","9991","","","{""price_1"":""800"",""price_2"":""500"",""price_3"":""450""}","rating","bww","catch","null","washing machines","95","90","45","20","40","20","1","null","null","null","null","null","null","Average lifespan","Energy savings","",""
"","","","","","rating_trial_setup","html-keyboard-response","35","463977","0.0-3.0-0.16","99","1","2025-04-11 14:48:42","bb671e3ae32f654b8954ea4c4635f915","","Mozilla/5.0 (Windows NT 10.0; Win64; x64) AppleWebKit/537.36 (KHTML, like Gecko) Chrome/135.0.0.0 Safari/537.36","WebKit","Chrome","135.0.0.0","Windows","10.0","https://hz8g1ckzuq.cognition.run/","en-US,en;q=0.9","cq578fpe104wsfa","54","[""Black or African-American""]","No","Female","1054232.7000000477","null","","<p></p>","null","rating","bww","catch","null","laptops","75","95","10","30","30","25","2","","","","","","","","","",""
"","","","","","rating_trial","survey-html-form","36","471644","0.0-3.0-1.16","99","1","2025-04-11 14:48:42","bb671e3ae32f654b8954ea4c4635f915","","Mozilla/5.0 (Windows NT 10.0; Win64; x64) AppleWebKit/537.36 (KHTML, like Gecko) Chrome/135.0.0.0 Safari/537.36","WebKit","Chrome","135.0.0.0","Windows","10.0","https://hz8g1ckzuq.cognition.run/","en-US,en;q=0.9","cq578fpe104wsfa","54","[""Black or African-American""]","No","Female","1054232.7000000477","7663","","","{""price_1"":""700"",""price_2"":""400"",""price_3"":""300""}","rating","bww","catch","null","laptops","75","95","10","30","30","25","2","null","null","null","null","null","null","Processing speed","Memory (RAM)","",""
"","","","","","rating_trial_setup","html-keyboard-response","37","471963","0.0-3.0-0.17","99","1","2025-04-11 14:48:42","bb671e3ae32f654b8954ea4c4635f915","","Mozilla/5.0 (Windows NT 10.0; Win64; x64) AppleWebKit/537.36 (KHTML, like Gecko) Chrome/135.0.0.0 Safari/537.36","WebKit","Chrome","135.0.0.0","Windows","10.0","https://hz8g1ckzuq.cognition.run/","en-US,en;q=0.9","cq578fpe104wsfa","54","[""Black or African-American""]","No","Female","1054232.7000000477","null","","<p></p>","null","rating","wwb","catch","null","washing machines","65","75","45","45","45","25","1","","","","","","","","","",""
"","","","","","rating_trial","survey-html-form","38","479210","0.0-3.0-1.17","99","1","2025-04-11 14:48:42","bb671e3ae32f654b8954ea4c4635f915","","Mozilla/5.0 (Windows NT 10.0; Win64; x64) AppleWebKit/537.36 (KHTML, like Gecko) Chrome/135.0.0.0 Safari/537.36","WebKit","Chrome","135.0.0.0","Windows","10.0","https://hz8g1ckzuq.cognition.run/","en-US,en;q=0.9","cq578fpe104wsfa","54","[""Black or African-American""]","No","Female","1054232.7000000477","7241","","","{""price_1"":""800"",""price_2"":""500"",""price_3"":""300""}","rating","wwb","catch","null","washing machines","65","75","45","45","45","25","1","null","null","null","null","null","null","Average lifespan","Energy savings","",""
"","","","","","rating_trial_setup","html-keyboard-response","39","479533","0.0-3.0-0.18","99","1","2025-04-11 14:48:42","bb671e3ae32f654b8954ea4c4635f915","","Mozilla/5.0 (Windows NT 10.0; Win64; x64) AppleWebKit/537.36 (KHTML, like Gecko) Chrome/135.0.0.0 Safari/537.36","WebKit","Chrome","135.0.0.0","Windows","10.0","https://hz8g1ckzuq.cognition.run/","en-US,en;q=0.9","cq578fpe104wsfa","54","[""Black or African-American""]","No","Female","1054232.7000000477","null","","<p></p>","null","rating","wwb","catch","null","microwave ovens","95","60","15","50","50","35","1","","","","","","","","","",""
"","","","","","rating_trial","survey-html-form","40","486556","0.0-3.0-1.18","99","1","2025-04-11 14:48:42","bb671e3ae32f654b8954ea4c4635f915","","Mozilla/5.0 (Windows NT 10.0; Win64; x64) AppleWebKit/537.36 (KHTML, like Gecko) Chrome/135.0.0.0 Safari/537.36","WebKit","Chrome","135.0.0.0","Windows","10.0","https://hz8g1ckzuq.cognition.run/","en-US,en;q=0.9","cq578fpe104wsfa","54","[""Black or African-American""]","No","Female","1054232.7000000477","7016","","","{""price_1"":""75"",""price_2"":""50"",""price_3"":""45""}","rating","wwb","catch","null","microwave ovens","95","60","15","50","50","35","1","null","null","null","null","null","null","Warranty","Cooking power","",""
"","","","","","rating_trial_setup","html-keyboard-response","41","486872","0.0-3.0-0.19","99","1","2025-04-11 14:48:42","bb671e3ae32f654b8954ea4c4635f915","","Mozilla/5.0 (Windows NT 10.0; Win64; x64) AppleWebKit/537.36 (KHTML, like Gecko) Chrome/135.0.0.0 Safari/537.36","WebKit","Chrome","135.0.0.0","Windows","10.0","https://hz8g1ckzuq.cognition.run/","en-US,en;q=0.9","cq578fpe104wsfa","54","[""Black or African-American""]","No","Female","1054232.7000000477","null","","<p></p>","null","rating","dct","repulsion_2","1","televisions","null","null","null","null","null","null","2","","","","","","","","","",""
"","","","","","rating_trial","survey-html-form","42","643717","0.0-3.0-1.19","99","1","2025-04-11 14:48:42","bb671e3ae32f654b8954ea4c4635f915","","Mozilla/5.0 (Windows NT 10.0; Win64; x64) AppleWebKit/537.36 (KHTML, like Gecko) Chrome/135.0.0.0 Safari/537.36","WebKit","Chrome","135.0.0.0","Windows","10.0","https://hz8g1ckzuq.cognition.run/","en-US,en;q=0.9","cq578fpe104wsfa","54","[""Black or African-American""]","No","Female","1054232.7000000477","156839","","","{""price_1"":""300"",""price_2"":""200"",""price_3"":""150""}","rating","dct","repulsion_2","1","televisions","null","null","null","null","null","null","2","100","90","100","30","40","20","Screen size","Average lifespan","",""
"","","","","","rating_trial_setup","html-keyboard-response","43","644032","0.0-3.0-0.20","99","1","2025-04-11 14:48:42","bb671e3ae32f654b8954ea4c4635f915","","Mozilla/5.0 (Windows NT 10.0; Win64; x64) AppleWebKit/537.36 (KHTML, like Gecko) Chrome/135.0.0.0 Safari/537.36","WebKit","Chrome","135.0.0.0","Windows","10.0","https://hz8g1ckzuq.cognition.run/","en-US,en;q=0.9","cq578fpe104wsfa","54","[""Black or African-American""]","No","Female","1054232.7000000477","null","","<p></p>","null","rating","dtc","repulsion_2","2","microwave ovens","null","null","null","null","null","null","1","","","","","","","","","",""
"","","","","","rating_trial","survey-html-form","44","651138","0.0-3.0-1.20","99","1","2025-04-11 14:48:42","bb671e3ae32f654b8954ea4c4635f915","","Mozilla/5.0 (Windows NT 10.0; Win64; x64) AppleWebKit/537.36 (KHTML, like Gecko) Chrome/135.0.0.0 Safari/537.36","WebKit","Chrome","135.0.0.0","Windows","10.0","https://hz8g1ckzuq.cognition.run/","en-US,en;q=0.9","cq578fpe104wsfa","54","[""Black or African-American""]","No","Female","1054232.7000000477","7099","","","{""price_1"":""75"",""price_2"":""65"",""price_3"":""50""}","rating","dtc","repulsion_2","2","microwave ovens","null","null","null","null","null","null","1","30","40","20","100","90","100","Warranty","Cooking power","",""
"","","","","","rating_trial_setup","html-keyboard-response","45","651451","0.0-3.0-0.21","99","1","2025-04-11 14:48:42","bb671e3ae32f654b8954ea4c4635f915","","Mozilla/5.0 (Windows NT 10.0; Win64; x64) AppleWebKit/537.36 (KHTML, like Gecko) Chrome/135.0.0.0 Safari/537.36","WebKit","Chrome","135.0.0.0","Windows","10.0","https://hz8g1ckzuq.cognition.run/","en-US,en;q=0.9","cq578fpe104wsfa","54","[""Black or African-American""]","No","Female","1054232.7000000477","null","","<p></p>","null","rating","tdc","repulsion_1","2","washing machines","null","null","null","null","null","null","2","","","","","","","","","",""
"","","","","","rating_trial","survey-html-form","46","659754","0.0-3.0-1.21","99","1","2025-04-11 14:48:42","bb671e3ae32f654b8954ea4c4635f915","","Mozilla/5.0 (Windows NT 10.0; Win64; x64) AppleWebKit/537.36 (KHTML, like Gecko) Chrome/135.0.0.0 Safari/537.36","WebKit","Chrome","135.0.0.0","Windows","10.0","https://hz8g1ckzuq.cognition.run/","en-US,en;q=0.9","cq578fpe104wsfa","54","[""Black or African-American""]","No","Female","1054232.7000000477","8300","","","{""price_1"":""700"",""price_2"":""600"",""price_3"":""400""}","rating","tdc","repulsion_1","2","washing machines","null","null","null","null","null","null","2","30","40","25","100","90","100","Average lifespan","Energy savings","",""
"","","","","","rating_trial_setup","html-keyboard-response","47","660070","0.0-3.0-0.22","99","1","2025-04-11 14:48:42","bb671e3ae32f654b8954ea4c4635f915","","Mozilla/5.0 (Windows NT 10.0; Win64; x64) AppleWebKit/537.36 (KHTML, like Gecko) Chrome/135.0.0.0 Safari/537.36","WebKit","Chrome","135.0.0.0","Windows","10.0","https://hz8g1ckzuq.cognition.run/","en-US,en;q=0.9","cq578fpe104wsfa","54","[""Black or African-American""]","No","Female","1054232.7000000477","null","","<p></p>","null","rating","dct","repulsion_1","1","laptops","null","null","null","null","null","null","2","","","","","","","","","",""
"","","","","","rating_trial","survey-html-form","48","668046","0.0-3.0-1.22","99","1","2025-04-11 14:48:42","bb671e3ae32f654b8954ea4c4635f915","","Mozilla/5.0 (Windows NT 10.0; Win64; x64) AppleWebKit/537.36 (KHTML, like Gecko) Chrome/135.0.0.0 Safari/537.36","WebKit","Chrome","135.0.0.0","Windows","10.0","https://hz8g1ckzuq.cognition.run/","en-US,en;q=0.9","cq578fpe104wsfa","54","[""Black or African-American""]","No","Female","1054232.7000000477","7973","","","{""price_1"":""600"",""price_2"":""400"",""price_3"":""300""}","rating","dct","repulsion_1","1","laptops","null","null","null","null","null","null","2","100","90","100","30","40","25","Processing speed","Memory (RAM)","",""
"","","","","","rating_trial_setup","html-keyboard-response","49","668361","0.0-3.0-0.23","99","1","2025-04-11 14:48:42","bb671e3ae32f654b8954ea4c4635f915","","Mozilla/5.0 (Windows NT 10.0; Win64; x64) AppleWebKit/537.36 (KHTML, like Gecko) Chrome/135.0.0.0 Safari/537.36","WebKit","Chrome","135.0.0.0","Windows","10.0","https://hz8g1ckzuq.cognition.run/","en-US,en;q=0.9","cq578fpe104wsfa","54","[""Black or African-American""]","No","Female","1054232.7000000477","null","","<p></p>","null","rating","tcd","attraction_2","1","laptops","null","null","null","null","null","null","2","","","","","","","","","",""
"","","","","","rating_trial","survey-html-form","50","681921","0.0-3.0-1.23","99","1","2025-04-11 14:48:42","bb671e3ae32f654b8954ea4c4635f915","","Mozilla/5.0 (Windows NT 10.0; Win64; x64) AppleWebKit/537.36 (KHTML, like Gecko) Chrome/135.0.0.0 Safari/537.36","WebKit","Chrome","135.0.0.0","Windows","10.0","https://hz8g1ckzuq.cognition.run/","en-US,en;q=0.9","cq578fpe104wsfa","54","[""Black or African-American""]","No","Female","1054232.7000000477","13558","","","{""price_1"":""600"",""price_2"":""400"",""price_3"":""300""}","rating","tcd","attraction_2","1","laptops","null","null","null","null","null","null","2","60","50","60","50","60","40","Processing speed","Memory (RAM)","",""
"","","","","","rating_trial_setup","html-keyboard-response","51","682231","0.0-3.0-0.24","99","1","2025-04-11 14:48:42","bb671e3ae32f654b8954ea4c4635f915","","Mozilla/5.0 (Windows NT 10.0; Win64; x64) AppleWebKit/537.36 (KHTML, like Gecko) Chrome/135.0.0.0 Safari/537.36","WebKit","Chrome","135.0.0.0","Windows","10.0","https://hz8g1ckzuq.cognition.run/","en-US,en;q=0.9","cq578fpe104wsfa","54","[""Black or African-American""]","No","Female","1054232.7000000477","null","","<p></p>","null","rating","tdc","repulsion_1","2","microwave ovens","null","null","null","null","null","null","1","","","","","","","","","",""
"","","","","","rating_trial","survey-html-form","52","690446","0.0-3.0-1.24","99","1","2025-04-11 14:48:42","bb671e3ae32f654b8954ea4c4635f915","","Mozilla/5.0 (Windows NT 10.0; Win64; x64) AppleWebKit/537.36 (KHTML, like Gecko) Chrome/135.0.0.0 Safari/537.36","WebKit","Chrome","135.0.0.0","Windows","10.0","https://hz8g1ckzuq.cognition.run/","en-US,en;q=0.9","cq578fpe104wsfa","54","[""Black or African-American""]","No","Female","1054232.7000000477","8211","","","{""price_1"":""75"",""price_2"":""65"",""price_3"":""50""}","rating","tdc","repulsion_1","2","microwave ovens","null","null","null","null","null","null","1","30","40","25","100","90","100","Warranty","Cooking power","",""
"","","","","","rating_trial_setup","html-keyboard-response","53","690752","0.0-3.0-0.25","99","1","2025-04-11 14:48:42","bb671e3ae32f654b8954ea4c4635f915","","Mozilla/5.0 (Windows NT 10.0; Win64; x64) AppleWebKit/537.36 (KHTML, like Gecko) Chrome/135.0.0.0 Safari/537.36","WebKit","Chrome","135.0.0.0","Windows","10.0","https://hz8g1ckzuq.cognition.run/","en-US,en;q=0.9","cq578fpe104wsfa","54","[""Black or African-American""]","No","Female","1054232.7000000477","null","","<p></p>","null","rating","dtc","attraction_2","2","laptops","null","null","null","null","null","null","2","","","","","","","","","",""
"","","","","","rating_trial","survey-html-form","54","697972","0.0-3.0-1.25","99","1","2025-04-11 14:48:42","bb671e3ae32f654b8954ea4c4635f915","","Mozilla/5.0 (Windows NT 10.0; Win64; x64) AppleWebKit/537.36 (KHTML, like Gecko) Chrome/135.0.0.0 Safari/537.36","WebKit","Chrome","135.0.0.0","Windows","10.0","https://hz8g1ckzuq.cognition.run/","en-US,en;q=0.9","cq578fpe104wsfa","54","[""Black or African-American""]","No","Female","1054232.7000000477","7215","","","{""price_1"":""600"",""price_2"":""400"",""price_3"":""300""}","rating","dtc","attraction_2","2","laptops","null","null","null","null","null","null","2","50","60","40","60","50","60","Processing speed","Memory (RAM)","",""
"","","","","","rating_trial_setup","html-keyboard-response","55","698286","0.0-3.0-0.26","99","1","2025-04-11 14:48:42","bb671e3ae32f654b8954ea4c4635f915","","Mozilla/5.0 (Windows NT 10.0; Win64; x64) AppleWebKit/537.36 (KHTML, like Gecko) Chrome/135.0.0.0 Safari/537.36","WebKit","Chrome","135.0.0.0","Windows","10.0","https://hz8g1ckzuq.cognition.run/","en-US,en;q=0.9","cq578fpe104wsfa","54","[""Black or African-American""]","No","Female","1054232.7000000477","null","","<p></p>","null","rating","dct","attraction_1","1","washing machines","null","null","null","null","null","null","2","","","","","","","","","",""
"","","","","","rating_trial","survey-html-form","56","706982","0.0-3.0-1.26","99","1","2025-04-11 14:48:42","bb671e3ae32f654b8954ea4c4635f915","","Mozilla/5.0 (Windows NT 10.0; Win64; x64) AppleWebKit/537.36 (KHTML, like Gecko) Chrome/135.0.0.0 Safari/537.36","WebKit","Chrome","135.0.0.0","Windows","10.0","https://hz8g1ckzuq.cognition.run/","en-US,en;q=0.9","cq578fpe104wsfa","54","[""Black or African-American""]","No","Female","1054232.7000000477","8692","","","{""price_1"":""800"",""price_2"":""500"",""price_3"":""400""}","rating","dct","attraction_1","1","washing machines","null","null","null","null","null","null","2","60","50","60","50","60","45","Average lifespan","Energy savings","",""
"","","","","","rating_trial_setup","html-keyboard-response","57","707297","0.0-3.0-0.27","99","1","2025-04-11 14:48:42","bb671e3ae32f654b8954ea4c4635f915","","Mozilla/5.0 (Windows NT 10.0; Win64; x64) AppleWebKit/537.36 (KHTML, like Gecko) Chrome/135.0.0.0 Safari/537.36","WebKit","Chrome","135.0.0.0","Windows","10.0","https://hz8g1ckzuq.cognition.run/","en-US,en;q=0.9","cq578fpe104wsfa","54","[""Black or African-American""]","No","Female","1054232.7000000477","null","","<p></p>","null","rating","dct","attraction_2","1","washing machines","null","null","null","null","null","null","2","","","","","","","","","",""
"","","","","","rating_trial","survey-html-form","58","714064","0.0-3.0-1.27","99","1","2025-04-11 14:48:42","bb671e3ae32f654b8954ea4c4635f915","","Mozilla/5.0 (Windows NT 10.0; Win64; x64) AppleWebKit/537.36 (KHTML, like Gecko) Chrome/135.0.0.0 Safari/537.36","WebKit","Chrome","135.0.0.0","Windows","10.0","https://hz8g1ckzuq.cognition.run/","en-US,en;q=0.9","cq578fpe104wsfa","54","[""Black or African-American""]","No","Female","1054232.7000000477","6759","","","{""price_1"":""600"",""price_2"":""400"",""price_3"":""300""}","rating","dct","attraction_2","1","washing machines","null","null","null","null","null","null","2","60","50","60","50","60","40","Average lifespan","Energy savings","",""
"","","","","","rating_trial_setup","html-keyboard-response","59","714373","0.0-3.0-0.28","99","1","2025-04-11 14:48:42","bb671e3ae32f654b8954ea4c4635f915","","Mozilla/5.0 (Windows NT 10.0; Win64; x64) AppleWebKit/537.36 (KHTML, like Gecko) Chrome/135.0.0.0 Safari/537.36","WebKit","Chrome","135.0.0.0","Windows","10.0","https://hz8g1ckzuq.cognition.run/","en-US,en;q=0.9","cq578fpe104wsfa","54","[""Black or African-American""]","No","Female","1054232.7000000477","null","","<p></p>","null","rating","cdt","repulsion_2","1","washing machines","null","null","null","null","null","null","2","","","","","","","","","",""
"","","","","","rating_trial","survey-html-form","60","722741","0.0-3.0-1.28","99","1","2025-04-11 14:48:42","bb671e3ae32f654b8954ea4c4635f915","","Mozilla/5.0 (Windows NT 10.0; Win64; x64) AppleWebKit/537.36 (KHTML, like Gecko) Chrome/135.0.0.0 Safari/537.36","WebKit","Chrome","135.0.0.0","Windows","10.0","https://hz8g1ckzuq.cognition.run/","en-US,en;q=0.9","cq578fpe104wsfa","54","[""Black or African-American""]","No","Female","1054232.7000000477","8359","","","{""price_1"":""800"",""price_2"":""400"",""price_3"":""500""}","rating","cdt","repulsion_2","1","washing machines","null","null","null","null","null","null","2","100","90","100","30","40","20","Average lifespan","Energy savings","",""
"","","","","","rating_trial_setup","html-keyboard-response","61","723054","0.0-3.0-0.29","99","1","2025-04-11 14:48:42","bb671e3ae32f654b8954ea4c4635f915","","Mozilla/5.0 (Windows NT 10.0; Win64; x64) AppleWebKit/537.36 (KHTML, like Gecko) Chrome/135.0.0.0 Safari/537.36","WebKit","Chrome","135.0.0.0","Windows","10.0","https://hz8g1ckzuq.cognition.run/","en-US,en;q=0.9","cq578fpe104wsfa","54","[""Black or African-American""]","No","Female","1054232.7000000477","null","","<p></p>","null","rating","dtc","attraction_1","1","televisions","null","null","null","null","null","null","1","","","","","","","","","",""
"","","","","","rating_trial","survey-html-form","62","730290","0.0-3.0-1.29","99","1","2025-04-11 14:48:42","bb671e3ae32f654b8954ea4c4635f915","","Mozilla/5.0 (Windows NT 10.0; Win64; x64) AppleWebKit/537.36 (KHTML, like Gecko) Chrome/135.0.0.0 Safari/537.36","WebKit","Chrome","135.0.0.0","Windows","10.0","https://hz8g1ckzuq.cognition.run/","en-US,en;q=0.9","cq578fpe104wsfa","54","[""Black or African-American""]","No","Female","1054232.7000000477","7229","","","{""price_1"":""300"",""price_2"":""150"",""price_3"":""200""}","rating","dtc","attraction_1","1","televisions","null","null","null","null","null","null","1","60","50","60","50","60","45","Screen size","Average lifespan","",""
"","","","","","rating_trial_setup","html-keyboard-response","63","730617","0.0-3.0-0.30","99","1","2025-04-11 14:48:42","bb671e3ae32f654b8954ea4c4635f915","","Mozilla/5.0 (Windows NT 10.0; Win64; x64) AppleWebKit/537.36 (KHTML, like Gecko) Chrome/135.0.0.0 Safari/537.36","WebKit","Chrome","135.0.0.0","Windows","10.0","https://hz8g1ckzuq.cognition.run/","en-US,en;q=0.9","cq578fpe104wsfa","54","[""Black or African-American""]","No","Female","1054232.7000000477","null","","<p></p>","null","rating","dct","repulsion_2","2","washing machines","null","null","null","null","null","null","2","","","","","","","","","",""
"","","","","","rating_trial","survey-html-form","64","737848","0.0-3.0-1.30","99","1","2025-04-11 14:48:42","bb671e3ae32f654b8954ea4c4635f915","","Mozilla/5.0 (Windows NT 10.0; Win64; x64) AppleWebKit/537.36 (KHTML, like Gecko) Chrome/135.0.0.0 Safari/537.36","WebKit","Chrome","135.0.0.0","Windows","10.0","https://hz8g1ckzuq.cognition.run/","en-US,en;q=0.9","cq578fpe104wsfa","54","[""Black or African-American""]","No","Female","1054232.7000000477","7221","","","{""price_1"":""800"",""price_2"":""400"",""price_3"":""300""}","rating","dct","repulsion_2","2","washing machines","null","null","null","null","null","null","2","30","40","20","100","90","100","Average lifespan","Energy savings","",""
"","","","","","rating_trial_setup","html-keyboard-response","65","738161","0.0-3.0-0.31","99","1","2025-04-11 14:48:42","bb671e3ae32f654b8954ea4c4635f915","","Mozilla/5.0 (Windows NT 10.0; Win64; x64) AppleWebKit/537.36 (KHTML, like Gecko) Chrome/135.0.0.0 Safari/537.36","WebKit","Chrome","135.0.0.0","Windows","10.0","https://hz8g1ckzuq.cognition.run/","en-US,en;q=0.9","cq578fpe104wsfa","54","[""Black or African-American""]","No","Female","1054232.7000000477","null","","<p></p>","null","rating","dtc","attraction_1","2","laptops","null","null","null","null","null","null","1","","","","","","","","","",""
"","","","","","rating_trial","survey-html-form","66","746944","0.0-3.0-1.31","99","1","2025-04-11 14:48:42","bb671e3ae32f654b8954ea4c4635f915","","Mozilla/5.0 (Windows NT 10.0; Win64; x64) AppleWebKit/537.36 (KHTML, like Gecko) Chrome/135.0.0.0 Safari/537.36","WebKit","Chrome","135.0.0.0","Windows","10.0","https://hz8g1ckzuq.cognition.run/","en-US,en;q=0.9","cq578fpe104wsfa","54","[""Black or African-American""]","No","Female","1054232.7000000477","8774","","","{""price_1"":""500"",""price_2"":""400"",""price_3"":""300""}","rating","dtc","attraction_1","2","laptops","null","null","null","null","null","null","1","50","60","45","60","50","60","Processing speed","Memory (RAM)","",""
"","","","","","rating_trial_setup","html-keyboard-response","67","747257","0.0-3.0-0.32","99","1","2025-04-11 14:48:42","bb671e3ae32f654b8954ea4c4635f915","","Mozilla/5.0 (Windows NT 10.0; Win64; x64) AppleWebKit/537.36 (KHTML, like Gecko) Chrome/135.0.0.0 Safari/537.36","WebKit","Chrome","135.0.0.0","Windows","10.0","https://hz8g1ckzuq.cognition.run/","en-US,en;q=0.9","cq578fpe104wsfa","54","[""Black or African-American""]","No","Female","1054232.7000000477","null","","<p></p>","null","rating","dtc","repulsion_1","1","microwave ovens","null","null","null","null","null","null","1","","","","","","","","","",""
"","","","","","rating_trial","survey-html-form","68","753897","0.0-3.0-1.32","99","1","2025-04-11 14:48:42","bb671e3ae32f654b8954ea4c4635f915","","Mozilla/5.0 (Windows NT 10.0; Win64; x64) AppleWebKit/537.36 (KHTML, like Gecko) Chrome/135.0.0.0 Safari/537.36","WebKit","Chrome","135.0.0.0","Windows","10.0","https://hz8g1ckzuq.cognition.run/","en-US,en;q=0.9","cq578fpe104wsfa","54","[""Black or African-American""]","No","Female","1054232.7000000477","6632","","","{""price_1"":""75"",""price_2"":""60"",""price_3"":""40""}","rating","dtc","repulsion_1","1","microwave ovens","null","null","null","null","null","null","1","100","90","100","30","40","25","Warranty","Cooking power","",""
"","","","","","rating_trial_setup","html-keyboard-response","69","754212","0.0-3.0-0.33","99","1","2025-04-11 14:48:42","bb671e3ae32f654b8954ea4c4635f915","","Mozilla/5.0 (Windows NT 10.0; Win64; x64) AppleWebKit/537.36 (KHTML, like Gecko) Chrome/135.0.0.0 Safari/537.36","WebKit","Chrome","135.0.0.0","Windows","10.0","https://hz8g1ckzuq.cognition.run/","en-US,en;q=0.9","cq578fpe104wsfa","54","[""Black or African-American""]","No","Female","1054232.7000000477","null","","<p></p>","null","rating","ctd","attraction_1","2","televisions","null","null","null","null","null","null","1","","","","","","","","","",""
"","","","","","rating_trial","survey-html-form","70","762019","0.0-3.0-1.33","99","1","2025-04-11 14:48:42","bb671e3ae32f654b8954ea4c4635f915","","Mozilla/5.0 (Windows NT 10.0; Win64; x64) AppleWebKit/537.36 (KHTML, like Gecko) Chrome/135.0.0.0 Safari/537.36","WebKit","Chrome","135.0.0.0","Windows","10.0","https://hz8g1ckzuq.cognition.run/","en-US,en;q=0.9","cq578fpe104wsfa","54","[""Black or African-American""]","No","Female","1054232.7000000477","7799","","","{""price_1"":""300"",""price_2"":""250"",""price_3"":""175""}","rating","ctd","attraction_1","2","televisions","null","null","null","null","null","null","1","50","60","45","60","50","60","Screen size","Average lifespan","",""
"","","","","","rating_trial_setup","html-keyboard-response","71","762340","0.0-3.0-0.34","99","1","2025-04-11 14:48:42","bb671e3ae32f654b8954ea4c4635f915","","Mozilla/5.0 (Windows NT 10.0; Win64; x64) AppleWebKit/537.36 (KHTML, like Gecko) Chrome/135.0.0.0 Safari/537.36","WebKit","Chrome","135.0.0.0","Windows","10.0","https://hz8g1ckzuq.cognition.run/","en-US,en;q=0.9","cq578fpe104wsfa","54","[""Black or African-American""]","No","Female","1054232.7000000477","null","","<p></p>","null","rating","ctd","attraction_2","2","washing machines","null","null","null","null","null","null","2","","","","","","","","","",""
"","","","","","rating_trial","survey-html-form","72","770268","0.0-3.0-1.34","99","1","2025-04-11 14:48:42","bb671e3ae32f654b8954ea4c4635f915","","Mozilla/5.0 (Windows NT 10.0; Win64; x64) AppleWebKit/537.36 (KHTML, like Gecko) Chrome/135.0.0.0 Safari/537.36","WebKit","Chrome","135.0.0.0","Windows","10.0","https://hz8g1ckzuq.cognition.run/","en-US,en;q=0.9","cq578fpe104wsfa","54","[""Black or African-American""]","No","Female","1054232.7000000477","7920","","","{""price_1"":""800"",""price_2"":""600"",""price_3"":""400""}","rating","ctd","attraction_2","2","washing machines","null","null","null","null","null","null","2","50","60","40","60","50","60","Average lifespan","Energy savings","",""
"","","","","","rating_trial_setup","html-keyboard-response","73","770586","0.0-3.0-0.35","99","1","2025-04-11 14:48:42","bb671e3ae32f654b8954ea4c4635f915","","Mozilla/5.0 (Windows NT 10.0; Win64; x64) AppleWebKit/537.36 (KHTML, like Gecko) Chrome/135.0.0.0 Safari/537.36","WebKit","Chrome","135.0.0.0","Windows","10.0","https://hz8g1ckzuq.cognition.run/","en-US,en;q=0.9","cq578fpe104wsfa","54","[""Black or African-American""]","No","Female","1054232.7000000477","null","","<p></p>","null","rating","dct","attraction_1","2","washing machines","null","null","null","null","null","null","2","","","","","","","","","",""
"","","","","","rating_trial","survey-html-form","74","777993","0.0-3.0-1.35","99","1","2025-04-11 14:48:42","bb671e3ae32f654b8954ea4c4635f915","","Mozilla/5.0 (Windows NT 10.0; Win64; x64) AppleWebKit/537.36 (KHTML, like Gecko) Chrome/135.0.0.0 Safari/537.36","WebKit","Chrome","135.0.0.0","Windows","10.0","https://hz8g1ckzuq.cognition.run/","en-US,en;q=0.9","cq578fpe104wsfa","54","[""Black or African-American""]","No","Female","1054232.7000000477","7398","","","{""price_1"":""800"",""price_2"":""700"",""price_3"":""600""}","rating","dct","attraction_1","2","washing machines","null","null","null","null","null","null","2","50","60","45","60","50","60","Average lifespan","Energy savings","",""
"","","","","","rating_trial_setup","html-keyboard-response","75","778312","0.0-3.0-0.36","99","1","2025-04-11 14:48:42","bb671e3ae32f654b8954ea4c4635f915","","Mozilla/5.0 (Windows NT 10.0; Win64; x64) AppleWebKit/537.36 (KHTML, like Gecko) Chrome/135.0.0.0 Safari/537.36","WebKit","Chrome","135.0.0.0","Windows","10.0","https://hz8g1ckzuq.cognition.run/","en-US,en;q=0.9","cq578fpe104wsfa","54","[""Black or African-American""]","No","Female","1054232.7000000477","null","","<p></p>","null","rating","wwb","catch","null","laptops","95","85","30","20","50","45","2","","","","","","","","","",""
"","","","","","rating_trial","survey-html-form","76","789642","0.0-3.0-1.36","99","1","2025-04-11 14:48:42","bb671e3ae32f654b8954ea4c4635f915","","Mozilla/5.0 (Windows NT 10.0; Win64; x64) AppleWebKit/537.36 (KHTML, like Gecko) Chrome/135.0.0.0 Safari/537.36","WebKit","Chrome","135.0.0.0","Windows","10.0","https://hz8g1ckzuq.cognition.run/","en-US,en;q=0.9","cq578fpe104wsfa","54","[""Black or African-American""]","No","Female","1054232.7000000477","11320","","","{""price_1"":""700"",""price_2"":""600"",""price_3"":""500""}","rating","wwb","catch","null","laptops","95","85","30","20","50","45","2","null","null","null","null","null","null","Processing speed","Memory (RAM)","",""
"","","","","","rating_trial_setup","html-keyboard-response","77","789959","0.0-3.0-0.37","99","1","2025-04-11 14:48:42","bb671e3ae32f654b8954ea4c4635f915","","Mozilla/5.0 (Windows NT 10.0; Win64; x64) AppleWebKit/537.36 (KHTML, like Gecko) Chrome/135.0.0.0 Safari/537.36","WebKit","Chrome","135.0.0.0","Windows","10.0","https://hz8g1ckzuq.cognition.run/","en-US,en;q=0.9","cq578fpe104wsfa","54","[""Black or African-American""]","No","Female","1054232.7000000477","null","","<p></p>","null","rating","dtc","attraction_1","2","microwave ovens","null","null","null","null","null","null","1","","","","","","","","","",""
"","","","","","rating_trial","survey-html-form","78","800600","0.0-3.0-1.37","99","1","2025-04-11 14:48:42","bb671e3ae32f654b8954ea4c4635f915","","Mozilla/5.0 (Windows NT 10.0; Win64; x64) AppleWebKit/537.36 (KHTML, like Gecko) Chrome/135.0.0.0 Safari/537.36","WebKit","Chrome","135.0.0.0","Windows","10.0","https://hz8g1ckzuq.cognition.run/","en-US,en;q=0.9","cq578fpe104wsfa","54","[""Black or African-American""]","No","Female","1054232.7000000477","10630","","","{""price_1"":""74"",""price_2"":""60"",""price_3"":""50""}","rating","dtc","attraction_1","2","microwave ovens","null","null","null","null","null","null","1","50","60","45","60","50","60","Warranty","Cooking power","",""
"","","","","","rating_trial_setup","html-keyboard-response","79","800921","0.0-3.0-0.38","99","1","2025-04-11 14:48:42","bb671e3ae32f654b8954ea4c4635f915","","Mozilla/5.0 (Windows NT 10.0; Win64; x64) AppleWebKit/537.36 (KHTML, like Gecko) Chrome/135.0.0.0 Safari/537.36","WebKit","Chrome","135.0.0.0","Windows","10.0","https://hz8g1ckzuq.cognition.run/","en-US,en;q=0.9","cq578fpe104wsfa","54","[""Black or African-American""]","No","Female","1054232.7000000477","null","","<p></p>","null","rating","tdc","repulsion_2","2","laptops","null","null","null","null","null","null","1","","","","","","","","","",""
"","","","","","rating_trial","survey-html-form","80","817228","0.0-3.0-1.38","99","1","2025-04-11 14:48:42","bb671e3ae32f654b8954ea4c4635f915","","Mozilla/5.0 (Windows NT 10.0; Win64; x64) AppleWebKit/537.36 (KHTML, like Gecko) Chrome/135.0.0.0 Safari/537.36","WebKit","Chrome","135.0.0.0","Windows","10.0","https://hz8g1ckzuq.cognition.run/","en-US,en;q=0.9","cq578fpe104wsfa","54","[""Black or African-American""]","No","Female","1054232.7000000477","16298","","","{""price_1"":""600"",""price_2"":""500"",""price_3"":""300""}","rating","tdc","repulsion_2","2","laptops","null","null","null","null","null","null","1","30","40","20","100","90","100","Processing speed","Memory (RAM)","",""
"","","","","","rating_trial_setup","html-keyboard-response","81","817546","0.0-3.0-0.39","99","1","2025-04-11 14:48:42","bb671e3ae32f654b8954ea4c4635f915","","Mozilla/5.0 (Windows NT 10.0; Win64; x64) AppleWebKit/537.36 (KHTML, like Gecko) Chrome/135.0.0.0 Safari/537.36","WebKit","Chrome","135.0.0.0","Windows","10.0","https://hz8g1ckzuq.cognition.run/","en-US,en;q=0.9","cq578fpe104wsfa","54","[""Black or African-American""]","No","Female","1054232.7000000477","null","","<p></p>","null","rating","cdt","repulsion_1","1","washing machines","null","null","null","null","null","null","2","","","","","","","","","",""
"","","","","","rating_trial","survey-html-form","82","835390","0.0-3.0-1.39","99","1","2025-04-11 14:48:42","bb671e3ae32f654b8954ea4c4635f915","","Mozilla/5.0 (Windows NT 10.0; Win64; x64) AppleWebKit/537.36 (KHTML, like Gecko) Chrome/135.0.0.0 Safari/537.36","WebKit","Chrome","135.0.0.0","Windows","10.0","https://hz8g1ckzuq.cognition.run/","en-US,en;q=0.9","cq578fpe104wsfa","54","[""Black or African-American""]","No","Female","1054232.7000000477","17832","","","{""price_1"":""600"",""price_2"":""800"",""price_3"":""700""}","rating","cdt","repulsion_1","1","washing machines","null","null","null","null","null","null","2","100","90","100","30","40","25","Average lifespan","Energy savings","",""
"","","","","","","instructions","83","932509","0.0-4.0","99","1","2025-04-11 14:48:42","bb671e3ae32f654b8954ea4c4635f915","","Mozilla/5.0 (Windows NT 10.0; Win64; x64) AppleWebKit/537.36 (KHTML, like Gecko) Chrome/135.0.0.0 Safari/537.36","WebKit","Chrome","135.0.0.0","Windows","10.0","https://hz8g1ckzuq.cognition.run/","en-US,en;q=0.9","cq578fpe104wsfa","54","[""Black or African-American""]","No","Female","1054232.7000000477","97109","[{""page_index"":0,""viewing_time"":2548},{""page_index"":1,""viewing_time"":13929},{""page_index"":2,""viewing_time"":2695},{""page_index"":3,""viewing_time"":7341},{""page_index"":4,""viewing_time"":18318},{""page_index"":5,""viewing_time"":1411},{""page_index"":6,""viewing_time"":47473},{""page_index"":7,""viewing_time"":3394}]","","","","","","","","","","","","","","","","","","","","","","","",""
"","","","","","choice_trial_setup","html-keyboard-response","84","932829","0.0-5.0-0.0","99","1","2025-04-11 14:48:42","bb671e3ae32f654b8954ea4c4635f915","","Mozilla/5.0 (Windows NT 10.0; Win64; x64) AppleWebKit/537.36 (KHTML, like Gecko) Chrome/135.0.0.0 Safari/537.36","WebKit","Chrome","135.0.0.0","Windows","10.0","https://hz8g1ckzuq.cognition.run/","en-US,en;q=0.9","cq578fpe104wsfa","54","[""Black or African-American""]","No","Female","1054232.7000000477","null","","<p></p>","null","choice","dtc","attraction_1","1","microwave ovens","null","null","null","null","null","null","2","","","","","","","","","",""
"","","","","","choice_trial","survey-html-form","85","935268","0.0-5.0-1.0","99","1","2025-04-11 14:48:42","bb671e3ae32f654b8954ea4c4635f915","","Mozilla/5.0 (Windows NT 10.0; Win64; x64) AppleWebKit/537.36 (KHTML, like Gecko) Chrome/135.0.0.0 Safari/537.36","WebKit","Chrome","135.0.0.0","Windows","10.0","https://hz8g1ckzuq.cognition.run/","en-US,en;q=0.9","cq578fpe104wsfa","54","[""Black or African-American""]","No","Female","1054232.7000000477","2428","","","{""product_choice"":""B""}","choice","dtc","attraction_1","1","microwave ovens","null","null","null","null","null","null","2","60","50","60","50","60","45","Warranty","Cooking power","",""
"","","","","","choice_trial_setup","html-keyboard-response","86","935590","0.0-5.0-0.1","99","1","2025-04-11 14:48:42","bb671e3ae32f654b8954ea4c4635f915","","Mozilla/5.0 (Windows NT 10.0; Win64; x64) AppleWebKit/537.36 (KHTML, like Gecko) Chrome/135.0.0.0 Safari/537.36","WebKit","Chrome","135.0.0.0","Windows","10.0","https://hz8g1ckzuq.cognition.run/","en-US,en;q=0.9","cq578fpe104wsfa","54","[""Black or African-American""]","No","Female","1054232.7000000477","null","","<p></p>","null","choice","wbw","catch","null","microwave ovens","90","65","35","10","10","10","2","","","","","","","","","",""
"","","","","","choice_trial","survey-html-form","87","937815","0.0-5.0-1.1","99","1","2025-04-11 14:48:42","bb671e3ae32f654b8954ea4c4635f915","","Mozilla/5.0 (Windows NT 10.0; Win64; x64) AppleWebKit/537.36 (KHTML, like Gecko) Chrome/135.0.0.0 Safari/537.36","WebKit","Chrome","135.0.0.0","Windows","10.0","https://hz8g1ckzuq.cognition.run/","en-US,en;q=0.9","cq578fpe104wsfa","54","[""Black or African-American""]","No","Female","1054232.7000000477","2214","","","{""product_choice"":""A""}","choice","wbw","catch","null","microwave ovens","90","65","35","10","10","10","2","null","null","null","null","null","null","Warranty","Cooking power","",""
"","","","","","choice_trial_setup","html-keyboard-response","88","938132","0.0-5.0-0.2","99","1","2025-04-11 14:48:42","bb671e3ae32f654b8954ea4c4635f915","","Mozilla/5.0 (Windows NT 10.0; Win64; x64) AppleWebKit/537.36 (KHTML, like Gecko) Chrome/135.0.0.0 Safari/537.36","WebKit","Chrome","135.0.0.0","Windows","10.0","https://hz8g1ckzuq.cognition.run/","en-US,en;q=0.9","cq578fpe104wsfa","54","[""Black or African-American""]","No","Female","1054232.7000000477","null","","<p></p>","null","choice","dtc","attraction_2","2","laptops","null","null","null","null","null","null","2","","","","","","","","","",""
"","","","","","choice_trial","survey-html-form","89","940066","0.0-5.0-1.2","99","1","2025-04-11 14:48:42","bb671e3ae32f654b8954ea4c4635f915","","Mozilla/5.0 (Windows NT 10.0; Win64; x64) AppleWebKit/537.36 (KHTML, like Gecko) Chrome/135.0.0.0 Safari/537.36","WebKit","Chrome","135.0.0.0","Windows","10.0","https://hz8g1ckzuq.cognition.run/","en-US,en;q=0.9","cq578fpe104wsfa","54","[""Black or African-American""]","No","Female","1054232.7000000477","1924","","","{""product_choice"":""B""}","choice","dtc","attraction_2","2","laptops","null","null","null","null","null","null","2","50","60","40","60","50","60","Processing speed","Memory (RAM)","",""
"","","","","","choice_trial_setup","html-keyboard-response","90","940379","0.0-5.0-0.3","99","1","2025-04-11 14:48:42","bb671e3ae32f654b8954ea4c4635f915","","Mozilla/5.0 (Windows NT 10.0; Win64; x64) AppleWebKit/537.36 (KHTML, like Gecko) Chrome/135.0.0.0 Safari/537.36","WebKit","Chrome","135.0.0.0","Windows","10.0","https://hz8g1ckzuq.cognition.run/","en-US,en;q=0.9","cq578fpe104wsfa","54","[""Black or African-American""]","No","Female","1054232.7000000477","null","","<p></p>","null","choice","dtc","repulsion_1","2","televisions","null","null","null","null","null","null","1","","","","","","","","","",""
"","","","","","choice_trial","survey-html-form","91","942134","0.0-5.0-1.3","99","1","2025-04-11 14:48:42","bb671e3ae32f654b8954ea4c4635f915","","Mozilla/5.0 (Windows NT 10.0; Win64; x64) AppleWebKit/537.36 (KHTML, like Gecko) Chrome/135.0.0.0 Safari/537.36","WebKit","Chrome","135.0.0.0","Windows","10.0","https://hz8g1ckzuq.cognition.run/","en-US,en;q=0.9","cq578fpe104wsfa","54","[""Black or African-American""]","No","Female","1054232.7000000477","1745","","","{""product_choice"":""B""}","choice","dtc","repulsion_1","2","televisions","null","null","null","null","null","null","1","30","40","25","100","90","100","Screen size","Average lifespan","",""
"","","","","","choice_trial_setup","html-keyboard-response","92","942443","0.0-5.0-0.4","99","1","2025-04-11 14:48:42","bb671e3ae32f654b8954ea4c4635f915","","Mozilla/5.0 (Windows NT 10.0; Win64; x64) AppleWebKit/537.36 (KHTML, like Gecko) Chrome/135.0.0.0 Safari/537.36","WebKit","Chrome","135.0.0.0","Windows","10.0","https://hz8g1ckzuq.cognition.run/","en-US,en;q=0.9","cq578fpe104wsfa","54","[""Black or African-American""]","No","Female","1054232.7000000477","null","","<p></p>","null","choice","tdc","attraction_1","2","televisions","null","null","null","null","null","null","1","","","","","","","","","",""
"","","","","","choice_trial","survey-html-form","93","944015","0.0-5.0-1.4","99","1","2025-04-11 14:48:42","bb671e3ae32f654b8954ea4c4635f915","","Mozilla/5.0 (Windows NT 10.0; Win64; x64) AppleWebKit/537.36 (KHTML, like Gecko) Chrome/135.0.0.0 Safari/537.36","WebKit","Chrome","135.0.0.0","Windows","10.0","https://hz8g1ckzuq.cognition.run/","en-US,en;q=0.9","cq578fpe104wsfa","54","[""Black or African-American""]","No","Female","1054232.7000000477","1561","","","{""product_choice"":""B""}","choice","tdc","attraction_1","2","televisions","null","null","null","null","null","null","1","50","60","45","60","50","60","Screen size","Average lifespan","",""
"","","","","","choice_trial_setup","html-keyboard-response","94","944333","0.0-5.0-0.5","99","1","2025-04-11 14:48:42","bb671e3ae32f654b8954ea4c4635f915","","Mozilla/5.0 (Windows NT 10.0; Win64; x64) AppleWebKit/537.36 (KHTML, like Gecko) Chrome/135.0.0.0 Safari/537.36","WebKit","Chrome","135.0.0.0","Windows","10.0","https://hz8g1ckzuq.cognition.run/","en-US,en;q=0.9","cq578fpe104wsfa","54","[""Black or African-American""]","No","Female","1054232.7000000477","null","","<p></p>","null","choice","bww","catch","null","televisions","50","80","35","40","30","25","2","","","","","","","","","",""
"","","","","","choice_trial","survey-html-form","95","946181","0.0-5.0-1.5","99","1","2025-04-11 14:48:42","bb671e3ae32f654b8954ea4c4635f915","","Mozilla/5.0 (Windows NT 10.0; Win64; x64) AppleWebKit/537.36 (KHTML, like Gecko) Chrome/135.0.0.0 Safari/537.36","WebKit","Chrome","135.0.0.0","Windows","10.0","https://hz8g1ckzuq.cognition.run/","en-US,en;q=0.9","cq578fpe104wsfa","54","[""Black or African-American""]","No","Female","1054232.7000000477","1837","","","{""product_choice"":""A""}","choice","bww","catch","null","televisions","50","80","35","40","30","25","2","null","null","null","null","null","null","Screen size","Average lifespan","",""
"","","","","","choice_trial_setup","html-keyboard-response","96","946494","0.0-5.0-0.6","99","1","2025-04-11 14:48:42","bb671e3ae32f654b8954ea4c4635f915","","Mozilla/5.0 (Windows NT 10.0; Win64; x64) AppleWebKit/537.36 (KHTML, like Gecko) Chrome/135.0.0.0 Safari/537.36","WebKit","Chrome","135.0.0.0","Windows","10.0","https://hz8g1ckzuq.cognition.run/","en-US,en;q=0.9","cq578fpe104wsfa","54","[""Black or African-American""]","No","Female","1054232.7000000477","null","","<p></p>","null","choice","ctd","repulsion_2","2","televisions","null","null","null","null","null","null","1","","","","","","","","","",""
"","","","","","choice_trial","survey-html-form","97","947984","0.0-5.0-1.6","99","1","2025-04-11 14:48:42","bb671e3ae32f654b8954ea4c4635f915","","Mozilla/5.0 (Windows NT 10.0; Win64; x64) AppleWebKit/537.36 (KHTML, like Gecko) Chrome/135.0.0.0 Safari/537.36","WebKit","Chrome","135.0.0.0","Windows","10.0","https://hz8g1ckzuq.cognition.run/","en-US,en;q=0.9","cq578fpe104wsfa","54","[""Black or African-American""]","No","Female","1054232.7000000477","1479","","","{""product_choice"":""C""}","choice","ctd","repulsion_2","2","televisions","null","null","null","null","null","null","1","30","40","20","100","90","100","Screen size","Average lifespan","",""
"","","","","","choice_trial_setup","html-keyboard-response","98","948297","0.0-5.0-0.7","99","1","2025-04-11 14:48:42","bb671e3ae32f654b8954ea4c4635f915","","Mozilla/5.0 (Windows NT 10.0; Win64; x64) AppleWebKit/537.36 (KHTML, like Gecko) Chrome/135.0.0.0 Safari/537.36","WebKit","Chrome","135.0.0.0","Windows","10.0","https://hz8g1ckzuq.cognition.run/","en-US,en;q=0.9","cq578fpe104wsfa","54","[""Black or African-American""]","No","Female","1054232.7000000477","null","","<p></p>","null","choice","ctd","attraction_2","2","washing machines","null","null","null","null","null","null","2","","","","","","","","","",""
"","","","","","choice_trial","survey-html-form","99","951126","0.0-5.0-1.7","99","1","2025-04-11 14:48:42","bb671e3ae32f654b8954ea4c4635f915","","Mozilla/5.0 (Windows NT 10.0; Win64; x64) AppleWebKit/537.36 (KHTML, like Gecko) Chrome/135.0.0.0 Safari/537.36","WebKit","Chrome","135.0.0.0","Windows","10.0","https://hz8g1ckzuq.cognition.run/","en-US,en;q=0.9","cq578fpe104wsfa","54","[""Black or African-American""]","No","Female","1054232.7000000477","2817","","","{""product_choice"":""B""}","choice","ctd","attraction_2","2","washing machines","null","null","null","null","null","null","2","50","60","40","60","50","60","Average lifespan","Energy savings","",""
"","","","","","choice_trial_setup","html-keyboard-response","100","951448","0.0-5.0-0.8","99","1","2025-04-11 14:48:42","bb671e3ae32f654b8954ea4c4635f915","","Mozilla/5.0 (Windows NT 10.0; Win64; x64) AppleWebKit/537.36 (KHTML, like Gecko) Chrome/135.0.0.0 Safari/537.36","WebKit","Chrome","135.0.0.0","Windows","10.0","https://hz8g1ckzuq.cognition.run/","en-US,en;q=0.9","cq578fpe104wsfa","54","[""Black or African-American""]","No","Female","1054232.7000000477","null","","<p></p>","null","choice","wbw","catch","null","microwave ovens","50","80","40","30","5","35","2","","","","","","","","","",""
"","","","","","choice_trial","survey-html-form","101","953705","0.0-5.0-1.8","99","1","2025-04-11 14:48:42","bb671e3ae32f654b8954ea4c4635f915","","Mozilla/5.0 (Windows NT 10.0; Win64; x64) AppleWebKit/537.36 (KHTML, like Gecko) Chrome/135.0.0.0 Safari/537.36","WebKit","Chrome","135.0.0.0","Windows","10.0","https://hz8g1ckzuq.cognition.run/","en-US,en;q=0.9","cq578fpe104wsfa","54","[""Black or African-American""]","No","Female","1054232.7000000477","2247","","","{""product_choice"":""B""}","choice","wbw","catch","null","microwave ovens","50","80","40","30","5","35","2","null","null","null","null","null","null","Warranty","Cooking power","",""
"","","","","","choice_trial_setup","html-keyboard-response","102","954023","0.0-5.0-0.9","99","1","2025-04-11 14:48:42","bb671e3ae32f654b8954ea4c4635f915","","Mozilla/5.0 (Windows NT 10.0; Win64; x64) AppleWebKit/537.36 (KHTML, like Gecko) Chrome/135.0.0.0 Safari/537.36","WebKit","Chrome","135.0.0.0","Windows","10.0","https://hz8g1ckzuq.cognition.run/","en-US,en;q=0.9","cq578fpe104wsfa","54","[""Black or African-American""]","No","Female","1054232.7000000477","null","","<p></p>","null","choice","tdc","repulsion_2","1","washing machines","null","null","null","null","null","null","2","","","","","","","","","",""
"","","","","","choice_trial","survey-html-form","103","955600","0.0-5.0-1.9","99","1","2025-04-11 14:48:42","bb671e3ae32f654b8954ea4c4635f915","","Mozilla/5.0 (Windows NT 10.0; Win64; x64) AppleWebKit/537.36 (KHTML, like Gecko) Chrome/135.0.0.0 Safari/537.36","WebKit","Chrome","135.0.0.0","Windows","10.0","https://hz8g1ckzuq.cognition.run/","en-US,en;q=0.9","cq578fpe104wsfa","54","[""Black or African-American""]","No","Female","1054232.7000000477","1566","","","{""product_choice"":""B""}","choice","tdc","repulsion_2","1","washing machines","null","null","null","null","null","null","2","100","90","100","30","40","20","Average lifespan","Energy savings","",""
"","","","","","choice_trial_setup","html-keyboard-response","104","955912","0.0-5.0-0.10","99","1","2025-04-11 14:48:42","bb671e3ae32f654b8954ea4c4635f915","","Mozilla/5.0 (Windows NT 10.0; Win64; x64) AppleWebKit/537.36 (KHTML, like Gecko) Chrome/135.0.0.0 Safari/537.36","WebKit","Chrome","135.0.0.0","Windows","10.0","https://hz8g1ckzuq.cognition.run/","en-US,en;q=0.9","cq578fpe104wsfa","54","[""Black or African-American""]","No","Female","1054232.7000000477","null","","<p></p>","null","choice","ctd","attraction_1","1","laptops","null","null","null","null","null","null","2","","","","","","","","","",""
"","","","","","choice_trial","survey-html-form","105","957676","0.0-5.0-1.10","99","1","2025-04-11 14:48:42","bb671e3ae32f654b8954ea4c4635f915","","Mozilla/5.0 (Windows NT 10.0; Win64; x64) AppleWebKit/537.36 (KHTML, like Gecko) Chrome/135.0.0.0 Safari/537.36","WebKit","Chrome","135.0.0.0","Windows","10.0","https://hz8g1ckzuq.cognition.run/","en-US,en;q=0.9","cq578fpe104wsfa","54","[""Black or African-American""]","No","Female","1054232.7000000477","1753","","","{""product_choice"":""B""}","choice","ctd","attraction_1","1","laptops","null","null","null","null","null","null","2","60","50","60","50","60","45","Processing speed","Memory (RAM)","",""
"","","","","","choice_trial_setup","html-keyboard-response","106","957989","0.0-5.0-0.11","99","1","2025-04-11 14:48:42","bb671e3ae32f654b8954ea4c4635f915","","Mozilla/5.0 (Windows NT 10.0; Win64; x64) AppleWebKit/537.36 (KHTML, like Gecko) Chrome/135.0.0.0 Safari/537.36","WebKit","Chrome","135.0.0.0","Windows","10.0","https://hz8g1ckzuq.cognition.run/","en-US,en;q=0.9","cq578fpe104wsfa","54","[""Black or African-American""]","No","Female","1054232.7000000477","null","","<p></p>","null","choice","dct","repulsion_1","2","washing machines","null","null","null","null","null","null","2","","","","","","","","","",""
"","","","","","choice_trial","survey-html-form","107","959652","0.0-5.0-1.11","99","1","2025-04-11 14:48:42","bb671e3ae32f654b8954ea4c4635f915","","Mozilla/5.0 (Windows NT 10.0; Win64; x64) AppleWebKit/537.36 (KHTML, like Gecko) Chrome/135.0.0.0 Safari/537.36","WebKit","Chrome","135.0.0.0","Windows","10.0","https://hz8g1ckzuq.cognition.run/","en-US,en;q=0.9","cq578fpe104wsfa","54","[""Black or African-American""]","No","Female","1054232.7000000477","1652","","","{""product_choice"":""A""}","choice","dct","repulsion_1","2","washing machines","null","null","null","null","null","null","2","30","40","25","100","90","100","Average lifespan","Energy savings","",""
"","","","","","choice_trial_setup","html-keyboard-response","108","959967","0.0-5.0-0.12","99","1","2025-04-11 14:48:42","bb671e3ae32f654b8954ea4c4635f915","","Mozilla/5.0 (Windows NT 10.0; Win64; x64) AppleWebKit/537.36 (KHTML, like Gecko) Chrome/135.0.0.0 Safari/537.36","WebKit","Chrome","135.0.0.0","Windows","10.0","https://hz8g1ckzuq.cognition.run/","en-US,en;q=0.9","cq578fpe104wsfa","54","[""Black or African-American""]","No","Female","1054232.7000000477","null","","<p></p>","null","choice","ctd","attraction_2","2","microwave ovens","null","null","null","null","null","null","1","","","","","","","","","",""
"","","","","","choice_trial","survey-html-form","109","961531","0.0-5.0-1.12","99","1","2025-04-11 14:48:42","bb671e3ae32f654b8954ea4c4635f915","","Mozilla/5.0 (Windows NT 10.0; Win64; x64) AppleWebKit/537.36 (KHTML, like Gecko) Chrome/135.0.0.0 Safari/537.36","WebKit","Chrome","135.0.0.0","Windows","10.0","https://hz8g1ckzuq.cognition.run/","en-US,en;q=0.9","cq578fpe104wsfa","54","[""Black or African-American""]","No","Female","1054232.7000000477","1554","","","{""product_choice"":""B""}","choice","ctd","attraction_2","2","microwave ovens","null","null","null","null","null","null","1","50","60","40","60","50","60","Warranty","Cooking power","",""
"","","","","","choice_trial_setup","html-keyboard-response","110","961843","0.0-5.0-0.13","99","1","2025-04-11 14:48:42","bb671e3ae32f654b8954ea4c4635f915","","Mozilla/5.0 (Windows NT 10.0; Win64; x64) AppleWebKit/537.36 (KHTML, like Gecko) Chrome/135.0.0.0 Safari/537.36","WebKit","Chrome","135.0.0.0","Windows","10.0","https://hz8g1ckzuq.cognition.run/","en-US,en;q=0.9","cq578fpe104wsfa","54","[""Black or African-American""]","No","Female","1054232.7000000477","null","","<p></p>","null","choice","tcd","repulsion_2","2","laptops","null","null","null","null","null","null","1","","","","","","","","","",""
"","","","","","choice_trial","survey-html-form","111","963891","0.0-5.0-1.13","99","1","2025-04-11 14:48:42","bb671e3ae32f654b8954ea4c4635f915","","Mozilla/5.0 (Windows NT 10.0; Win64; x64) AppleWebKit/537.36 (KHTML, like Gecko) Chrome/135.0.0.0 Safari/537.36","WebKit","Chrome","135.0.0.0","Windows","10.0","https://hz8g1ckzuq.cognition.run/","en-US,en;q=0.9","cq578fpe104wsfa","54","[""Black or African-American""]","No","Female","1054232.7000000477","2037","","","{""product_choice"":""B""}","choice","tcd","repulsion_2","2","laptops","null","null","null","null","null","null","1","30","40","20","100","90","100","Processing speed","Memory (RAM)","",""
"","","","","","choice_trial_setup","html-keyboard-response","112","964208","0.0-5.0-0.14","99","1","2025-04-11 14:48:42","bb671e3ae32f654b8954ea4c4635f915","","Mozilla/5.0 (Windows NT 10.0; Win64; x64) AppleWebKit/537.36 (KHTML, like Gecko) Chrome/135.0.0.0 Safari/537.36","WebKit","Chrome","135.0.0.0","Windows","10.0","https://hz8g1ckzuq.cognition.run/","en-US,en;q=0.9","cq578fpe104wsfa","54","[""Black or African-American""]","No","Female","1054232.7000000477","null","","<p></p>","null","choice","ctd","attraction_2","2","televisions","null","null","null","null","null","null","2","","","","","","","","","",""
"","","","","","choice_trial","survey-html-form","113","966018","0.0-5.0-1.14","99","1","2025-04-11 14:48:42","bb671e3ae32f654b8954ea4c4635f915","","Mozilla/5.0 (Windows NT 10.0; Win64; x64) AppleWebKit/537.36 (KHTML, like Gecko) Chrome/135.0.0.0 Safari/537.36","WebKit","Chrome","135.0.0.0","Windows","10.0","https://hz8g1ckzuq.cognition.run/","en-US,en;q=0.9","cq578fpe104wsfa","54","[""Black or African-American""]","No","Female","1054232.7000000477","1799","","","{""product_choice"":""B""}","choice","ctd","attraction_2","2","televisions","null","null","null","null","null","null","2","50","60","40","60","50","60","Screen size","Average lifespan","",""
"","","","","","choice_trial_setup","html-keyboard-response","114","966329","0.0-5.0-0.15","99","1","2025-04-11 14:48:42","bb671e3ae32f654b8954ea4c4635f915","","Mozilla/5.0 (Windows NT 10.0; Win64; x64) AppleWebKit/537.36 (KHTML, like Gecko) Chrome/135.0.0.0 Safari/537.36","WebKit","Chrome","135.0.0.0","Windows","10.0","https://hz8g1ckzuq.cognition.run/","en-US,en;q=0.9","cq578fpe104wsfa","54","[""Black or African-American""]","No","Female","1054232.7000000477","null","","<p></p>","null","choice","dtc","repulsion_1","2","microwave ovens","null","null","null","null","null","null","1","","","","","","","","","",""
"","","","","","choice_trial","survey-html-form","115","968044","0.0-5.0-1.15","99","1","2025-04-11 14:48:42","bb671e3ae32f654b8954ea4c4635f915","","Mozilla/5.0 (Windows NT 10.0; Win64; x64) AppleWebKit/537.36 (KHTML, like Gecko) Chrome/135.0.0.0 Safari/537.36","WebKit","Chrome","135.0.0.0","Windows","10.0","https://hz8g1ckzuq.cognition.run/","en-US,en;q=0.9","cq578fpe104wsfa","54","[""Black or African-American""]","No","Female","1054232.7000000477","1704","","","{""product_choice"":""B""}","choice","dtc","repulsion_1","2","microwave ovens","null","null","null","null","null","null","1","30","40","25","100","90","100","Warranty","Cooking power","",""
"","","","","","choice_trial_setup","html-keyboard-response","116","968358","0.0-5.0-0.16","99","1","2025-04-11 14:48:42","bb671e3ae32f654b8954ea4c4635f915","","Mozilla/5.0 (Windows NT 10.0; Win64; x64) AppleWebKit/537.36 (KHTML, like Gecko) Chrome/135.0.0.0 Safari/537.36","WebKit","Chrome","135.0.0.0","Windows","10.0","https://hz8g1ckzuq.cognition.run/","en-US,en;q=0.9","cq578fpe104wsfa","54","[""Black or African-American""]","No","Female","1054232.7000000477","null","","<p></p>","null","choice","tdc","attraction_1","2","microwave ovens","null","null","null","null","null","null","1","","","","","","","","","",""
"","","","","","choice_trial","survey-html-form","117","970025","0.0-5.0-1.16","99","1","2025-04-11 14:48:42","bb671e3ae32f654b8954ea4c4635f915","","Mozilla/5.0 (Windows NT 10.0; Win64; x64) AppleWebKit/537.36 (KHTML, like Gecko) Chrome/135.0.0.0 Safari/537.36","WebKit","Chrome","135.0.0.0","Windows","10.0","https://hz8g1ckzuq.cognition.run/","en-US,en;q=0.9","cq578fpe104wsfa","54","[""Black or African-American""]","No","Female","1054232.7000000477","1655","","","{""product_choice"":""B""}","choice","tdc","attraction_1","2","microwave ovens","null","null","null","null","null","null","1","50","60","45","60","50","60","Warranty","Cooking power","",""
"","","","","","choice_trial_setup","html-keyboard-response","118","970337","0.0-5.0-0.17","99","1","2025-04-11 14:48:42","bb671e3ae32f654b8954ea4c4635f915","","Mozilla/5.0 (Windows NT 10.0; Win64; x64) AppleWebKit/537.36 (KHTML, like Gecko) Chrome/135.0.0.0 Safari/537.36","WebKit","Chrome","135.0.0.0","Windows","10.0","https://hz8g1ckzuq.cognition.run/","en-US,en;q=0.9","cq578fpe104wsfa","54","[""Black or African-American""]","No","Female","1054232.7000000477","null","","<p></p>","null","choice","ctd","attraction_1","1","washing machines","null","null","null","null","null","null","1","","","","","","","","","",""
"","","","","","choice_trial","survey-html-form","119","971809","0.0-5.0-1.17","99","1","2025-04-11 14:48:42","bb671e3ae32f654b8954ea4c4635f915","","Mozilla/5.0 (Windows NT 10.0; Win64; x64) AppleWebKit/537.36 (KHTML, like Gecko) Chrome/135.0.0.0 Safari/537.36","WebKit","Chrome","135.0.0.0","Windows","10.0","https://hz8g1ckzuq.cognition.run/","en-US,en;q=0.9","cq578fpe104wsfa","54","[""Black or African-American""]","No","Female","1054232.7000000477","1460","","","{""product_choice"":""B""}","choice","ctd","attraction_1","1","washing machines","null","null","null","null","null","null","1","60","50","60","50","60","45","Average lifespan","Energy savings","",""
"","","","","","choice_trial_setup","html-keyboard-response","120","972127","0.0-5.0-0.18","99","1","2025-04-11 14:48:42","bb671e3ae32f654b8954ea4c4635f915","","Mozilla/5.0 (Windows NT 10.0; Win64; x64) AppleWebKit/537.36 (KHTML, like Gecko) Chrome/135.0.0.0 Safari/537.36","WebKit","Chrome","135.0.0.0","Windows","10.0","https://hz8g1ckzuq.cognition.run/","en-US,en;q=0.9","cq578fpe104wsfa","54","[""Black or African-American""]","No","Female","1054232.7000000477","null","","<p></p>","null","choice","tcd","repulsion_2","1","laptops","null","null","null","null","null","null","1","","","","","","","","","",""
"","","","","","choice_trial","survey-html-form","121","975103","0.0-5.0-1.18","99","1","2025-04-11 14:48:42","bb671e3ae32f654b8954ea4c4635f915","","Mozilla/5.0 (Windows NT 10.0; Win64; x64) AppleWebKit/537.36 (KHTML, like Gecko) Chrome/135.0.0.0 Safari/537.36","WebKit","Chrome","135.0.0.0","Windows","10.0","https://hz8g1ckzuq.cognition.run/","en-US,en;q=0.9","cq578fpe104wsfa","54","[""Black or African-American""]","No","Female","1054232.7000000477","2963","","","{""product_choice"":""B""}","choice","tcd","repulsion_2","1","laptops","null","null","null","null","null","null","1","100","90","100","30","40","20","Processing speed","Memory (RAM)","",""
"","","","","","choice_trial_setup","html-keyboard-response","122","975414","0.0-5.0-0.19","99","1","2025-04-11 14:48:42","bb671e3ae32f654b8954ea4c4635f915","","Mozilla/5.0 (Windows NT 10.0; Win64; x64) AppleWebKit/537.36 (KHTML, like Gecko) Chrome/135.0.0.0 Safari/537.36","WebKit","Chrome","135.0.0.0","Windows","10.0","https://hz8g1ckzuq.cognition.run/","en-US,en;q=0.9","cq578fpe104wsfa","54","[""Black or African-American""]","No","Female","1054232.7000000477","null","","<p></p>","null","choice","dct","repulsion_2","2","microwave ovens","null","null","null","null","null","null","1","","","","","","","","","",""
"","","","","","choice_trial","survey-html-form","123","977317","0.0-5.0-1.19","99","1","2025-04-11 14:48:42","bb671e3ae32f654b8954ea4c4635f915","","Mozilla/5.0 (Windows NT 10.0; Win64; x64) AppleWebKit/537.36 (KHTML, like Gecko) Chrome/135.0.0.0 Safari/537.36","WebKit","Chrome","135.0.0.0","Windows","10.0","https://hz8g1ckzuq.cognition.run/","en-US,en;q=0.9","cq578fpe104wsfa","54","[""Black or African-American""]","No","Female","1054232.7000000477","1887","","","{""product_choice"":""B""}","choice","dct","repulsion_2","2","microwave ovens","null","null","null","null","null","null","1","30","40","20","100","90","100","Warranty","Cooking power","",""
"","","","","","choice_trial_setup","html-keyboard-response","124","977643","0.0-5.0-0.20","99","1","2025-04-11 14:48:42","bb671e3ae32f654b8954ea4c4635f915","","Mozilla/5.0 (Windows NT 10.0; Win64; x64) AppleWebKit/537.36 (KHTML, like Gecko) Chrome/135.0.0.0 Safari/537.36","WebKit","Chrome","135.0.0.0","Windows","10.0","https://hz8g1ckzuq.cognition.run/","en-US,en;q=0.9","cq578fpe104wsfa","54","[""Black or African-American""]","No","Female","1054232.7000000477","null","","<p></p>","null","choice","ctd","repulsion_1","1","microwave ovens","null","null","null","null","null","null","1","","","","","","","","","",""
"","","","","","choice_trial","survey-html-form","125","979183","0.0-5.0-1.20","99","1","2025-04-11 14:48:42","bb671e3ae32f654b8954ea4c4635f915","","Mozilla/5.0 (Windows NT 10.0; Win64; x64) AppleWebKit/537.36 (KHTML, like Gecko) Chrome/135.0.0.0 Safari/537.36","WebKit","Chrome","135.0.0.0","Windows","10.0","https://hz8g1ckzuq.cognition.run/","en-US,en;q=0.9","cq578fpe104wsfa","54","[""Black or African-American""]","No","Female","1054232.7000000477","1528","","","{""product_choice"":""B""}","choice","ctd","repulsion_1","1","microwave ovens","null","null","null","null","null","null","1","100","90","100","30","40","25","Warranty","Cooking power","",""
"","","","","","choice_trial_setup","html-keyboard-response","126","979496","0.0-5.0-0.21","99","1","2025-04-11 14:48:42","bb671e3ae32f654b8954ea4c4635f915","","Mozilla/5.0 (Windows NT 10.0; Win64; x64) AppleWebKit/537.36 (KHTML, like Gecko) Chrome/135.0.0.0 Safari/537.36","WebKit","Chrome","135.0.0.0","Windows","10.0","https://hz8g1ckzuq.cognition.run/","en-US,en;q=0.9","cq578fpe104wsfa","54","[""Black or African-American""]","No","Female","1054232.7000000477","null","","<p></p>","null","choice","dtc","attraction_1","2","washing machines","null","null","null","null","null","null","1","","","","","","","","","",""
"","","","","","choice_trial","survey-html-form","127","980992","0.0-5.0-1.21","99","1","2025-04-11 14:48:42","bb671e3ae32f654b8954ea4c4635f915","","Mozilla/5.0 (Windows NT 10.0; Win64; x64) AppleWebKit/537.36 (KHTML, like Gecko) Chrome/135.0.0.0 Safari/537.36","WebKit","Chrome","135.0.0.0","Windows","10.0","https://hz8g1ckzuq.cognition.run/","en-US,en;q=0.9","cq578fpe104wsfa","54","[""Black or African-American""]","No","Female","1054232.7000000477","1479","","","{""product_choice"":""B""}","choice","dtc","attraction_1","2","washing machines","null","null","null","null","null","null","1","50","60","45","60","50","60","Average lifespan","Energy savings","",""
"","","","","","choice_trial_setup","html-keyboard-response","128","981309","0.0-5.0-0.22","99","1","2025-04-11 14:48:42","bb671e3ae32f654b8954ea4c4635f915","","Mozilla/5.0 (Windows NT 10.0; Win64; x64) AppleWebKit/537.36 (KHTML, like Gecko) Chrome/135.0.0.0 Safari/537.36","WebKit","Chrome","135.0.0.0","Windows","10.0","https://hz8g1ckzuq.cognition.run/","en-US,en;q=0.9","cq578fpe104wsfa","54","[""Black or African-American""]","No","Female","1054232.7000000477","null","","<p></p>","null","choice","cdt","repulsion_1","1","laptops","null","null","null","null","null","null","2","","","","","","","","","",""
"","","","","","choice_trial","survey-html-form","129","982715","0.0-5.0-1.22","99","1","2025-04-11 14:48:42","bb671e3ae32f654b8954ea4c4635f915","","Mozilla/5.0 (Windows NT 10.0; Win64; x64) AppleWebKit/537.36 (KHTML, like Gecko) Chrome/135.0.0.0 Safari/537.36","WebKit","Chrome","135.0.0.0","Windows","10.0","https://hz8g1ckzuq.cognition.run/","en-US,en;q=0.9","cq578fpe104wsfa","54","[""Black or African-American""]","No","Female","1054232.7000000477","1393","","","{""product_choice"":""C""}","choice","cdt","repulsion_1","1","laptops","null","null","null","null","null","null","2","100","90","100","30","40","25","Processing speed","Memory (RAM)","",""
"","","","","","choice_trial_setup","html-keyboard-response","130","983032","0.0-5.0-0.23","99","1","2025-04-11 14:48:42","bb671e3ae32f654b8954ea4c4635f915","","Mozilla/5.0 (Windows NT 10.0; Win64; x64) AppleWebKit/537.36 (KHTML, like Gecko) Chrome/135.0.0.0 Safari/537.36","WebKit","Chrome","135.0.0.0","Windows","10.0","https://hz8g1ckzuq.cognition.run/","en-US,en;q=0.9","cq578fpe104wsfa","54","[""Black or African-American""]","No","Female","1054232.7000000477","null","","<p></p>","null","choice","ctd","repulsion_2","2","washing machines","null","null","null","null","null","null","2","","","","","","","","","",""
"","","","","","choice_trial","survey-html-form","131","986158","0.0-5.0-1.23","99","1","2025-04-11 14:48:42","bb671e3ae32f654b8954ea4c4635f915","","Mozilla/5.0 (Windows NT 10.0; Win64; x64) AppleWebKit/537.36 (KHTML, like Gecko) Chrome/135.0.0.0 Safari/537.36","WebKit","Chrome","135.0.0.0","Windows","10.0","https://hz8g1ckzuq.cognition.run/","en-US,en;q=0.9","cq578fpe104wsfa","54","[""Black or African-American""]","No","Female","1054232.7000000477","3115","","","{""product_choice"":""C""}","choice","ctd","repulsion_2","2","washing machines","null","null","null","null","null","null","2","30","40","20","100","90","100","Average lifespan","Energy savings","",""
"","","","","","choice_trial_setup","html-keyboard-response","132","986480","0.0-5.0-0.24","99","1","2025-04-11 14:48:42","bb671e3ae32f654b8954ea4c4635f915","","Mozilla/5.0 (Windows NT 10.0; Win64; x64) AppleWebKit/537.36 (KHTML, like Gecko) Chrome/135.0.0.0 Safari/537.36","WebKit","Chrome","135.0.0.0","Windows","10.0","https://hz8g1ckzuq.cognition.run/","en-US,en;q=0.9","cq578fpe104wsfa","54","[""Black or African-American""]","No","Female","1054232.7000000477","null","","<p></p>","null","choice","bww","catch","null","televisions","50","90","10","40","5","45","2","","","","","","","","","",""
"","","","","","choice_trial","survey-html-form","133","988747","0.0-5.0-1.24","99","1","2025-04-11 14:48:42","bb671e3ae32f654b8954ea4c4635f915","","Mozilla/5.0 (Windows NT 10.0; Win64; x64) AppleWebKit/537.36 (KHTML, like Gecko) Chrome/135.0.0.0 Safari/537.36","WebKit","Chrome","135.0.0.0","Windows","10.0","https://hz8g1ckzuq.cognition.run/","en-US,en;q=0.9","cq578fpe104wsfa","54","[""Black or African-American""]","No","Female","1054232.7000000477","2252","","","{""product_choice"":""C""}","choice","bww","catch","null","televisions","50","90","10","40","5","45","2","null","null","null","null","null","null","Screen size","Average lifespan","",""
"","","","","","choice_trial_setup","html-keyboard-response","134","989063","0.0-5.0-0.25","99","1","2025-04-11 14:48:42","bb671e3ae32f654b8954ea4c4635f915","","Mozilla/5.0 (Windows NT 10.0; Win64; x64) AppleWebKit/537.36 (KHTML, like Gecko) Chrome/135.0.0.0 Safari/537.36","WebKit","Chrome","135.0.0.0","Windows","10.0","https://hz8g1ckzuq.cognition.run/","en-US,en;q=0.9","cq578fpe104wsfa","54","[""Black or African-American""]","No","Female","1054232.7000000477","null","","<p></p>","null","choice","cdt","attraction_2","1","microwave ovens","null","null","null","null","null","null","2","","","","","","","","","",""
"","","","","","choice_trial","survey-html-form","135","991026","0.0-5.0-1.25","99","1","2025-04-11 14:48:42","bb671e3ae32f654b8954ea4c4635f915","","Mozilla/5.0 (Windows NT 10.0; Win64; x64) AppleWebKit/537.36 (KHTML, like Gecko) Chrome/135.0.0.0 Safari/537.36","WebKit","Chrome","135.0.0.0","Windows","10.0","https://hz8g1ckzuq.cognition.run/","en-US,en;q=0.9","cq578fpe104wsfa","54","[""Black or African-American""]","No","Female","1054232.7000000477","1949","","","{""product_choice"":""C""}","choice","cdt","attraction_2","1","microwave ovens","null","null","null","null","null","null","2","60","50","60","50","60","40","Warranty","Cooking power","",""
"","","","","","choice_trial_setup","html-keyboard-response","136","991336","0.0-5.0-0.26","99","1","2025-04-11 14:48:42","bb671e3ae32f654b8954ea4c4635f915","","Mozilla/5.0 (Windows NT 10.0; Win64; x64) AppleWebKit/537.36 (KHTML, like Gecko) Chrome/135.0.0.0 Safari/537.36","WebKit","Chrome","135.0.0.0","Windows","10.0","https://hz8g1ckzuq.cognition.run/","en-US,en;q=0.9","cq578fpe104wsfa","54","[""Black or African-American""]","No","Female","1054232.7000000477","null","","<p></p>","null","choice","tcd","attraction_2","1","laptops","null","null","null","null","null","null","2","","","","","","","","","",""
"","","","","","choice_trial","survey-html-form","137","993876","0.0-5.0-1.26","99","1","2025-04-11 14:48:42","bb671e3ae32f654b8954ea4c4635f915","","Mozilla/5.0 (Windows NT 10.0; Win64; x64) AppleWebKit/537.36 (KHTML, like Gecko) Chrome/135.0.0.0 Safari/537.36","WebKit","Chrome","135.0.0.0","Windows","10.0","https://hz8g1ckzuq.cognition.run/","en-US,en;q=0.9","cq578fpe104wsfa","54","[""Black or African-American""]","No","Female","1054232.7000000477","2533","","","{""product_choice"":""A""}","choice","tcd","attraction_2","1","laptops","null","null","null","null","null","null","2","60","50","60","50","60","40","Processing speed","Memory (RAM)","",""
"","","","","","choice_trial_setup","html-keyboard-response","138","994195","0.0-5.0-0.27","99","1","2025-04-11 14:48:42","bb671e3ae32f654b8954ea4c4635f915","","Mozilla/5.0 (Windows NT 10.0; Win64; x64) AppleWebKit/537.36 (KHTML, like Gecko) Chrome/135.0.0.0 Safari/537.36","WebKit","Chrome","135.0.0.0","Windows","10.0","https://hz8g1ckzuq.cognition.run/","en-US,en;q=0.9","cq578fpe104wsfa","54","[""Black or African-American""]","No","Female","1054232.7000000477","null","","<p></p>","null","choice","wwb","catch","null","washing machines","80","55","40","5","20","15","1","","","","","","","","","",""
"","","","","","choice_trial","survey-html-form","139","995968","0.0-5.0-1.27","99","1","2025-04-11 14:48:42","bb671e3ae32f654b8954ea4c4635f915","","Mozilla/5.0 (Windows NT 10.0; Win64; x64) AppleWebKit/537.36 (KHTML, like Gecko) Chrome/135.0.0.0 Safari/537.36","WebKit","Chrome","135.0.0.0","Windows","10.0","https://hz8g1ckzuq.cognition.run/","en-US,en;q=0.9","cq578fpe104wsfa","54","[""Black or African-American""]","No","Female","1054232.7000000477","1758","","","{""product_choice"":""B""}","choice","wwb","catch","null","washing machines","80","55","40","5","20","15","1","null","null","null","null","null","null","Average lifespan","Energy savings","",""
"","","","","","choice_trial_setup","html-keyboard-response","140","996282","0.0-5.0-0.28","99","1","2025-04-11 14:48:42","bb671e3ae32f654b8954ea4c4635f915","","Mozilla/5.0 (Windows NT 10.0; Win64; x64) AppleWebKit/537.36 (KHTML, like Gecko) Chrome/135.0.0.0 Safari/537.36","WebKit","Chrome","135.0.0.0","Windows","10.0","https://hz8g1ckzuq.cognition.run/","en-US,en;q=0.9","cq578fpe104wsfa","54","[""Black or African-American""]","No","Female","1054232.7000000477","null","","<p></p>","null","choice","dct","attraction_1","2","laptops","null","null","null","null","null","null","1","","","","","","","","","",""
"","","","","","choice_trial","survey-html-form","141","998705","0.0-5.0-1.28","99","1","2025-04-11 14:48:42","bb671e3ae32f654b8954ea4c4635f915","","Mozilla/5.0 (Windows NT 10.0; Win64; x64) AppleWebKit/537.36 (KHTML, like Gecko) Chrome/135.0.0.0 Safari/537.36","WebKit","Chrome","135.0.0.0","Windows","10.0","https://hz8g1ckzuq.cognition.run/","en-US,en;q=0.9","cq578fpe104wsfa","54","[""Black or African-American""]","No","Female","1054232.7000000477","2409","","","{""product_choice"":""B""}","choice","dct","attraction_1","2","laptops","null","null","null","null","null","null","1","50","60","45","60","50","60","Processing speed","Memory (RAM)","",""
"","","","","","choice_trial_setup","html-keyboard-response","142","999026","0.0-5.0-0.29","99","1","2025-04-11 14:48:42","bb671e3ae32f654b8954ea4c4635f915","","Mozilla/5.0 (Windows NT 10.0; Win64; x64) AppleWebKit/537.36 (KHTML, like Gecko) Chrome/135.0.0.0 Safari/537.36","WebKit","Chrome","135.0.0.0","Windows","10.0","https://hz8g1ckzuq.cognition.run/","en-US,en;q=0.9","cq578fpe104wsfa","54","[""Black or African-American""]","No","Female","1054232.7000000477","null","","<p></p>","null","choice","tcd","attraction_2","1","televisions","null","null","null","null","null","null","2","","","","","","","","","",""
"","","","","","choice_trial","survey-html-form","143","1000897","0.0-5.0-1.29","99","1","2025-04-11 14:48:42","bb671e3ae32f654b8954ea4c4635f915","","Mozilla/5.0 (Windows NT 10.0; Win64; x64) AppleWebKit/537.36 (KHTML, like Gecko) Chrome/135.0.0.0 Safari/537.36","WebKit","Chrome","135.0.0.0","Windows","10.0","https://hz8g1ckzuq.cognition.run/","en-US,en;q=0.9","cq578fpe104wsfa","54","[""Black or African-American""]","No","Female","1054232.7000000477","1855","","","{""product_choice"":""B""}","choice","tcd","attraction_2","1","televisions","null","null","null","null","null","null","2","60","50","60","50","60","40","Screen size","Average lifespan","",""
"","","","","","choice_trial_setup","html-keyboard-response","144","1001215","0.0-5.0-0.30","99","1","2025-04-11 14:48:42","bb671e3ae32f654b8954ea4c4635f915","","Mozilla/5.0 (Windows NT 10.0; Win64; x64) AppleWebKit/537.36 (KHTML, like Gecko) Chrome/135.0.0.0 Safari/537.36","WebKit","Chrome","135.0.0.0","Windows","10.0","https://hz8g1ckzuq.cognition.run/","en-US,en;q=0.9","cq578fpe104wsfa","54","[""Black or African-American""]","No","Female","1054232.7000000477","null","","<p></p>","null","choice","wbw","catch","null","laptops","50","95","10","35","5","25","1","","","","","","","","","",""
"","","","","","choice_trial","survey-html-form","145","1003116","0.0-5.0-1.30","99","1","2025-04-11 14:48:42","bb671e3ae32f654b8954ea4c4635f915","","Mozilla/5.0 (Windows NT 10.0; Win64; x64) AppleWebKit/537.36 (KHTML, like Gecko) Chrome/135.0.0.0 Safari/537.36","WebKit","Chrome","135.0.0.0","Windows","10.0","https://hz8g1ckzuq.cognition.run/","en-US,en;q=0.9","cq578fpe104wsfa","54","[""Black or African-American""]","No","Female","1054232.7000000477","1887","","","{""product_choice"":""B""}","choice","wbw","catch","null","laptops","50","95","10","35","5","25","1","null","null","null","null","null","null","Processing speed","Memory (RAM)","",""
"","","","","","choice_trial_setup","html-keyboard-response","146","1003432","0.0-5.0-0.31","99","1","2025-04-11 14:48:42","bb671e3ae32f654b8954ea4c4635f915","","Mozilla/5.0 (Windows NT 10.0; Win64; x64) AppleWebKit/537.36 (KHTML, like Gecko) Chrome/135.0.0.0 Safari/537.36","WebKit","Chrome","135.0.0.0","Windows","10.0","https://hz8g1ckzuq.cognition.run/","en-US,en;q=0.9","cq578fpe104wsfa","54","[""Black or African-American""]","No","Female","1054232.7000000477","null","","<p></p>","null","choice","tdc","attraction_1","1","televisions","null","null","null","null","null","null","2","","","","","","","","","",""
"","","","","","choice_trial","survey-html-form","147","1005292","0.0-5.0-1.31","99","1","2025-04-11 14:48:42","bb671e3ae32f654b8954ea4c4635f915","","Mozilla/5.0 (Windows NT 10.0; Win64; x64) AppleWebKit/537.36 (KHTML, like Gecko) Chrome/135.0.0.0 Safari/537.36","WebKit","Chrome","135.0.0.0","Windows","10.0","https://hz8g1ckzuq.cognition.run/","en-US,en;q=0.9","cq578fpe104wsfa","54","[""Black or African-American""]","No","Female","1054232.7000000477","1846","","","{""product_choice"":""B""}","choice","tdc","attraction_1","1","televisions","null","null","null","null","null","null","2","60","50","60","50","60","45","Screen size","Average lifespan","",""
"","","","","","choice_trial_setup","html-keyboard-response","148","1005609","0.0-5.0-0.32","99","1","2025-04-11 14:48:42","bb671e3ae32f654b8954ea4c4635f915","","Mozilla/5.0 (Windows NT 10.0; Win64; x64) AppleWebKit/537.36 (KHTML, like Gecko) Chrome/135.0.0.0 Safari/537.36","WebKit","Chrome","135.0.0.0","Windows","10.0","https://hz8g1ckzuq.cognition.run/","en-US,en;q=0.9","cq578fpe104wsfa","54","[""Black or African-American""]","No","Female","1054232.7000000477","null","","<p></p>","null","choice","cdt","repulsion_1","1","washing machines","null","null","null","null","null","null","2","","","","","","","","","",""
"","","","","","choice_trial","survey-html-form","149","1007631","0.0-5.0-1.32","99","1","2025-04-11 14:48:42","bb671e3ae32f654b8954ea4c4635f915","","Mozilla/5.0 (Windows NT 10.0; Win64; x64) AppleWebKit/537.36 (KHTML, like Gecko) Chrome/135.0.0.0 Safari/537.36","WebKit","Chrome","135.0.0.0","Windows","10.0","https://hz8g1ckzuq.cognition.run/","en-US,en;q=0.9","cq578fpe104wsfa","54","[""Black or African-American""]","No","Female","1054232.7000000477","2008","","","{""product_choice"":""B""}","choice","cdt","repulsion_1","1","washing machines","null","null","null","null","null","null","2","100","90","100","30","40","25","Average lifespan","Energy savings","",""
"","","","","","choice_trial_setup","html-keyboard-response","150","1007950","0.0-5.0-0.33","99","1","2025-04-11 14:48:42","bb671e3ae32f654b8954ea4c4635f915","","Mozilla/5.0 (Windows NT 10.0; Win64; x64) AppleWebKit/537.36 (KHTML, like Gecko) Chrome/135.0.0.0 Safari/537.36","WebKit","Chrome","135.0.0.0","Windows","10.0","https://hz8g1ckzuq.cognition.run/","en-US,en;q=0.9","cq578fpe104wsfa","54","[""Black or African-American""]","No","Female","1054232.7000000477","null","","<p></p>","null","choice","dtc","repulsion_1","2","laptops","null","null","null","null","null","null","2","","","","","","","","","",""
"","","","","","choice_trial","survey-html-form","151","1010337","0.0-5.0-1.33","99","1","2025-04-11 14:48:42","bb671e3ae32f654b8954ea4c4635f915","","Mozilla/5.0 (Windows NT 10.0; Win64; x64) AppleWebKit/537.36 (KHTML, like Gecko) Chrome/135.0.0.0 Safari/537.36","WebKit","Chrome","135.0.0.0","Windows","10.0","https://hz8g1ckzuq.cognition.run/","en-US,en;q=0.9","cq578fpe104wsfa","54","[""Black or African-American""]","No","Female","1054232.7000000477","2372","","","{""product_choice"":""C""}","choice","dtc","repulsion_1","2","laptops","null","null","null","null","null","null","2","30","40","25","100","90","100","Processing speed","Memory (RAM)","",""
"","","","","","choice_trial_setup","html-keyboard-response","152","1010656","0.0-5.0-0.34","99","1","2025-04-11 14:48:42","bb671e3ae32f654b8954ea4c4635f915","","Mozilla/5.0 (Windows NT 10.0; Win64; x64) AppleWebKit/537.36 (KHTML, like Gecko) Chrome/135.0.0.0 Safari/537.36","WebKit","Chrome","135.0.0.0","Windows","10.0","https://hz8g1ckzuq.cognition.run/","en-US,en;q=0.9","cq578fpe104wsfa","54","[""Black or African-American""]","No","Female","1054232.7000000477","null","","<p></p>","null","choice","ctd","repulsion_1","1","televisions","null","null","null","null","null","null","1","","","","","","","","","",""
