screen_id,trial_index,participant,gender,exp_duration,rt,response,phase,order,effect,t_high,category,d1_best,d2_best,d1_worst1,d2_worst1,d1_worst2,d2_worst2,first_dim,d1_t,d2_t,d1_c,d2_c,d1_d,d2_d,d1_name,d2_name,choice
choice_trial,85,1,Male,1977162.2999999821,6.536,A,choice,ctd,attraction_1,2,laptops,NA,NA,NA,NA,NA,NA,1,50,60,60,50,45,60,Processing speed,Memory (RAM),c
choice_trial,87,1,Male,1977162.2999999821,4.468,B,choice,wbw,catch,NA,televisions,85,75,35,15,10,40,2,NA,NA,NA,NA,NA,NA,Screen size,Average lifespan,b
choice_trial,89,1,Male,1977162.2999999821,4.96,B,choice,tcd,repulsion_1,1,televisions,NA,NA,NA,NA,NA,NA,1,100,30,90,40,100,25,Screen size,Average lifespan,c
choice_trial,91,1,Male,1977162.2999999821,4.193,B,choice,wbw,catch,NA,laptops,70,65,5,30,5,50,2,NA,NA,NA,NA,NA,NA,Processing speed,Memory (RAM),b
choice_trial,93,1,Male,1977162.2999999821,5.075,B,choice,ctd,attraction_1,2,televisions,NA,NA,NA,NA,NA,NA,2,50,60,60,50,45,60,Screen size,Average lifespan,t
choice_trial,95,1,Male,1977162.2999999821,5.977,C,choice,tdc,repulsion_2,2,microwave ovens,NA,NA,NA,NA,NA,NA,1,30,100,40,90,20,100,Warranty,Cooking power,c
choice_trial,97,1,Male,1977162.2999999821,4.727,C,choice,dtc,repulsion_2,2,televisions,NA,NA,NA,NA,NA,NA,2,30,100,40,90,20,100,Screen size,Average lifespan,c
choice_trial,99,1,Male,1977162.2999999821,4.259,A,choice,bww,catch,NA,microwave ovens,85,65,40,25,10,50,1,NA,NA,NA,NA,NA,NA,Warranty,Cooking power,b
choice_trial,101,1,Male,1977162.2999999821,5.813,A,choice,ctd,repulsion_2,1,microwave ovens,NA,NA,NA,NA,NA,NA,1,100,30,90,40,100,20,Warranty,Cooking power,c
choice_trial,103,1,Male,1977162.2999999821,6.665,B,choice,dtc,attraction_1,1,laptops,NA,NA,NA,NA,NA,NA,2,60,50,50,60,60,45,Processing speed,Memory (RAM),t
choice_trial,105,1,Male,1977162.2999999821,4.896,A,choice,ctd,repulsion_1,2,microwave ovens,NA,NA,NA,NA,NA,NA,1,30,100,40,90,25,100,Warranty,Cooking power,c
choice_trial,107,1,Male,1977162.2999999821,5.066,C,choice,dtc,attraction_1,2,washing machines,NA,NA,NA,NA,NA,NA,1,50,60,60,50,45,60,Average lifespan,Energy savings,c
choice_trial,109,1,Male,1977162.2999999821,6.114,B,choice,tcd,repulsion_1,1,laptops,NA,NA,NA,NA,NA,NA,2,100,30,90,40,100,25,Processing speed,Memory (RAM),c
choice_trial,111,1,Male,1977162.2999999821,8.002,C,choice,tdc,repulsion_1,2,laptops,NA,NA,NA,NA,NA,NA,1,30,100,40,90,25,100,Processing speed,Memory (RAM),c
choice_trial,113,1,Male,1977162.2999999821,4.478,A,choice,bww,catch,NA,laptops,95,50,30,35,30,5,2,NA,NA,NA,NA,NA,NA,Processing speed,Memory (RAM),b
choice_trial,115,1,Male,1977162.2999999821,7.474,C,choice,cdt,attraction_2,1,laptops,NA,NA,NA,NA,NA,NA,1,60,50,50,60,60,40,Processing speed,Memory (RAM),t
choice_trial,117,1,Male,1977162.2999999821,4.532,B,choice,tcd,repulsion_2,1,televisions,NA,NA,NA,NA,NA,NA,2,100,30,90,40,100,20,Screen size,Average lifespan,c
choice_trial,119,1,Male,1977162.2999999821,3.316,C,choice,wwb,catch,NA,washing machines,75,55,25,20,20,20,2,NA,NA,NA,NA,NA,NA,Average lifespan,Energy savings,b
choice_trial,121,1,Male,1977162.2999999821,7.007,B,choice,dct,attraction_2,1,microwave ovens,NA,NA,NA,NA,NA,NA,1,60,50,50,60,60,40,Warranty,Cooking power,c
choice_trial,123,1,Male,1977162.2999999821,5.416,C,choice,tdc,repulsion_2,2,washing machines,NA,NA,NA,NA,NA,NA,1,30,100,40,90,20,100,Average lifespan,Energy savings,c
choice_trial,125,1,Male,1977162.2999999821,4.512,C,choice,tdc,attraction_2,1,televisions,NA,NA,NA,NA,NA,NA,2,60,50,50,60,60,40,Screen size,Average lifespan,c
choice_trial,127,1,Male,1977162.2999999821,4.695,B,choice,tcd,repulsion_1,2,washing machines,NA,NA,NA,NA,NA,NA,1,30,100,40,90,25,100,Average lifespan,Energy savings,c
choice_trial,129,1,Male,1977162.2999999821,5.041,B,choice,tcd,attraction_1,2,microwave ovens,NA,NA,NA,NA,NA,NA,1,50,60,60,50,45,60,Warranty,Cooking power,c
choice_trial,131,1,Male,1977162.2999999821,3.743,A,choice,bww,catch,NA,microwave ovens,85,70,20,45,35,25,2,NA,NA,NA,NA,NA,NA,Warranty,Cooking power,b
choice_trial,133,1,Male,1977162.2999999821,179.832,B,choice,dct,repulsion_2,2,laptops,NA,NA,NA,NA,NA,NA,2,30,100,40,90,20,100,Processing speed,Memory (RAM),c
choice_trial,135,1,Male,1977162.2999999821,4.983,A,choice,ctd,attraction_2,2,laptops,NA,NA,NA,NA,NA,NA,2,50,60,60,50,40,60,Processing speed,Memory (RAM),c
choice_trial,137,1,Male,1977162.2999999821,5.811,B,choice,tcd,repulsion_1,1,washing machines,NA,NA,NA,NA,NA,NA,2,100,30,90,40,100,25,Average lifespan,Energy savings,c
choice_trial,139,1,Male,1977162.2999999821,4.075,A,choice,bww,catch,NA,washing machines,75,75,10,25,30,30,1,NA,NA,NA,NA,NA,NA,Average lifespan,Energy savings,b
choice_trial,141,1,Male,1977162.2999999821,9.109,B,choice,tcd,repulsion_2,1,washing machines,NA,NA,NA,NA,NA,NA,1,100,30,90,40,100,20,Average lifespan,Energy savings,c
choice_trial,143,1,Male,1977162.2999999821,7.229,A,choice,tdc,attraction_1,1,microwave ovens,NA,NA,NA,NA,NA,NA,1,60,50,50,60,60,45,Warranty,Cooking power,t
choice_trial,145,1,Male,1977162.2999999821,8.771,B,choice,dtc,attraction_2,1,washing machines,NA,NA,NA,NA,NA,NA,2,60,50,50,60,60,40,Average lifespan,Energy savings,t
choice_trial,147,1,Male,1977162.2999999821,12.157,A,choice,ctd,attraction_2,2,microwave ovens,NA,NA,NA,NA,NA,NA,2,50,60,60,50,40,60,Warranty,Cooking power,c
choice_trial,149,1,Male,1977162.2999999821,3.982,A,choice,bww,catch,NA,televisions,50,80,5,10,10,30,1,NA,NA,NA,NA,NA,NA,Screen size,Average lifespan,b
choice_trial,151,1,Male,1977162.2999999821,10.699,A,choice,cdt,attraction_1,1,televisions,NA,NA,NA,NA,NA,NA,1,60,50,50,60,60,45,Screen size,Average lifespan,c
choice_trial,153,1,Male,1977162.2999999821,8.391,A,choice,cdt,repulsion_1,2,televisions,NA,NA,NA,NA,NA,NA,2,30,100,40,90,25,100,Screen size,Average lifespan,c
choice_trial,155,1,Male,1977162.2999999821,14.565,C,choice,cdt,attraction_1,1,washing machines,NA,NA,NA,NA,NA,NA,1,60,50,50,60,60,45,Average lifespan,Energy savings,t
choice_trial,157,1,Male,1977162.2999999821,5.69,C,choice,dtc,repulsion_2,1,laptops,NA,NA,NA,NA,NA,NA,1,100,30,90,40,100,20,Processing speed,Memory (RAM),c
choice_trial,159,1,Male,1977162.2999999821,5.692,C,choice,dtc,attraction_2,2,washing machines,NA,NA,NA,NA,NA,NA,1,50,60,60,50,40,60,Average lifespan,Energy savings,c
choice_trial,161,1,Male,1977162.2999999821,6.035,B,choice,tcd,repulsion_1,1,microwave ovens,NA,NA,NA,NA,NA,NA,1,100,30,90,40,100,25,Warranty,Cooking power,c
choice_trial,163,1,Male,1977162.2999999821,9.577,C,choice,cdt,attraction_2,2,televisions,NA,NA,NA,NA,NA,NA,1,50,60,60,50,40,60,Screen size,Average lifespan,t
choice_trial,85,100,Female,880259.7999997139,7.034,B,choice,wbw,catch,NA,televisions,70,80,20,30,25,5,2,NA,NA,NA,NA,NA,NA,Screen size,Average lifespan,b
choice_trial,87,100,Female,880259.7999997139,3.428,A,choice,bww,catch,NA,laptops,60,85,40,35,30,15,1,NA,NA,NA,NA,NA,NA,Processing speed,Memory (RAM),b
choice_trial,89,100,Female,880259.7999997139,3.142,C,choice,dct,attraction_1,1,laptops,NA,NA,NA,NA,NA,NA,1,60,50,50,60,60,45,Processing speed,Memory (RAM),t
choice_trial,91,100,Female,880259.7999997139,2.916,B,choice,wbw,catch,NA,laptops,80,70,25,50,50,10,1,NA,NA,NA,NA,NA,NA,Processing speed,Memory (RAM),b
choice_trial,93,100,Female,880259.7999997139,2.998,B,choice,tcd,attraction_1,1,washing machines,NA,NA,NA,NA,NA,NA,2,60,50,50,60,60,45,Average lifespan,Energy savings,c
choice_trial,95,100,Female,880259.7999997139,3.298,C,choice,dtc,repulsion_1,2,microwave ovens,NA,NA,NA,NA,NA,NA,1,30,100,40,90,25,100,Warranty,Cooking power,c
choice_trial,97,100,Female,880259.7999997139,6.124,C,choice,tdc,repulsion_1,1,microwave ovens,NA,NA,NA,NA,NA,NA,1,100,30,90,40,100,25,Warranty,Cooking power,c
choice_trial,99,100,Female,880259.7999997139,3.837,C,choice,dtc,repulsion_1,2,televisions,NA,NA,NA,NA,NA,NA,1,30,100,40,90,25,100,Screen size,Average lifespan,c
choice_trial,101,100,Female,880259.7999997139,2.966,C,choice,tdc,repulsion_1,2,washing machines,NA,NA,NA,NA,NA,NA,1,30,100,40,90,25,100,Average lifespan,Energy savings,c
choice_trial,103,100,Female,880259.7999997139,2.487,A,choice,tcd,repulsion_1,2,laptops,NA,NA,NA,NA,NA,NA,2,30,100,40,90,25,100,Processing speed,Memory (RAM),t
choice_trial,105,100,Female,880259.7999997139,1.973,A,choice,bww,catch,NA,washing machines,95,55,45,35,15,25,1,NA,NA,NA,NA,NA,NA,Average lifespan,Energy savings,b
choice_trial,107,100,Female,880259.7999997139,10.44,B,choice,dct,attraction_1,2,televisions,NA,NA,NA,NA,NA,NA,1,50,60,60,50,45,60,Screen size,Average lifespan,c
choice_trial,109,100,Female,880259.7999997139,1.981,A,choice,bww,catch,NA,microwave ovens,80,50,30,40,25,5,2,NA,NA,NA,NA,NA,NA,Warranty,Cooking power,b
choice_trial,111,100,Female,880259.7999997139,1.857,A,choice,tcd,attraction_2,1,laptops,NA,NA,NA,NA,NA,NA,1,60,50,50,60,60,40,Processing speed,Memory (RAM),t
choice_trial,113,100,Female,880259.7999997139,2.164,B,choice,tdc,attraction_2,2,microwave ovens,NA,NA,NA,NA,NA,NA,2,50,60,60,50,40,60,Warranty,Cooking power,d
choice_trial,115,100,Female,880259.7999997139,1.88,B,choice,dct,attraction_1,1,televisions,NA,NA,NA,NA,NA,NA,2,60,50,50,60,60,45,Screen size,Average lifespan,c
choice_trial,117,100,Female,880259.7999997139,1.883,B,choice,tcd,repulsion_2,2,microwave ovens,NA,NA,NA,NA,NA,NA,1,30,100,40,90,20,100,Warranty,Cooking power,c
choice_trial,119,100,Female,880259.7999997139,2.849,B,choice,ctd,repulsion_2,2,televisions,NA,NA,NA,NA,NA,NA,2,30,100,40,90,20,100,Screen size,Average lifespan,t
choice_trial,121,100,Female,880259.7999997139,3.107,C,choice,dtc,repulsion_2,1,washing machines,NA,NA,NA,NA,NA,NA,2,100,30,90,40,100,20,Average lifespan,Energy savings,c
choice_trial,123,100,Female,880259.7999997139,1.657,B,choice,tcd,repulsion_1,1,laptops,NA,NA,NA,NA,NA,NA,2,100,30,90,40,100,25,Processing speed,Memory (RAM),c
choice_trial,125,100,Female,880259.7999997139,4.523,B,choice,dct,attraction_1,2,microwave ovens,NA,NA,NA,NA,NA,NA,1,50,60,60,50,45,60,Warranty,Cooking power,c
choice_trial,127,100,Female,880259.7999997139,1.531,B,choice,wbw,catch,NA,microwave ovens,70,85,45,45,25,15,2,NA,NA,NA,NA,NA,NA,Warranty,Cooking power,b
choice_trial,129,100,Female,880259.7999997139,2.655,C,choice,dtc,repulsion_1,1,televisions,NA,NA,NA,NA,NA,NA,2,100,30,90,40,100,25,Screen size,Average lifespan,c
choice_trial,131,100,Female,880259.7999997139,2.67,B,choice,ctd,attraction_2,2,televisions,NA,NA,NA,NA,NA,NA,2,50,60,60,50,40,60,Screen size,Average lifespan,t
choice_trial,133,100,Female,880259.7999997139,1.319,B,choice,wbw,catch,NA,washing machines,70,80,10,40,50,10,2,NA,NA,NA,NA,NA,NA,Average lifespan,Energy savings,b
choice_trial,135,100,Female,880259.7999997139,1.891,A,choice,tcd,attraction_1,2,laptops,NA,NA,NA,NA,NA,NA,2,50,60,60,50,45,60,Processing speed,Memory (RAM),t
choice_trial,137,100,Female,880259.7999997139,1.787,C,choice,cdt,attraction_2,1,microwave ovens,NA,NA,NA,NA,NA,NA,1,60,50,50,60,60,40,Warranty,Cooking power,t
choice_trial,139,100,Female,880259.7999997139,2.366,A,choice,tdc,repulsion_2,1,televisions,NA,NA,NA,NA,NA,NA,1,100,30,90,40,100,20,Screen size,Average lifespan,t
choice_trial,141,100,Female,880259.7999997139,2.163,C,choice,cdt,attraction_1,2,washing machines,NA,NA,NA,NA,NA,NA,2,50,60,60,50,45,60,Average lifespan,Energy savings,t
choice_trial,143,100,Female,880259.7999997139,2.108,A,choice,tcd,repulsion_1,1,washing machines,NA,NA,NA,NA,NA,NA,1,100,30,90,40,100,25,Average lifespan,Energy savings,t
choice_trial,145,100,Female,880259.7999997139,2.12,C,choice,tcd,attraction_2,1,televisions,NA,NA,NA,NA,NA,NA,1,60,50,50,60,60,40,Screen size,Average lifespan,d
choice_trial,147,100,Female,880259.7999997139,1.761,C,choice,tdc,attraction_2,1,washing machines,NA,NA,NA,NA,NA,NA,2,60,50,50,60,60,40,Average lifespan,Energy savings,c
choice_trial,149,100,Female,880259.7999997139,2.116,A,choice,bww,catch,NA,televisions,80,75,30,40,40,20,1,NA,NA,NA,NA,NA,NA,Screen size,Average lifespan,b
choice_trial,151,100,Female,880259.7999997139,2.5,C,choice,cdt,attraction_2,2,washing machines,NA,NA,NA,NA,NA,NA,2,50,60,60,50,40,60,Average lifespan,Energy savings,t
choice_trial,153,100,Female,880259.7999997139,2.346,A,choice,cdt,attraction_2,2,laptops,NA,NA,NA,NA,NA,NA,1,50,60,60,50,40,60,Processing speed,Memory (RAM),c
choice_trial,155,100,Female,880259.7999997139,2.837,B,choice,dct,repulsion_2,2,washing machines,NA,NA,NA,NA,NA,NA,1,30,100,40,90,20,100,Average lifespan,Energy savings,c
choice_trial,157,100,Female,880259.7999997139,3.643,C,choice,dtc,repulsion_2,1,microwave ovens,NA,NA,NA,NA,NA,NA,2,100,30,90,40,100,20,Warranty,Cooking power,c
choice_trial,159,100,Female,880259.7999997139,3.545,A,choice,tdc,repulsion_2,2,laptops,NA,NA,NA,NA,NA,NA,2,30,100,40,90,20,100,Processing speed,Memory (RAM),t
choice_trial,161,100,Female,880259.7999997139,3.59,A,choice,cdt,attraction_1,1,microwave ovens,NA,NA,NA,NA,NA,NA,2,60,50,50,60,60,45,Warranty,Cooking power,c
choice_trial,163,100,Female,880259.7999997139,2.547,A,choice,ctd,repulsion_2,1,laptops,NA,NA,NA,NA,NA,NA,2,100,30,90,40,100,20,Processing speed,Memory (RAM),c
choice_trial,85,101,Male,915968.400000006,9.074,C,choice,cdt,repulsion_1,2,microwave ovens,NA,NA,NA,NA,NA,NA,1,30,100,40,90,25,100,Warranty,Cooking power,t
choice_trial,87,101,Male,915968.400000006,2.557,C,choice,dct,attraction_1,2,washing machines,NA,NA,NA,NA,NA,NA,1,50,60,60,50,45,60,Average lifespan,Energy savings,t
choice_trial,89,101,Male,915968.400000006,3.345,A,choice,dtc,attraction_2,2,televisions,NA,NA,NA,NA,NA,NA,2,50,60,60,50,40,60,Screen size,Average lifespan,d
choice_trial,91,101,Male,915968.400000006,3.625,A,choice,tcd,attraction_2,1,washing machines,NA,NA,NA,NA,NA,NA,1,60,50,50,60,60,40,Average lifespan,Energy savings,t
choice_trial,93,101,Male,915968.400000006,4.567,A,choice,bww,catch,NA,microwave ovens,50,70,20,25,15,50,1,NA,NA,NA,NA,NA,NA,Warranty,Cooking power,b
choice_trial,95,101,Male,915968.400000006,5.306,A,choice,bww,catch,NA,televisions,70,70,10,25,50,30,1,NA,NA,NA,NA,NA,NA,Screen size,Average lifespan,b
choice_trial,97,101,Male,915968.400000006,7.507,C,choice,dtc,repulsion_2,1,laptops,NA,NA,NA,NA,NA,NA,1,100,30,90,40,100,20,Processing speed,Memory (RAM),c
choice_trial,99,101,Male,915968.400000006,4.118,A,choice,tdc,attraction_2,1,televisions,NA,NA,NA,NA,NA,NA,1,60,50,50,60,60,40,Screen size,Average lifespan,t
choice_trial,101,101,Male,915968.400000006,5.715,B,choice,wbw,catch,NA,washing machines,90,70,45,35,25,45,1,NA,NA,NA,NA,NA,NA,Average lifespan,Energy savings,b
choice_trial,103,101,Male,915968.400000006,6.285,A,choice,tdc,attraction_1,2,microwave ovens,NA,NA,NA,NA,NA,NA,2,50,60,60,50,45,60,Warranty,Cooking power,t
choice_trial,105,101,Male,915968.400000006,3.405,B,choice,ctd,attraction_1,2,laptops,NA,NA,NA,NA,NA,NA,2,50,60,60,50,45,60,Processing speed,Memory (RAM),t
choice_trial,107,101,Male,915968.400000006,6.212,B,choice,tdc,repulsion_2,2,washing machines,NA,NA,NA,NA,NA,NA,1,30,100,40,90,20,100,Average lifespan,Energy savings,d
choice_trial,109,101,Male,915968.400000006,4.576,A,choice,cdt,attraction_2,1,microwave ovens,NA,NA,NA,NA,NA,NA,2,60,50,50,60,60,40,Warranty,Cooking power,c
choice_trial,111,101,Male,915968.400000006,3.709,B,choice,dct,repulsion_1,1,laptops,NA,NA,NA,NA,NA,NA,1,100,30,90,40,100,25,Processing speed,Memory (RAM),c
choice_trial,113,101,Male,915968.400000006,5.563,C,choice,wwb,catch,NA,washing machines,55,95,50,15,40,45,1,NA,NA,NA,NA,NA,NA,Average lifespan,Energy savings,b
choice_trial,115,101,Male,915968.400000006,4.717,B,choice,dct,repulsion_1,1,microwave ovens,NA,NA,NA,NA,NA,NA,2,100,30,90,40,100,25,Warranty,Cooking power,c
choice_trial,117,101,Male,915968.400000006,9.216,A,choice,cdt,repulsion_2,1,televisions,NA,NA,NA,NA,NA,NA,2,100,30,90,40,100,20,Screen size,Average lifespan,c
choice_trial,119,101,Male,915968.400000006,6.776,C,choice,dtc,repulsion_2,2,microwave ovens,NA,NA,NA,NA,NA,NA,2,30,100,40,90,20,100,Warranty,Cooking power,c
choice_trial,121,101,Male,915968.400000006,3.124,A,choice,cdt,repulsion_1,1,televisions,NA,NA,NA,NA,NA,NA,1,100,30,90,40,100,25,Screen size,Average lifespan,c
choice_trial,123,101,Male,915968.400000006,8.163,C,choice,dct,attraction_2,1,laptops,NA,NA,NA,NA,NA,NA,2,60,50,50,60,60,40,Processing speed,Memory (RAM),t
choice_trial,125,101,Male,915968.400000006,3.605,C,choice,tdc,attraction_1,1,televisions,NA,NA,NA,NA,NA,NA,1,60,50,50,60,60,45,Screen size,Average lifespan,c
choice_trial,127,101,Male,915968.400000006,2.677,C,choice,wwb,catch,NA,laptops,80,50,10,25,20,25,1,NA,NA,NA,NA,NA,NA,Processing speed,Memory (RAM),b
choice_trial,129,101,Male,915968.400000006,6.955,A,choice,ctd,repulsion_1,2,washing machines,NA,NA,NA,NA,NA,NA,1,30,100,40,90,25,100,Average lifespan,Energy savings,c
choice_trial,131,101,Male,915968.400000006,4.34,B,choice,tcd,repulsion_2,2,laptops,NA,NA,NA,NA,NA,NA,2,30,100,40,90,20,100,Processing speed,Memory (RAM),c
choice_trial,133,101,Male,915968.400000006,4.527,C,choice,wwb,catch,NA,televisions,55,65,30,20,35,20,1,NA,NA,NA,NA,NA,NA,Screen size,Average lifespan,b
choice_trial,135,101,Male,915968.400000006,4.073,B,choice,tdc,attraction_1,1,laptops,NA,NA,NA,NA,NA,NA,2,60,50,50,60,60,45,Processing speed,Memory (RAM),d
choice_trial,137,101,Male,915968.400000006,8.051,B,choice,wbw,catch,NA,laptops,75,90,15,5,5,35,2,NA,NA,NA,NA,NA,NA,Processing speed,Memory (RAM),b
choice_trial,139,101,Male,915968.400000006,5.096,B,choice,dct,attraction_2,2,washing machines,NA,NA,NA,NA,NA,NA,2,50,60,60,50,40,60,Average lifespan,Energy savings,c
choice_trial,141,101,Male,915968.400000006,3.377,B,choice,ctd,attraction_2,2,microwave ovens,NA,NA,NA,NA,NA,NA,1,50,60,60,50,40,60,Warranty,Cooking power,t
choice_trial,143,101,Male,915968.400000006,2.804,C,choice,wwb,catch,NA,microwave ovens,75,85,10,30,50,25,1,NA,NA,NA,NA,NA,NA,Warranty,Cooking power,b
choice_trial,145,101,Male,915968.400000006,3.784,B,choice,dct,repulsion_1,2,laptops,NA,NA,NA,NA,NA,NA,1,30,100,40,90,25,100,Processing speed,Memory (RAM),c
choice_trial,147,101,Male,915968.400000006,2.332,B,choice,dct,repulsion_1,2,televisions,NA,NA,NA,NA,NA,NA,1,30,100,40,90,25,100,Screen size,Average lifespan,c
choice_trial,149,101,Male,915968.400000006,3.027,B,choice,ctd,attraction_1,1,microwave ovens,NA,NA,NA,NA,NA,NA,2,60,50,50,60,60,45,Warranty,Cooking power,t
choice_trial,151,101,Male,915968.400000006,3.143,C,choice,dtc,repulsion_2,1,microwave ovens,NA,NA,NA,NA,NA,NA,1,100,30,90,40,100,20,Warranty,Cooking power,c
choice_trial,153,101,Male,915968.400000006,3.228,B,choice,tcd,repulsion_2,1,washing machines,NA,NA,NA,NA,NA,NA,1,100,30,90,40,100,20,Average lifespan,Energy savings,c
choice_trial,155,101,Male,915968.400000006,5.249,A,choice,cdt,attraction_2,2,laptops,NA,NA,NA,NA,NA,NA,1,50,60,60,50,40,60,Processing speed,Memory (RAM),c
choice_trial,157,101,Male,915968.400000006,9.885,B,choice,tcd,repulsion_1,1,washing machines,NA,NA,NA,NA,NA,NA,1,100,30,90,40,100,25,Average lifespan,Energy savings,c
choice_trial,159,101,Male,915968.400000006,3.248,B,choice,tcd,attraction_1,1,washing machines,NA,NA,NA,NA,NA,NA,1,60,50,50,60,60,45,Average lifespan,Energy savings,c
choice_trial,161,101,Male,915968.400000006,7.674,B,choice,dct,repulsion_2,2,televisions,NA,NA,NA,NA,NA,NA,2,30,100,40,90,20,100,Screen size,Average lifespan,c
choice_trial,163,101,Male,915968.400000006,2.7,B,choice,tcd,attraction_1,2,televisions,NA,NA,NA,NA,NA,NA,1,50,60,60,50,45,60,Screen size,Average lifespan,c
choice_trial,85,104,Female,1393813.3000000007,35.078,C,choice,dtc,repulsion_1,2,washing machines,NA,NA,NA,NA,NA,NA,1,30,100,40,90,25,100,Average lifespan,Energy savings,c
choice_trial,87,104,Female,1393813.3000000007,3.172,A,choice,ctd,attraction_1,1,laptops,NA,NA,NA,NA,NA,NA,2,60,50,50,60,60,45,Processing speed,Memory (RAM),c
choice_trial,89,104,Female,1393813.3000000007,5.263,B,choice,dct,repulsion_1,2,microwave ovens,NA,NA,NA,NA,NA,NA,2,30,100,40,90,25,100,Warranty,Cooking power,c
choice_trial,91,104,Female,1393813.3000000007,3.808,B,choice,dtc,repulsion_1,2,televisions,NA,NA,NA,NA,NA,NA,2,30,100,40,90,25,100,Screen size,Average lifespan,t
choice_trial,93,104,Female,1393813.3000000007,3.626,B,choice,wbw,catch,NA,microwave ovens,75,80,15,25,40,40,2,NA,NA,NA,NA,NA,NA,Warranty,Cooking power,b
choice_trial,95,104,Female,1393813.3000000007,5.356,B,choice,dct,attraction_1,2,microwave ovens,NA,NA,NA,NA,NA,NA,1,50,60,60,50,45,60,Warranty,Cooking power,c
choice_trial,97,104,Female,1393813.3000000007,5.172,C,choice,tdc,repulsion_1,2,laptops,NA,NA,NA,NA,NA,NA,2,30,100,40,90,25,100,Processing speed,Memory (RAM),c
choice_trial,99,104,Female,1393813.3000000007,4.481,A,choice,bww,catch,NA,laptops,85,55,15,35,30,30,1,NA,NA,NA,NA,NA,NA,Processing speed,Memory (RAM),b
choice_trial,101,104,Female,1393813.3000000007,3.042,C,choice,dct,repulsion_2,1,microwave ovens,NA,NA,NA,NA,NA,NA,2,100,30,90,40,100,20,Warranty,Cooking power,t
choice_trial,103,104,Female,1393813.3000000007,3.406,B,choice,cdt,repulsion_2,2,washing machines,NA,NA,NA,NA,NA,NA,1,30,100,40,90,20,100,Average lifespan,Energy savings,d
choice_trial,105,104,Female,1393813.3000000007,3.525,A,choice,dct,attraction_2,2,televisions,NA,NA,NA,NA,NA,NA,1,50,60,60,50,40,60,Screen size,Average lifespan,d
choice_trial,107,104,Female,1393813.3000000007,3.014,A,choice,bww,catch,NA,televisions,65,80,45,25,10,50,2,NA,NA,NA,NA,NA,NA,Screen size,Average lifespan,b
choice_trial,109,104,Female,1393813.3000000007,4.372,A,choice,tcd,repulsion_2,2,microwave ovens,NA,NA,NA,NA,NA,NA,2,30,100,40,90,20,100,Warranty,Cooking power,t
choice_trial,111,104,Female,1393813.3000000007,5.845,C,choice,dtc,attraction_2,1,microwave ovens,NA,NA,NA,NA,NA,NA,2,60,50,50,60,60,40,Warranty,Cooking power,c
choice_trial,113,104,Female,1393813.3000000007,5.089,C,choice,ctd,attraction_2,2,microwave ovens,NA,NA,NA,NA,NA,NA,2,50,60,60,50,40,60,Warranty,Cooking power,d
choice_trial,115,104,Female,1393813.3000000007,3.582,A,choice,dtc,attraction_2,1,laptops,NA,NA,NA,NA,NA,NA,1,60,50,50,60,60,40,Processing speed,Memory (RAM),d
choice_trial,117,104,Female,1393813.3000000007,3.227,C,choice,tdc,attraction_1,1,microwave ovens,NA,NA,NA,NA,NA,NA,1,60,50,50,60,60,45,Warranty,Cooking power,c
choice_trial,119,104,Female,1393813.3000000007,4.141,B,choice,dct,attraction_1,2,washing machines,NA,NA,NA,NA,NA,NA,1,50,60,60,50,45,60,Average lifespan,Energy savings,c
choice_trial,121,104,Female,1393813.3000000007,4.261,A,choice,ctd,repulsion_1,1,microwave ovens,NA,NA,NA,NA,NA,NA,1,100,30,90,40,100,25,Warranty,Cooking power,c
choice_trial,123,104,Female,1393813.3000000007,2.765,C,choice,tcd,repulsion_2,1,televisions,NA,NA,NA,NA,NA,NA,1,100,30,90,40,100,20,Screen size,Average lifespan,d
choice_trial,125,104,Female,1393813.3000000007,2.894,C,choice,cdt,repulsion_1,1,laptops,NA,NA,NA,NA,NA,NA,2,100,30,90,40,100,25,Processing speed,Memory (RAM),t
choice_trial,127,104,Female,1393813.3000000007,3.088,A,choice,wbw,catch,NA,washing machines,50,60,25,50,45,30,1,NA,NA,NA,NA,NA,NA,Average lifespan,Energy savings,w
choice_trial,129,104,Female,1393813.3000000007,3.516,B,choice,cdt,attraction_1,1,televisions,NA,NA,NA,NA,NA,NA,2,60,50,50,60,60,45,Screen size,Average lifespan,d
choice_trial,131,104,Female,1393813.3000000007,4.061,C,choice,tcd,repulsion_1,1,televisions,NA,NA,NA,NA,NA,NA,2,100,30,90,40,100,25,Screen size,Average lifespan,d
choice_trial,133,104,Female,1393813.3000000007,5.571,A,choice,tdc,attraction_1,1,washing machines,NA,NA,NA,NA,NA,NA,1,60,50,50,60,60,45,Average lifespan,Energy savings,t
choice_trial,135,104,Female,1393813.3000000007,4.4,A,choice,dct,attraction_2,1,washing machines,NA,NA,NA,NA,NA,NA,1,60,50,50,60,60,40,Average lifespan,Energy savings,d
choice_trial,137,104,Female,1393813.3000000007,4.891,C,choice,wwb,catch,NA,laptops,95,70,30,15,30,40,1,NA,NA,NA,NA,NA,NA,Processing speed,Memory (RAM),b
choice_trial,139,104,Female,1393813.3000000007,3.355,B,choice,dtc,attraction_1,2,laptops,NA,NA,NA,NA,NA,NA,1,50,60,60,50,45,60,Processing speed,Memory (RAM),t
choice_trial,141,104,Female,1393813.3000000007,4.053,A,choice,dct,attraction_1,2,televisions,NA,NA,NA,NA,NA,NA,1,50,60,60,50,45,60,Screen size,Average lifespan,d
choice_trial,143,104,Female,1393813.3000000007,2.987,A,choice,bww,catch,NA,microwave ovens,85,55,10,45,40,35,1,NA,NA,NA,NA,NA,NA,Warranty,Cooking power,b
choice_trial,145,104,Female,1393813.3000000007,3.438,C,choice,tcd,attraction_2,2,washing machines,NA,NA,NA,NA,NA,NA,1,50,60,60,50,40,60,Average lifespan,Energy savings,d
choice_trial,147,104,Female,1393813.3000000007,3.131,A,choice,bww,catch,NA,washing machines,75,65,25,25,10,10,1,NA,NA,NA,NA,NA,NA,Average lifespan,Energy savings,b
choice_trial,149,104,Female,1393813.3000000007,4.807,A,choice,tdc,attraction_2,2,laptops,NA,NA,NA,NA,NA,NA,2,50,60,60,50,40,60,Processing speed,Memory (RAM),t
choice_trial,151,104,Female,1393813.3000000007,2.97,A,choice,tdc,attraction_2,1,televisions,NA,NA,NA,NA,NA,NA,2,60,50,50,60,60,40,Screen size,Average lifespan,t
choice_trial,153,104,Female,1393813.3000000007,4.171,C,choice,dtc,repulsion_2,1,washing machines,NA,NA,NA,NA,NA,NA,2,100,30,90,40,100,20,Average lifespan,Energy savings,c
choice_trial,155,104,Female,1393813.3000000007,7.758,A,choice,tdc,repulsion_1,1,washing machines,NA,NA,NA,NA,NA,NA,2,100,30,90,40,100,25,Average lifespan,Energy savings,t
choice_trial,157,104,Female,1393813.3000000007,5.103,B,choice,dtc,repulsion_2,2,televisions,NA,NA,NA,NA,NA,NA,1,30,100,40,90,20,100,Screen size,Average lifespan,t
choice_trial,159,104,Female,1393813.3000000007,5.497,A,choice,tcd,repulsion_2,1,laptops,NA,NA,NA,NA,NA,NA,1,100,30,90,40,100,20,Processing speed,Memory (RAM),t
choice_trial,161,104,Female,1393813.3000000007,8.184,B,choice,dct,repulsion_2,2,laptops,NA,NA,NA,NA,NA,NA,1,30,100,40,90,20,100,Processing speed,Memory (RAM),c
choice_trial,163,104,Female,1393813.3000000007,9.028,C,choice,bww,catch,NA,televisions,70,70,40,40,35,25,1,NA,NA,NA,NA,NA,NA,Screen size,Average lifespan,w
choice_trial,85,105,Male,1710665.4000000358,8.466,B,choice,ctd,repulsion_2,1,televisions,NA,NA,NA,NA,NA,NA,2,100,30,90,40,100,20,Screen size,Average lifespan,t
choice_trial,87,105,Male,1710665.4000000358,4.917,B,choice,dtc,repulsion_1,1,televisions,NA,NA,NA,NA,NA,NA,2,100,30,90,40,100,25,Screen size,Average lifespan,t
choice_trial,89,105,Male,1710665.4000000358,7.363,C,choice,cdt,attraction_2,2,microwave ovens,NA,NA,NA,NA,NA,NA,2,50,60,60,50,40,60,Warranty,Cooking power,t
choice_trial,91,105,Male,1710665.4000000358,4.791,C,choice,dct,repulsion_2,1,microwave ovens,NA,NA,NA,NA,NA,NA,1,100,30,90,40,100,20,Warranty,Cooking power,t
choice_trial,93,105,Male,1710665.4000000358,3.118,A,choice,tcd,repulsion_1,2,televisions,NA,NA,NA,NA,NA,NA,2,30,100,40,90,25,100,Screen size,Average lifespan,t
choice_trial,95,105,Male,1710665.4000000358,5.004,B,choice,dct,attraction_2,1,microwave ovens,NA,NA,NA,NA,NA,NA,2,60,50,50,60,60,40,Warranty,Cooking power,c
choice_trial,97,105,Male,1710665.4000000358,3.538,A,choice,bww,catch,NA,televisions,70,80,30,15,10,10,1,NA,NA,NA,NA,NA,NA,Screen size,Average lifespan,b
choice_trial,99,105,Male,1710665.4000000358,3.858,C,choice,dct,repulsion_1,1,microwave ovens,NA,NA,NA,NA,NA,NA,1,100,30,90,40,100,25,Warranty,Cooking power,t
choice_trial,101,105,Male,1710665.4000000358,3.44,A,choice,tcd,attraction_2,1,washing machines,NA,NA,NA,NA,NA,NA,1,60,50,50,60,60,40,Average lifespan,Energy savings,t
choice_trial,103,105,Male,1710665.4000000358,2.636,C,choice,dct,repulsion_2,1,washing machines,NA,NA,NA,NA,NA,NA,1,100,30,90,40,100,20,Average lifespan,Energy savings,t
choice_trial,105,105,Male,1710665.4000000358,3.303,A,choice,tdc,attraction_1,1,televisions,NA,NA,NA,NA,NA,NA,1,60,50,50,60,60,45,Screen size,Average lifespan,t
choice_trial,107,105,Male,1710665.4000000358,3.283,A,choice,tcd,repulsion_1,2,laptops,NA,NA,NA,NA,NA,NA,1,30,100,40,90,25,100,Processing speed,Memory (RAM),t
choice_trial,109,105,Male,1710665.4000000358,3.54,A,choice,tcd,repulsion_1,1,laptops,NA,NA,NA,NA,NA,NA,2,100,30,90,40,100,25,Processing speed,Memory (RAM),t
choice_trial,111,105,Male,1710665.4000000358,2.916,B,choice,dtc,attraction_1,1,washing machines,NA,NA,NA,NA,NA,NA,1,60,50,50,60,60,45,Average lifespan,Energy savings,t
choice_trial,113,105,Male,1710665.4000000358,2.822,C,choice,tdc,attraction_2,2,televisions,NA,NA,NA,NA,NA,NA,1,50,60,60,50,40,60,Screen size,Average lifespan,c
choice_trial,115,105,Male,1710665.4000000358,3.205,C,choice,dct,repulsion_1,2,microwave ovens,NA,NA,NA,NA,NA,NA,1,30,100,40,90,25,100,Warranty,Cooking power,t
choice_trial,117,105,Male,1710665.4000000358,2.316,B,choice,wbw,catch,NA,microwave ovens,85,90,45,15,30,30,1,NA,NA,NA,NA,NA,NA,Warranty,Cooking power,b
choice_trial,119,105,Male,1710665.4000000358,3.571,A,choice,tdc,repulsion_2,2,televisions,NA,NA,NA,NA,NA,NA,1,30,100,40,90,20,100,Screen size,Average lifespan,t
choice_trial,121,105,Male,1710665.4000000358,2.638,A,choice,bww,catch,NA,laptops,70,60,45,5,25,30,2,NA,NA,NA,NA,NA,NA,Processing speed,Memory (RAM),b
choice_trial,123,105,Male,1710665.4000000358,2.57,C,choice,dtc,attraction_1,2,washing machines,NA,NA,NA,NA,NA,NA,1,50,60,60,50,45,60,Average lifespan,Energy savings,c
choice_trial,125,105,Male,1710665.4000000358,2.454,A,choice,cdt,attraction_2,1,televisions,NA,NA,NA,NA,NA,NA,2,60,50,50,60,60,40,Screen size,Average lifespan,c
choice_trial,127,105,Male,1710665.4000000358,3.467,B,choice,ctd,repulsion_1,2,washing machines,NA,NA,NA,NA,NA,NA,1,30,100,40,90,25,100,Average lifespan,Energy savings,t
choice_trial,129,105,Male,1710665.4000000358,3.606,C,choice,dct,attraction_2,2,laptops,NA,NA,NA,NA,NA,NA,2,50,60,60,50,40,60,Processing speed,Memory (RAM),t
choice_trial,131,105,Male,1710665.4000000358,3.352,C,choice,dtc,attraction_1,2,laptops,NA,NA,NA,NA,NA,NA,1,50,60,60,50,45,60,Processing speed,Memory (RAM),c
choice_trial,133,105,Male,1710665.4000000358,2.426,C,choice,cdt,repulsion_2,2,washing machines,NA,NA,NA,NA,NA,NA,1,30,100,40,90,20,100,Average lifespan,Energy savings,t
choice_trial,135,105,Male,1710665.4000000358,6.175,C,choice,wwb,catch,NA,microwave ovens,95,65,35,35,45,35,2,NA,NA,NA,NA,NA,NA,Warranty,Cooking power,b
choice_trial,137,105,Male,1710665.4000000358,2.349,A,choice,bww,catch,NA,laptops,50,95,25,45,50,15,2,NA,NA,NA,NA,NA,NA,Processing speed,Memory (RAM),b
choice_trial,139,105,Male,1710665.4000000358,2.169,C,choice,cdt,repulsion_2,2,laptops,NA,NA,NA,NA,NA,NA,1,30,100,40,90,20,100,Processing speed,Memory (RAM),t
choice_trial,141,105,Male,1710665.4000000358,3.144,A,choice,bww,catch,NA,televisions,80,75,50,35,5,15,1,NA,NA,NA,NA,NA,NA,Screen size,Average lifespan,b
choice_trial,143,105,Male,1710665.4000000358,2.09,C,choice,tdc,attraction_2,1,laptops,NA,NA,NA,NA,NA,NA,2,60,50,50,60,60,40,Processing speed,Memory (RAM),c
choice_trial,145,105,Male,1710665.4000000358,2.426,C,choice,tdc,attraction_1,2,microwave ovens,NA,NA,NA,NA,NA,NA,1,50,60,60,50,45,60,Warranty,Cooking power,c
choice_trial,147,105,Male,1710665.4000000358,2.506,A,choice,tcd,repulsion_1,1,washing machines,NA,NA,NA,NA,NA,NA,2,100,30,90,40,100,25,Average lifespan,Energy savings,t
choice_trial,149,105,Male,1710665.4000000358,2.458,B,choice,dtc,attraction_1,1,laptops,NA,NA,NA,NA,NA,NA,1,60,50,50,60,60,45,Processing speed,Memory (RAM),t
choice_trial,151,105,Male,1710665.4000000358,1.888,A,choice,bww,catch,NA,washing machines,65,55,25,35,10,5,2,NA,NA,NA,NA,NA,NA,Average lifespan,Energy savings,b
choice_trial,153,105,Male,1710665.4000000358,3.124,B,choice,dtc,repulsion_2,2,microwave ovens,NA,NA,NA,NA,NA,NA,2,30,100,40,90,20,100,Warranty,Cooking power,t
choice_trial,155,105,Male,1710665.4000000358,2.923,A,choice,ctd,attraction_1,1,microwave ovens,NA,NA,NA,NA,NA,NA,2,60,50,50,60,60,45,Warranty,Cooking power,c
choice_trial,157,105,Male,1710665.4000000358,2.513,A,choice,ctd,attraction_1,2,televisions,NA,NA,NA,NA,NA,NA,1,50,60,60,50,45,60,Screen size,Average lifespan,c
choice_trial,159,105,Male,1710665.4000000358,4.056,B,choice,tcd,attraction_2,2,washing machines,NA,NA,NA,NA,NA,NA,1,50,60,60,50,40,60,Average lifespan,Energy savings,c
choice_trial,161,105,Male,1710665.4000000358,3.579,C,choice,dct,repulsion_2,1,laptops,NA,NA,NA,NA,NA,NA,2,100,30,90,40,100,20,Processing speed,Memory (RAM),t
choice_trial,163,105,Male,1710665.4000000358,8.676,C,choice,wwb,catch,NA,washing machines,95,60,45,40,40,40,2,NA,NA,NA,NA,NA,NA,Average lifespan,Energy savings,b
choice_trial,85,107,Male,1457134.799999997,6.934,C,choice,tdc,repulsion_2,1,laptops,NA,NA,NA,NA,NA,NA,2,100,30,90,40,100,20,Processing speed,Memory (RAM),c
choice_trial,87,107,Male,1457134.799999997,5.016,B,choice,wbw,catch,NA,laptops,70,95,5,45,20,5,1,NA,NA,NA,NA,NA,NA,Processing speed,Memory (RAM),b
choice_trial,89,107,Male,1457134.799999997,10.517,C,choice,tdc,attraction_2,2,televisions,NA,NA,NA,NA,NA,NA,1,50,60,60,50,40,60,Screen size,Average lifespan,c
choice_trial,91,107,Male,1457134.799999997,5.896,B,choice,ctd,attraction_1,2,laptops,NA,NA,NA,NA,NA,NA,1,50,60,60,50,45,60,Processing speed,Memory (RAM),t
choice_trial,93,107,Male,1457134.799999997,5.503,C,choice,dtc,repulsion_1,2,washing machines,NA,NA,NA,NA,NA,NA,2,30,100,40,90,25,100,Average lifespan,Energy savings,c
choice_trial,95,107,Male,1457134.799999997,6.001,B,choice,dtc,attraction_2,1,televisions,NA,NA,NA,NA,NA,NA,2,60,50,50,60,60,40,Screen size,Average lifespan,t
choice_trial,97,107,Male,1457134.799999997,3.959,C,choice,wwb,catch,NA,laptops,65,85,50,50,40,25,1,NA,NA,NA,NA,NA,NA,Processing speed,Memory (RAM),b
choice_trial,99,107,Male,1457134.799999997,9.282,A,choice,ctd,repulsion_2,2,washing machines,NA,NA,NA,NA,NA,NA,1,30,100,40,90,20,100,Average lifespan,Energy savings,c
choice_trial,101,107,Male,1457134.799999997,4.157,C,choice,dtc,attraction_1,2,televisions,NA,NA,NA,NA,NA,NA,2,50,60,60,50,45,60,Screen size,Average lifespan,c
choice_trial,103,107,Male,1457134.799999997,4.946,B,choice,tcd,attraction_1,1,laptops,NA,NA,NA,NA,NA,NA,1,60,50,50,60,60,45,Processing speed,Memory (RAM),c
choice_trial,105,107,Male,1457134.799999997,3.945,B,choice,wbw,catch,NA,microwave ovens,55,95,35,15,50,45,1,NA,NA,NA,NA,NA,NA,Warranty,Cooking power,b
choice_trial,107,107,Male,1457134.799999997,5.734,C,choice,tdc,repulsion_2,1,televisions,NA,NA,NA,NA,NA,NA,1,100,30,90,40,100,20,Screen size,Average lifespan,c
choice_trial,109,107,Male,1457134.799999997,3.866,C,choice,dtc,repulsion_1,1,microwave ovens,NA,NA,NA,NA,NA,NA,2,100,30,90,40,100,25,Warranty,Cooking power,c
choice_trial,111,107,Male,1457134.799999997,7.552,B,choice,dct,repulsion_2,1,washing machines,NA,NA,NA,NA,NA,NA,1,100,30,90,40,100,20,Average lifespan,Energy savings,c
choice_trial,113,107,Male,1457134.799999997,6.051,B,choice,dct,attraction_2,1,microwave ovens,NA,NA,NA,NA,NA,NA,1,60,50,50,60,60,40,Warranty,Cooking power,c
choice_trial,115,107,Male,1457134.799999997,18.031,B,choice,dct,attraction_2,2,washing machines,NA,NA,NA,NA,NA,NA,2,50,60,60,50,40,60,Average lifespan,Energy savings,c
choice_trial,117,107,Male,1457134.799999997,7.419,A,choice,bww,catch,NA,washing machines,80,90,30,5,25,10,1,NA,NA,NA,NA,NA,NA,Average lifespan,Energy savings,b
choice_trial,119,107,Male,1457134.799999997,6.043,A,choice,cdt,repulsion_1,1,laptops,NA,NA,NA,NA,NA,NA,2,100,30,90,40,100,25,Processing speed,Memory (RAM),c
choice_trial,121,107,Male,1457134.799999997,4.673,A,choice,cdt,repulsion_1,2,televisions,NA,NA,NA,NA,NA,NA,2,30,100,40,90,25,100,Screen size,Average lifespan,c
choice_trial,123,107,Male,1457134.799999997,4.989,B,choice,dct,attraction_1,1,microwave ovens,NA,NA,NA,NA,NA,NA,1,60,50,50,60,60,45,Warranty,Cooking power,c
choice_trial,125,107,Male,1457134.799999997,4.555,A,choice,cdt,attraction_2,1,laptops,NA,NA,NA,NA,NA,NA,1,60,50,50,60,60,40,Processing speed,Memory (RAM),c
choice_trial,127,107,Male,1457134.799999997,4.275,C,choice,cdt,attraction_2,2,microwave ovens,NA,NA,NA,NA,NA,NA,1,50,60,60,50,40,60,Warranty,Cooking power,t
choice_trial,129,107,Male,1457134.799999997,4.724,C,choice,wwb,catch,NA,televisions,75,50,20,5,40,40,1,NA,NA,NA,NA,NA,NA,Screen size,Average lifespan,b
choice_trial,131,107,Male,1457134.799999997,8.369,B,choice,dtc,attraction_1,2,washing machines,NA,NA,NA,NA,NA,NA,2,50,60,60,50,45,60,Average lifespan,Energy savings,t
choice_trial,133,107,Male,1457134.799999997,4.458,C,choice,dtc,repulsion_2,1,microwave ovens,NA,NA,NA,NA,NA,NA,2,100,30,90,40,100,20,Warranty,Cooking power,c
choice_trial,135,107,Male,1457134.799999997,5.547,B,choice,dct,repulsion_2,2,microwave ovens,NA,NA,NA,NA,NA,NA,1,30,100,40,90,20,100,Warranty,Cooking power,c
choice_trial,137,107,Male,1457134.799999997,4.826,C,choice,tdc,repulsion_1,1,televisions,NA,NA,NA,NA,NA,NA,1,100,30,90,40,100,25,Screen size,Average lifespan,c
choice_trial,139,107,Male,1457134.799999997,3.928,A,choice,cdt,repulsion_2,2,televisions,NA,NA,NA,NA,NA,NA,1,30,100,40,90,20,100,Screen size,Average lifespan,c
choice_trial,141,107,Male,1457134.799999997,11.26,A,choice,ctd,attraction_2,1,washing machines,NA,NA,NA,NA,NA,NA,2,60,50,50,60,60,40,Average lifespan,Energy savings,c
choice_trial,143,107,Male,1457134.799999997,3.008,B,choice,tcd,repulsion_2,2,laptops,NA,NA,NA,NA,NA,NA,1,30,100,40,90,20,100,Processing speed,Memory (RAM),c
choice_trial,145,107,Male,1457134.799999997,4.792,C,choice,dtc,attraction_1,1,televisions,NA,NA,NA,NA,NA,NA,1,60,50,50,60,60,45,Screen size,Average lifespan,c
choice_trial,147,107,Male,1457134.799999997,14.741,B,choice,wbw,catch,NA,microwave ovens,70,60,50,40,25,5,1,NA,NA,NA,NA,NA,NA,Warranty,Cooking power,b
choice_trial,149,107,Male,1457134.799999997,3.734,B,choice,ctd,attraction_2,2,laptops,NA,NA,NA,NA,NA,NA,1,50,60,60,50,40,60,Processing speed,Memory (RAM),t
choice_trial,151,107,Male,1457134.799999997,15.744,A,choice,ctd,repulsion_1,2,microwave ovens,NA,NA,NA,NA,NA,NA,1,30,100,40,90,25,100,Warranty,Cooking power,c
choice_trial,153,107,Male,1457134.799999997,3.724,C,choice,tdc,repulsion_1,1,washing machines,NA,NA,NA,NA,NA,NA,1,100,30,90,40,100,25,Average lifespan,Energy savings,c
choice_trial,155,107,Male,1457134.799999997,40.599,C,choice,wwb,catch,NA,televisions,70,75,5,20,40,35,1,NA,NA,NA,NA,NA,NA,Screen size,Average lifespan,b
choice_trial,157,107,Male,1457134.799999997,6.246,C,choice,tdc,repulsion_1,2,laptops,NA,NA,NA,NA,NA,NA,1,30,100,40,90,25,100,Processing speed,Memory (RAM),c
choice_trial,159,107,Male,1457134.799999997,2.672,B,choice,wbw,catch,NA,washing machines,80,90,35,5,50,50,2,NA,NA,NA,NA,NA,NA,Average lifespan,Energy savings,b
choice_trial,161,107,Male,1457134.799999997,4.288,B,choice,ctd,attraction_1,1,washing machines,NA,NA,NA,NA,NA,NA,2,60,50,50,60,60,45,Average lifespan,Energy savings,t
choice_trial,163,107,Male,1457134.799999997,12.416,B,choice,cdt,attraction_1,2,microwave ovens,NA,NA,NA,NA,NA,NA,1,50,60,60,50,45,60,Warranty,Cooking power,d
choice_trial,85,108,Male,1693708.1000000238,3.875,A,choice,cdt,repulsion_1,1,televisions,NA,NA,NA,NA,NA,NA,1,100,30,90,40,100,25,Screen size,Average lifespan,c
choice_trial,87,108,Male,1693708.1000000238,5.75,B,choice,tcd,repulsion_1,2,washing machines,NA,NA,NA,NA,NA,NA,1,30,100,40,90,25,100,Average lifespan,Energy savings,c
choice_trial,89,108,Male,1693708.1000000238,4.07,C,choice,dtc,repulsion_1,1,washing machines,NA,NA,NA,NA,NA,NA,2,100,30,90,40,100,25,Average lifespan,Energy savings,c
choice_trial,91,108,Male,1693708.1000000238,6.677,B,choice,dtc,attraction_1,1,laptops,NA,NA,NA,NA,NA,NA,1,60,50,50,60,60,45,Processing speed,Memory (RAM),t
choice_trial,93,108,Male,1693708.1000000238,8.365,B,choice,tcd,repulsion_1,1,microwave ovens,NA,NA,NA,NA,NA,NA,2,100,30,90,40,100,25,Warranty,Cooking power,c
choice_trial,95,108,Male,1693708.1000000238,2.903,B,choice,wbw,catch,NA,laptops,90,95,45,15,10,20,2,NA,NA,NA,NA,NA,NA,Processing speed,Memory (RAM),b
choice_trial,97,108,Male,1693708.1000000238,4.504,B,choice,dct,repulsion_2,1,microwave ovens,NA,NA,NA,NA,NA,NA,2,100,30,90,40,100,20,Warranty,Cooking power,c
choice_trial,99,108,Male,1693708.1000000238,3.14,B,choice,dct,repulsion_2,1,televisions,NA,NA,NA,NA,NA,NA,1,100,30,90,40,100,20,Screen size,Average lifespan,c
choice_trial,101,108,Male,1693708.1000000238,4.182,B,choice,dct,attraction_1,1,washing machines,NA,NA,NA,NA,NA,NA,1,60,50,50,60,60,45,Average lifespan,Energy savings,c
choice_trial,103,108,Male,1693708.1000000238,4.363,A,choice,cdt,repulsion_1,2,microwave ovens,NA,NA,NA,NA,NA,NA,1,30,100,40,90,25,100,Warranty,Cooking power,c
choice_trial,105,108,Male,1693708.1000000238,5.235,C,choice,dtc,attraction_1,1,televisions,NA,NA,NA,NA,NA,NA,1,60,50,50,60,60,45,Screen size,Average lifespan,c
choice_trial,107,108,Male,1693708.1000000238,6.625,B,choice,ctd,attraction_1,2,televisions,NA,NA,NA,NA,NA,NA,2,50,60,60,50,45,60,Screen size,Average lifespan,t
choice_trial,109,108,Male,1693708.1000000238,4.23,C,choice,cdt,attraction_1,2,washing machines,NA,NA,NA,NA,NA,NA,1,50,60,60,50,45,60,Average lifespan,Energy savings,t
choice_trial,111,108,Male,1693708.1000000238,2.927,A,choice,bww,catch,NA,laptops,70,80,50,15,45,5,1,NA,NA,NA,NA,NA,NA,Processing speed,Memory (RAM),b
choice_trial,113,108,Male,1693708.1000000238,4.334,C,choice,wwb,catch,NA,microwave ovens,95,65,50,25,5,10,2,NA,NA,NA,NA,NA,NA,Warranty,Cooking power,b
choice_trial,115,108,Male,1693708.1000000238,2.802,B,choice,dct,repulsion_2,2,microwave ovens,NA,NA,NA,NA,NA,NA,2,30,100,40,90,20,100,Warranty,Cooking power,c
choice_trial,117,108,Male,1693708.1000000238,4.197,C,choice,dct,attraction_2,2,televisions,NA,NA,NA,NA,NA,NA,1,50,60,60,50,40,60,Screen size,Average lifespan,t
choice_trial,119,108,Male,1693708.1000000238,3.045,A,choice,bww,catch,NA,televisions,80,70,35,20,50,10,2,NA,NA,NA,NA,NA,NA,Screen size,Average lifespan,b
choice_trial,121,108,Male,1693708.1000000238,5.854,B,choice,tcd,repulsion_1,1,laptops,NA,NA,NA,NA,NA,NA,1,100,30,90,40,100,25,Processing speed,Memory (RAM),c
choice_trial,123,108,Male,1693708.1000000238,6.103,B,choice,dtc,attraction_2,2,microwave ovens,NA,NA,NA,NA,NA,NA,2,50,60,60,50,40,60,Warranty,Cooking power,t
choice_trial,125,108,Male,1693708.1000000238,2.905,A,choice,ctd,repulsion_2,2,laptops,NA,NA,NA,NA,NA,NA,1,30,100,40,90,20,100,Processing speed,Memory (RAM),c
choice_trial,127,108,Male,1693708.1000000238,4.798,C,choice,dtc,attraction_1,1,microwave ovens,NA,NA,NA,NA,NA,NA,1,60,50,50,60,60,45,Warranty,Cooking power,c
choice_trial,129,108,Male,1693708.1000000238,3.139,C,choice,tdc,repulsion_2,2,washing machines,NA,NA,NA,NA,NA,NA,2,30,100,40,90,20,100,Average lifespan,Energy savings,c
choice_trial,131,108,Male,1693708.1000000238,2.09,A,choice,bww,catch,NA,televisions,90,95,5,20,10,40,2,NA,NA,NA,NA,NA,NA,Screen size,Average lifespan,b
choice_trial,133,108,Male,1693708.1000000238,2.459,A,choice,bww,catch,NA,washing machines,75,65,15,50,20,15,1,NA,NA,NA,NA,NA,NA,Average lifespan,Energy savings,b
choice_trial,135,108,Male,1693708.1000000238,2.547,A,choice,bww,catch,NA,microwave ovens,75,80,40,25,15,30,2,NA,NA,NA,NA,NA,NA,Warranty,Cooking power,b
choice_trial,137,108,Male,1693708.1000000238,4.482,B,choice,ctd,attraction_2,1,laptops,NA,NA,NA,NA,NA,NA,2,60,50,50,60,60,40,Processing speed,Memory (RAM),t
choice_trial,139,108,Male,1693708.1000000238,3.322,A,choice,cdt,repulsion_2,1,laptops,NA,NA,NA,NA,NA,NA,1,100,30,90,40,100,20,Processing speed,Memory (RAM),c
choice_trial,141,108,Male,1693708.1000000238,2.958,A,choice,ctd,repulsion_2,2,televisions,NA,NA,NA,NA,NA,NA,1,30,100,40,90,20,100,Screen size,Average lifespan,c
choice_trial,143,108,Male,1693708.1000000238,4.455,A,choice,tcd,attraction_1,2,microwave ovens,NA,NA,NA,NA,NA,NA,2,50,60,60,50,45,60,Warranty,Cooking power,t
choice_trial,145,108,Male,1693708.1000000238,3.109,B,choice,tcd,repulsion_2,1,washing machines,NA,NA,NA,NA,NA,NA,1,100,30,90,40,100,20,Average lifespan,Energy savings,c
choice_trial,147,108,Male,1693708.1000000238,4.159,B,choice,dct,attraction_2,1,washing machines,NA,NA,NA,NA,NA,NA,2,60,50,50,60,60,40,Average lifespan,Energy savings,c
choice_trial,149,108,Male,1693708.1000000238,4.207,B,choice,tcd,attraction_2,1,televisions,NA,NA,NA,NA,NA,NA,2,60,50,50,60,60,40,Screen size,Average lifespan,c
choice_trial,151,108,Male,1693708.1000000238,2.657,C,choice,wwb,catch,NA,washing machines,65,60,35,10,30,40,1,NA,NA,NA,NA,NA,NA,Average lifespan,Energy savings,b
choice_trial,153,108,Male,1693708.1000000238,3.905,A,choice,ctd,attraction_2,2,laptops,NA,NA,NA,NA,NA,NA,2,50,60,60,50,40,60,Processing speed,Memory (RAM),c
choice_trial,155,108,Male,1693708.1000000238,3.646,A,choice,tdc,attraction_2,2,washing machines,NA,NA,NA,NA,NA,NA,2,50,60,60,50,40,60,Average lifespan,Energy savings,t
choice_trial,157,108,Male,1693708.1000000238,3.429,B,choice,dct,repulsion_1,2,laptops,NA,NA,NA,NA,NA,NA,1,30,100,40,90,25,100,Processing speed,Memory (RAM),c
choice_trial,159,108,Male,1693708.1000000238,2.676,A,choice,cdt,attraction_1,2,laptops,NA,NA,NA,NA,NA,NA,1,50,60,60,50,45,60,Processing speed,Memory (RAM),c
choice_trial,161,108,Male,1693708.1000000238,3.146,C,choice,dtc,attraction_2,1,microwave ovens,NA,NA,NA,NA,NA,NA,2,60,50,50,60,60,40,Warranty,Cooking power,c
choice_trial,163,108,Male,1693708.1000000238,3.198,A,choice,cdt,repulsion_1,2,televisions,NA,NA,NA,NA,NA,NA,2,30,100,40,90,25,100,Screen size,Average lifespan,c
choice_trial,85,109,Female,882064.599999994,6.319,B,choice,dct,repulsion_1,2,microwave ovens,NA,NA,NA,NA,NA,NA,2,30,100,40,90,25,100,Warranty,Cooking power,c
choice_trial,87,109,Female,882064.599999994,8.72,C,choice,dct,attraction_2,1,televisions,NA,NA,NA,NA,NA,NA,1,60,50,50,60,60,40,Screen size,Average lifespan,t
choice_trial,89,109,Female,882064.599999994,9.959,C,choice,dtc,repulsion_2,1,laptops,NA,NA,NA,NA,NA,NA,1,100,30,90,40,100,20,Processing speed,Memory (RAM),c
choice_trial,91,109,Female,882064.599999994,3.876,C,choice,tdc,attraction_2,2,microwave ovens,NA,NA,NA,NA,NA,NA,1,50,60,60,50,40,60,Warranty,Cooking power,c
choice_trial,93,109,Female,882064.599999994,16.702,A,choice,cdt,repulsion_2,1,microwave ovens,NA,NA,NA,NA,NA,NA,2,100,30,90,40,100,20,Warranty,Cooking power,c
choice_trial,95,109,Female,882064.599999994,5.796,B,choice,tcd,repulsion_1,1,televisions,NA,NA,NA,NA,NA,NA,1,100,30,90,40,100,25,Screen size,Average lifespan,c
choice_trial,97,109,Female,882064.599999994,4.062,B,choice,tcd,repulsion_1,2,laptops,NA,NA,NA,NA,NA,NA,2,30,100,40,90,25,100,Processing speed,Memory (RAM),c
choice_trial,99,109,Female,882064.599999994,12.939,B,choice,wbw,catch,NA,washing machines,65,70,20,40,50,20,2,NA,NA,NA,NA,NA,NA,Average lifespan,Energy savings,b
choice_trial,101,109,Female,882064.599999994,3.038,B,choice,ctd,attraction_2,2,laptops,NA,NA,NA,NA,NA,NA,2,50,60,60,50,40,60,Processing speed,Memory (RAM),t
choice_trial,103,109,Female,882064.599999994,3.231,C,choice,tdc,repulsion_1,1,microwave ovens,NA,NA,NA,NA,NA,NA,1,100,30,90,40,100,25,Warranty,Cooking power,c
choice_trial,105,109,Female,882064.599999994,3.642,B,choice,tcd,repulsion_1,2,washing machines,NA,NA,NA,NA,NA,NA,1,30,100,40,90,25,100,Average lifespan,Energy savings,c
choice_trial,107,109,Female,882064.599999994,5.736,B,choice,wbw,catch,NA,televisions,60,80,30,45,50,40,1,NA,NA,NA,NA,NA,NA,Screen size,Average lifespan,b
choice_trial,109,109,Female,882064.599999994,4.51,C,choice,dtc,repulsion_2,2,televisions,NA,NA,NA,NA,NA,NA,1,30,100,40,90,20,100,Screen size,Average lifespan,c
choice_trial,111,109,Female,882064.599999994,5.437,C,choice,cdt,attraction_1,2,televisions,NA,NA,NA,NA,NA,NA,2,50,60,60,50,45,60,Screen size,Average lifespan,t
choice_trial,113,109,Female,882064.599999994,3.95,A,choice,cdt,repulsion_2,2,laptops,NA,NA,NA,NA,NA,NA,1,30,100,40,90,20,100,Processing speed,Memory (RAM),c
choice_trial,115,109,Female,882064.599999994,3.144,B,choice,dtc,attraction_2,1,washing machines,NA,NA,NA,NA,NA,NA,1,60,50,50,60,60,40,Average lifespan,Energy savings,t
choice_trial,117,109,Female,882064.599999994,10.712,B,choice,tcd,attraction_2,2,washing machines,NA,NA,NA,NA,NA,NA,1,50,60,60,50,40,60,Average lifespan,Energy savings,c
choice_trial,119,109,Female,882064.599999994,5.483,A,choice,ctd,repulsion_2,2,microwave ovens,NA,NA,NA,NA,NA,NA,2,30,100,40,90,20,100,Warranty,Cooking power,c
choice_trial,121,109,Female,882064.599999994,2.014,B,choice,tcd,attraction_1,1,washing machines,NA,NA,NA,NA,NA,NA,2,60,50,50,60,60,45,Average lifespan,Energy savings,c
choice_trial,123,109,Female,882064.599999994,2.442,C,choice,wwb,catch,NA,laptops,70,70,15,30,30,5,1,NA,NA,NA,NA,NA,NA,Processing speed,Memory (RAM),b
choice_trial,125,109,Female,882064.599999994,5.553,A,choice,ctd,repulsion_2,1,washing machines,NA,NA,NA,NA,NA,NA,2,100,30,90,40,100,20,Average lifespan,Energy savings,c
choice_trial,127,109,Female,882064.599999994,5.395,B,choice,wbw,catch,NA,televisions,80,70,25,35,10,30,1,NA,NA,NA,NA,NA,NA,Screen size,Average lifespan,b
choice_trial,129,109,Female,882064.599999994,2.901,B,choice,wbw,catch,NA,laptops,75,75,35,35,40,10,1,NA,NA,NA,NA,NA,NA,Processing speed,Memory (RAM),b
choice_trial,131,109,Female,882064.599999994,2.629,B,choice,wbw,catch,NA,microwave ovens,70,70,40,15,40,15,1,NA,NA,NA,NA,NA,NA,Warranty,Cooking power,b
choice_trial,133,109,Female,882064.599999994,2.99,A,choice,tcd,attraction_2,2,televisions,NA,NA,NA,NA,NA,NA,2,50,60,60,50,40,60,Screen size,Average lifespan,t
choice_trial,135,109,Female,882064.599999994,13.506,C,choice,tdc,repulsion_2,1,televisions,NA,NA,NA,NA,NA,NA,2,100,30,90,40,100,20,Screen size,Average lifespan,c
choice_trial,137,109,Female,882064.599999994,1.929,B,choice,wbw,catch,NA,microwave ovens,70,65,50,25,30,25,2,NA,NA,NA,NA,NA,NA,Warranty,Cooking power,b
choice_trial,139,109,Female,882064.599999994,5.574,A,choice,ctd,attraction_2,1,microwave ovens,NA,NA,NA,NA,NA,NA,2,60,50,50,60,60,40,Warranty,Cooking power,c
choice_trial,141,109,Female,882064.599999994,2.283,B,choice,tcd,attraction_1,2,microwave ovens,NA,NA,NA,NA,NA,NA,1,50,60,60,50,45,60,Warranty,Cooking power,c
choice_trial,143,109,Female,882064.599999994,2.531,C,choice,tdc,repulsion_1,1,washing machines,NA,NA,NA,NA,NA,NA,1,100,30,90,40,100,25,Average lifespan,Energy savings,c
choice_trial,145,109,Female,882064.599999994,3.316,A,choice,bww,catch,NA,washing machines,60,75,50,30,50,40,1,NA,NA,NA,NA,NA,NA,Average lifespan,Energy savings,b
choice_trial,147,109,Female,882064.599999994,2.752,C,choice,dtc,repulsion_1,2,televisions,NA,NA,NA,NA,NA,NA,1,30,100,40,90,25,100,Screen size,Average lifespan,c
choice_trial,149,109,Female,882064.599999994,3.506,A,choice,ctd,repulsion_2,2,washing machines,NA,NA,NA,NA,NA,NA,2,30,100,40,90,20,100,Average lifespan,Energy savings,c
choice_trial,151,109,Female,882064.599999994,2.961,A,choice,tcd,attraction_1,1,laptops,NA,NA,NA,NA,NA,NA,1,60,50,50,60,60,45,Processing speed,Memory (RAM),t
choice_trial,153,109,Female,882064.599999994,2.997,A,choice,tcd,attraction_1,1,televisions,NA,NA,NA,NA,NA,NA,1,60,50,50,60,60,45,Screen size,Average lifespan,t
choice_trial,155,109,Female,882064.599999994,6.907,A,choice,tcd,attraction_2,1,laptops,NA,NA,NA,NA,NA,NA,1,60,50,50,60,60,40,Processing speed,Memory (RAM),t
choice_trial,157,109,Female,882064.599999994,5.851,C,choice,cdt,attraction_1,1,microwave ovens,NA,NA,NA,NA,NA,NA,1,60,50,50,60,60,45,Warranty,Cooking power,t
choice_trial,159,109,Female,882064.599999994,2.799,C,choice,dct,attraction_1,2,washing machines,NA,NA,NA,NA,NA,NA,2,50,60,60,50,45,60,Average lifespan,Energy savings,t
choice_trial,161,109,Female,882064.599999994,19.258,C,choice,dtc,repulsion_1,1,laptops,NA,NA,NA,NA,NA,NA,1,100,30,90,40,100,25,Processing speed,Memory (RAM),c
choice_trial,163,109,Female,882064.599999994,4.658,C,choice,dtc,attraction_1,2,laptops,NA,NA,NA,NA,NA,NA,1,50,60,60,50,45,60,Processing speed,Memory (RAM),c
choice_trial,85,11,Male,1404017.5999999642,5.682,B,choice,dtc,attraction_1,1,laptops,NA,NA,NA,NA,NA,NA,1,60,50,50,60,60,45,Processing speed,Memory (RAM),t
choice_trial,87,11,Male,1404017.5999999642,6.853,B,choice,ctd,attraction_1,2,microwave ovens,NA,NA,NA,NA,NA,NA,1,50,60,60,50,45,60,Warranty,Cooking power,t
choice_trial,89,11,Male,1404017.5999999642,2.061,C,choice,tdc,attraction_2,2,microwave ovens,NA,NA,NA,NA,NA,NA,2,50,60,60,50,40,60,Warranty,Cooking power,c
choice_trial,91,11,Male,1404017.5999999642,7.121,A,choice,cdt,repulsion_1,1,laptops,NA,NA,NA,NA,NA,NA,2,100,30,90,40,100,25,Processing speed,Memory (RAM),c
choice_trial,93,11,Male,1404017.5999999642,6.412,A,choice,tcd,attraction_1,2,washing machines,NA,NA,NA,NA,NA,NA,2,50,60,60,50,45,60,Average lifespan,Energy savings,t
choice_trial,95,11,Male,1404017.5999999642,8.469,C,choice,wwb,catch,NA,microwave ovens,50,80,40,35,25,15,2,NA,NA,NA,NA,NA,NA,Warranty,Cooking power,b
choice_trial,97,11,Male,1404017.5999999642,5.23,A,choice,tdc,repulsion_1,2,laptops,NA,NA,NA,NA,NA,NA,2,30,100,40,90,25,100,Processing speed,Memory (RAM),t
choice_trial,99,11,Male,1404017.5999999642,12.472,B,choice,dtc,repulsion_2,1,washing machines,NA,NA,NA,NA,NA,NA,1,100,30,90,40,100,20,Average lifespan,Energy savings,t
choice_trial,101,11,Male,1404017.5999999642,7.67,A,choice,tcd,repulsion_2,2,washing machines,NA,NA,NA,NA,NA,NA,1,30,100,40,90,20,100,Average lifespan,Energy savings,t
choice_trial,103,11,Male,1404017.5999999642,2.991,A,choice,tdc,repulsion_1,1,televisions,NA,NA,NA,NA,NA,NA,2,100,30,90,40,100,25,Screen size,Average lifespan,t
choice_trial,105,11,Male,1404017.5999999642,2.69,A,choice,bww,catch,NA,laptops,65,85,40,30,40,35,2,NA,NA,NA,NA,NA,NA,Processing speed,Memory (RAM),b
choice_trial,107,11,Male,1404017.5999999642,6.271,C,choice,dtc,repulsion_2,1,microwave ovens,NA,NA,NA,NA,NA,NA,1,100,30,90,40,100,20,Warranty,Cooking power,c
choice_trial,109,11,Male,1404017.5999999642,28.251,A,choice,cdt,attraction_2,2,laptops,NA,NA,NA,NA,NA,NA,2,50,60,60,50,40,60,Processing speed,Memory (RAM),c
choice_trial,111,11,Male,1404017.5999999642,6.169,B,choice,dtc,attraction_1,2,laptops,NA,NA,NA,NA,NA,NA,1,50,60,60,50,45,60,Processing speed,Memory (RAM),t
choice_trial,113,11,Male,1404017.5999999642,2.435,A,choice,ctd,attraction_2,1,televisions,NA,NA,NA,NA,NA,NA,2,60,50,50,60,60,40,Screen size,Average lifespan,c
choice_trial,115,11,Male,1404017.5999999642,1.885,A,choice,cdt,attraction_2,2,televisions,NA,NA,NA,NA,NA,NA,1,50,60,60,50,40,60,Screen size,Average lifespan,c
choice_trial,117,11,Male,1404017.5999999642,1.808,C,choice,cdt,repulsion_2,2,televisions,NA,NA,NA,NA,NA,NA,1,30,100,40,90,20,100,Screen size,Average lifespan,t
choice_trial,119,11,Male,1404017.5999999642,11.449,C,choice,dtc,attraction_2,2,washing machines,NA,NA,NA,NA,NA,NA,2,50,60,60,50,40,60,Average lifespan,Energy savings,c
choice_trial,121,11,Male,1404017.5999999642,2.808,C,choice,cdt,repulsion_2,1,televisions,NA,NA,NA,NA,NA,NA,1,100,30,90,40,100,20,Screen size,Average lifespan,t
choice_trial,123,11,Male,1404017.5999999642,2.706,B,choice,bww,catch,NA,microwave ovens,75,55,50,15,10,40,1,NA,NA,NA,NA,NA,NA,Warranty,Cooking power,w
choice_trial,125,11,Male,1404017.5999999642,2.269,C,choice,ctd,repulsion_1,2,washing machines,NA,NA,NA,NA,NA,NA,2,30,100,40,90,25,100,Average lifespan,Energy savings,d
choice_trial,127,11,Male,1404017.5999999642,1.947,B,choice,tcd,attraction_2,1,laptops,NA,NA,NA,NA,NA,NA,2,60,50,50,60,60,40,Processing speed,Memory (RAM),c
choice_trial,129,11,Male,1404017.5999999642,1.524,A,choice,cdt,repulsion_2,1,laptops,NA,NA,NA,NA,NA,NA,1,100,30,90,40,100,20,Processing speed,Memory (RAM),c
choice_trial,131,11,Male,1404017.5999999642,1.833,B,choice,wbw,catch,NA,washing machines,80,70,30,10,15,20,1,NA,NA,NA,NA,NA,NA,Average lifespan,Energy savings,b
choice_trial,133,11,Male,1404017.5999999642,1.984,B,choice,cdt,attraction_2,1,washing machines,NA,NA,NA,NA,NA,NA,2,60,50,50,60,60,40,Average lifespan,Energy savings,d
choice_trial,135,11,Male,1404017.5999999642,2.607,A,choice,tdc,attraction_1,2,televisions,NA,NA,NA,NA,NA,NA,1,50,60,60,50,45,60,Screen size,Average lifespan,t
choice_trial,137,11,Male,1404017.5999999642,2.808,C,choice,tdc,attraction_1,1,washing machines,NA,NA,NA,NA,NA,NA,1,60,50,50,60,60,45,Average lifespan,Energy savings,c
choice_trial,139,11,Male,1404017.5999999642,4.413,C,choice,bww,catch,NA,televisions,85,75,40,50,30,25,1,NA,NA,NA,NA,NA,NA,Screen size,Average lifespan,w
choice_trial,141,11,Male,1404017.5999999642,2.026,A,choice,ctd,attraction_1,1,televisions,NA,NA,NA,NA,NA,NA,1,60,50,50,60,60,45,Screen size,Average lifespan,c
choice_trial,143,11,Male,1404017.5999999642,5.488,C,choice,wwb,catch,NA,washing machines,95,55,5,20,35,35,1,NA,NA,NA,NA,NA,NA,Average lifespan,Energy savings,b
choice_trial,145,11,Male,1404017.5999999642,2.988,C,choice,dtc,attraction_1,1,microwave ovens,NA,NA,NA,NA,NA,NA,1,60,50,50,60,60,45,Warranty,Cooking power,c
choice_trial,147,11,Male,1404017.5999999642,2.363,C,choice,wwb,catch,NA,televisions,75,90,20,10,45,15,2,NA,NA,NA,NA,NA,NA,Screen size,Average lifespan,b
choice_trial,149,11,Male,1404017.5999999642,2.314,C,choice,tdc,repulsion_1,1,washing machines,NA,NA,NA,NA,NA,NA,1,100,30,90,40,100,25,Average lifespan,Energy savings,c
choice_trial,151,11,Male,1404017.5999999642,4.848,B,choice,wbw,catch,NA,laptops,80,65,15,5,30,35,1,NA,NA,NA,NA,NA,NA,Processing speed,Memory (RAM),b
choice_trial,153,11,Male,1404017.5999999642,3.841,B,choice,dct,attraction_2,1,microwave ovens,NA,NA,NA,NA,NA,NA,2,60,50,50,60,60,40,Warranty,Cooking power,c
choice_trial,155,11,Male,1404017.5999999642,5.351,B,choice,ctd,repulsion_2,2,laptops,NA,NA,NA,NA,NA,NA,1,30,100,40,90,20,100,Processing speed,Memory (RAM),t
choice_trial,157,11,Male,1404017.5999999642,3.388,C,choice,dct,repulsion_1,2,televisions,NA,NA,NA,NA,NA,NA,2,30,100,40,90,25,100,Screen size,Average lifespan,t
choice_trial,159,11,Male,1404017.5999999642,4.187,C,choice,dct,repulsion_2,2,microwave ovens,NA,NA,NA,NA,NA,NA,1,30,100,40,90,20,100,Warranty,Cooking power,t
choice_trial,161,11,Male,1404017.5999999642,3.437,B,choice,dtc,repulsion_1,2,microwave ovens,NA,NA,NA,NA,NA,NA,1,30,100,40,90,25,100,Warranty,Cooking power,t
choice_trial,163,11,Male,1404017.5999999642,4.126,A,choice,cdt,repulsion_1,1,microwave ovens,NA,NA,NA,NA,NA,NA,1,100,30,90,40,100,25,Warranty,Cooking power,c
choice_trial,85,110,Female,1847571.8999999762,2.084,C,choice,wwb,catch,NA,washing machines,85,90,25,40,50,25,2,NA,NA,NA,NA,NA,NA,Average lifespan,Energy savings,b
choice_trial,87,110,Female,1847571.8999999762,5.055,B,choice,dtc,attraction_2,2,microwave ovens,NA,NA,NA,NA,NA,NA,1,50,60,60,50,40,60,Warranty,Cooking power,t
choice_trial,89,110,Female,1847571.8999999762,3.796,A,choice,cdt,repulsion_1,1,laptops,NA,NA,NA,NA,NA,NA,2,100,30,90,40,100,25,Processing speed,Memory (RAM),c
choice_trial,91,110,Female,1847571.8999999762,1.979,B,choice,dtc,attraction_1,1,televisions,NA,NA,NA,NA,NA,NA,2,60,50,50,60,60,45,Screen size,Average lifespan,t
choice_trial,93,110,Female,1847571.8999999762,1.726,B,choice,wbw,catch,NA,televisions,65,90,30,25,50,15,2,NA,NA,NA,NA,NA,NA,Screen size,Average lifespan,b
choice_trial,95,110,Female,1847571.8999999762,2.214,C,choice,wwb,catch,NA,laptops,60,65,15,10,5,45,1,NA,NA,NA,NA,NA,NA,Processing speed,Memory (RAM),b
choice_trial,97,110,Female,1847571.8999999762,2.677,A,choice,tcd,attraction_2,1,televisions,NA,NA,NA,NA,NA,NA,2,60,50,50,60,60,40,Screen size,Average lifespan,t
choice_trial,99,110,Female,1847571.8999999762,1.706,A,choice,bww,catch,NA,laptops,80,65,20,15,20,35,2,NA,NA,NA,NA,NA,NA,Processing speed,Memory (RAM),b
choice_trial,101,110,Female,1847571.8999999762,2.262,A,choice,cdt,repulsion_2,2,televisions,NA,NA,NA,NA,NA,NA,2,30,100,40,90,20,100,Screen size,Average lifespan,c
choice_trial,103,110,Female,1847571.8999999762,2.659,B,choice,tcd,repulsion_1,2,washing machines,NA,NA,NA,NA,NA,NA,2,30,100,40,90,25,100,Average lifespan,Energy savings,c
choice_trial,105,110,Female,1847571.8999999762,2.742,B,choice,dtc,attraction_2,1,laptops,NA,NA,NA,NA,NA,NA,2,60,50,50,60,60,40,Processing speed,Memory (RAM),t
choice_trial,107,110,Female,1847571.8999999762,1.874,A,choice,cdt,attraction_1,1,microwave ovens,NA,NA,NA,NA,NA,NA,1,60,50,50,60,60,45,Warranty,Cooking power,c
choice_trial,109,110,Female,1847571.8999999762,3.401,C,choice,dtc,repulsion_2,2,laptops,NA,NA,NA,NA,NA,NA,2,30,100,40,90,20,100,Processing speed,Memory (RAM),c
choice_trial,111,110,Female,1847571.8999999762,2.06,B,choice,dct,attraction_2,2,washing machines,NA,NA,NA,NA,NA,NA,1,50,60,60,50,40,60,Average lifespan,Energy savings,c
choice_trial,113,110,Female,1847571.8999999762,2.576,A,choice,bww,catch,NA,microwave ovens,85,85,45,20,35,40,2,NA,NA,NA,NA,NA,NA,Warranty,Cooking power,b
choice_trial,115,110,Female,1847571.8999999762,3.887,C,choice,dct,repulsion_2,2,washing machines,NA,NA,NA,NA,NA,NA,1,30,100,40,90,20,100,Average lifespan,Energy savings,t
choice_trial,117,110,Female,1847571.8999999762,2.617,C,choice,dtc,attraction_1,1,laptops,NA,NA,NA,NA,NA,NA,1,60,50,50,60,60,45,Processing speed,Memory (RAM),c
choice_trial,119,110,Female,1847571.8999999762,1.988,C,choice,wwb,catch,NA,washing machines,75,90,40,20,5,20,2,NA,NA,NA,NA,NA,NA,Average lifespan,Energy savings,b
choice_trial,121,110,Female,1847571.8999999762,2.306,B,choice,dct,repulsion_1,1,microwave ovens,NA,NA,NA,NA,NA,NA,2,100,30,90,40,100,25,Warranty,Cooking power,c
choice_trial,123,110,Female,1847571.8999999762,3.702,C,choice,cdt,attraction_2,1,washing machines,NA,NA,NA,NA,NA,NA,1,60,50,50,60,60,40,Average lifespan,Energy savings,t
choice_trial,125,110,Female,1847571.8999999762,3.26,A,choice,ctd,repulsion_2,1,laptops,NA,NA,NA,NA,NA,NA,2,100,30,90,40,100,20,Processing speed,Memory (RAM),c
choice_trial,127,110,Female,1847571.8999999762,5.601,C,choice,tdc,repulsion_1,1,televisions,NA,NA,NA,NA,NA,NA,2,100,30,90,40,100,25,Screen size,Average lifespan,c
choice_trial,129,110,Female,1847571.8999999762,2.18,A,choice,ctd,attraction_1,2,microwave ovens,NA,NA,NA,NA,NA,NA,1,50,60,60,50,45,60,Warranty,Cooking power,c
choice_trial,131,110,Female,1847571.8999999762,2.049,A,choice,cdt,attraction_1,2,laptops,NA,NA,NA,NA,NA,NA,1,50,60,60,50,45,60,Processing speed,Memory (RAM),c
choice_trial,133,110,Female,1847571.8999999762,3.418,C,choice,cdt,repulsion_2,2,microwave ovens,NA,NA,NA,NA,NA,NA,2,30,100,40,90,20,100,Warranty,Cooking power,t
choice_trial,135,110,Female,1847571.8999999762,3.264,C,choice,dtc,repulsion_1,2,televisions,NA,NA,NA,NA,NA,NA,1,30,100,40,90,25,100,Screen size,Average lifespan,c
choice_trial,137,110,Female,1847571.8999999762,1.769,A,choice,bww,catch,NA,microwave ovens,50,95,15,20,35,45,2,NA,NA,NA,NA,NA,NA,Warranty,Cooking power,b
choice_trial,139,110,Female,1847571.8999999762,3.043,B,choice,tcd,repulsion_2,1,microwave ovens,NA,NA,NA,NA,NA,NA,1,100,30,90,40,100,20,Warranty,Cooking power,c
choice_trial,141,110,Female,1847571.8999999762,2.166,A,choice,ctd,attraction_1,1,washing machines,NA,NA,NA,NA,NA,NA,2,60,50,50,60,60,45,Average lifespan,Energy savings,c
choice_trial,143,110,Female,1847571.8999999762,3.34,A,choice,cdt,repulsion_2,1,televisions,NA,NA,NA,NA,NA,NA,2,100,30,90,40,100,20,Screen size,Average lifespan,c
choice_trial,145,110,Female,1847571.8999999762,2.272,B,choice,wbw,catch,NA,televisions,80,95,15,45,50,40,1,NA,NA,NA,NA,NA,NA,Screen size,Average lifespan,b
choice_trial,147,110,Female,1847571.8999999762,4.096,A,choice,ctd,repulsion_1,2,microwave ovens,NA,NA,NA,NA,NA,NA,1,30,100,40,90,25,100,Warranty,Cooking power,c
choice_trial,149,110,Female,1847571.8999999762,3.244,B,choice,dct,repulsion_1,1,washing machines,NA,NA,NA,NA,NA,NA,2,100,30,90,40,100,25,Average lifespan,Energy savings,c
choice_trial,151,110,Female,1847571.8999999762,2.057,A,choice,tcd,repulsion_1,2,laptops,NA,NA,NA,NA,NA,NA,2,30,100,40,90,25,100,Processing speed,Memory (RAM),t
choice_trial,153,110,Female,1847571.8999999762,2.345,A,choice,tdc,attraction_1,2,televisions,NA,NA,NA,NA,NA,NA,2,50,60,60,50,45,60,Screen size,Average lifespan,t
choice_trial,155,110,Female,1847571.8999999762,2.772,B,choice,dtc,attraction_2,2,laptops,NA,NA,NA,NA,NA,NA,2,50,60,60,50,40,60,Processing speed,Memory (RAM),t
choice_trial,157,110,Female,1847571.8999999762,3.476,B,choice,dct,attraction_2,1,microwave ovens,NA,NA,NA,NA,NA,NA,1,60,50,50,60,60,40,Warranty,Cooking power,c
choice_trial,159,110,Female,1847571.8999999762,2.539,A,choice,tdc,attraction_2,2,televisions,NA,NA,NA,NA,NA,NA,1,50,60,60,50,40,60,Screen size,Average lifespan,t
choice_trial,161,110,Female,1847571.8999999762,2.577,C,choice,tdc,repulsion_2,1,washing machines,NA,NA,NA,NA,NA,NA,1,100,30,90,40,100,20,Average lifespan,Energy savings,c
choice_trial,163,110,Female,1847571.8999999762,3.24,B,choice,tcd,attraction_1,2,washing machines,NA,NA,NA,NA,NA,NA,1,50,60,60,50,45,60,Average lifespan,Energy savings,c
choice_trial,85,114,Female,2282000.699999988,13.235,B,choice,dtc,repulsion_1,2,televisions,NA,NA,NA,NA,NA,NA,2,30,100,40,90,25,100,Screen size,Average lifespan,t
choice_trial,87,114,Female,2282000.699999988,11.475,B,choice,wbw,catch,NA,microwave ovens,60,50,20,35,5,50,2,NA,NA,NA,NA,NA,NA,Warranty,Cooking power,b
choice_trial,89,114,Female,2282000.699999988,8.953,A,choice,tdc,attraction_1,2,televisions,NA,NA,NA,NA,NA,NA,2,50,60,60,50,45,60,Screen size,Average lifespan,t
choice_trial,91,114,Female,2282000.699999988,3.923,A,choice,bww,catch,NA,laptops,60,55,35,30,10,15,1,NA,NA,NA,NA,NA,NA,Processing speed,Memory (RAM),b
choice_trial,93,114,Female,2282000.699999988,5.961,A,choice,tcd,repulsion_1,2,washing machines,NA,NA,NA,NA,NA,NA,2,30,100,40,90,25,100,Average lifespan,Energy savings,t
choice_trial,95,114,Female,2282000.699999988,7.409,B,choice,dct,attraction_1,1,televisions,NA,NA,NA,NA,NA,NA,2,60,50,50,60,60,45,Screen size,Average lifespan,c
choice_trial,97,114,Female,2282000.699999988,5.123,C,choice,dtc,repulsion_2,1,televisions,NA,NA,NA,NA,NA,NA,2,100,30,90,40,100,20,Screen size,Average lifespan,c
choice_trial,99,114,Female,2282000.699999988,4.447,A,choice,bww,catch,NA,televisions,95,95,30,5,50,45,2,NA,NA,NA,NA,NA,NA,Screen size,Average lifespan,b
choice_trial,101,114,Female,2282000.699999988,3.888,C,choice,wwb,catch,NA,washing machines,50,70,10,15,5,35,2,NA,NA,NA,NA,NA,NA,Average lifespan,Energy savings,b
choice_trial,103,114,Female,2282000.699999988,7.75,B,choice,dtc,attraction_2,2,laptops,NA,NA,NA,NA,NA,NA,2,50,60,60,50,40,60,Processing speed,Memory (RAM),t
choice_trial,105,114,Female,2282000.699999988,6.655,B,choice,ctd,attraction_2,2,televisions,NA,NA,NA,NA,NA,NA,2,50,60,60,50,40,60,Screen size,Average lifespan,t
choice_trial,107,114,Female,2282000.699999988,6.113,A,choice,tdc,attraction_1,2,washing machines,NA,NA,NA,NA,NA,NA,2,50,60,60,50,45,60,Average lifespan,Energy savings,t
choice_trial,109,114,Female,2282000.699999988,9.617,A,choice,ctd,repulsion_1,1,laptops,NA,NA,NA,NA,NA,NA,2,100,30,90,40,100,25,Processing speed,Memory (RAM),c
choice_trial,111,114,Female,2282000.699999988,7.579,A,choice,ctd,attraction_1,1,microwave ovens,NA,NA,NA,NA,NA,NA,2,60,50,50,60,60,45,Warranty,Cooking power,c
choice_trial,113,114,Female,2282000.699999988,8.465,A,choice,cdt,attraction_2,2,washing machines,NA,NA,NA,NA,NA,NA,1,50,60,60,50,40,60,Average lifespan,Energy savings,c
choice_trial,115,114,Female,2282000.699999988,7.99,A,choice,cdt,repulsion_2,1,laptops,NA,NA,NA,NA,NA,NA,1,100,30,90,40,100,20,Processing speed,Memory (RAM),c
choice_trial,117,114,Female,2282000.699999988,4.263,B,choice,ctd,attraction_2,2,microwave ovens,NA,NA,NA,NA,NA,NA,2,50,60,60,50,40,60,Warranty,Cooking power,t
choice_trial,119,114,Female,2282000.699999988,6.935,C,choice,cdt,repulsion_2,2,laptops,NA,NA,NA,NA,NA,NA,2,30,100,40,90,20,100,Processing speed,Memory (RAM),t
choice_trial,121,114,Female,2282000.699999988,4.71,B,choice,dtc,repulsion_1,1,washing machines,NA,NA,NA,NA,NA,NA,1,100,30,90,40,100,25,Average lifespan,Energy savings,t
choice_trial,123,114,Female,2282000.699999988,4.696,B,choice,ctd,repulsion_2,1,washing machines,NA,NA,NA,NA,NA,NA,1,100,30,90,40,100,20,Average lifespan,Energy savings,t
choice_trial,125,114,Female,2282000.699999988,6.074,B,choice,ctd,repulsion_2,2,washing machines,NA,NA,NA,NA,NA,NA,2,30,100,40,90,20,100,Average lifespan,Energy savings,t
choice_trial,127,114,Female,2282000.699999988,3.292,B,choice,wbw,catch,NA,washing machines,85,75,20,50,35,15,2,NA,NA,NA,NA,NA,NA,Average lifespan,Energy savings,b
choice_trial,129,114,Female,2282000.699999988,4.406,C,choice,cdt,attraction_1,2,laptops,NA,NA,NA,NA,NA,NA,2,50,60,60,50,45,60,Processing speed,Memory (RAM),t
choice_trial,131,114,Female,2282000.699999988,3.716,A,choice,cdt,attraction_1,2,microwave ovens,NA,NA,NA,NA,NA,NA,1,50,60,60,50,45,60,Warranty,Cooking power,c
choice_trial,133,114,Female,2282000.699999988,5.503,A,choice,cdt,repulsion_2,2,microwave ovens,NA,NA,NA,NA,NA,NA,2,30,100,40,90,20,100,Warranty,Cooking power,c
choice_trial,135,114,Female,2282000.699999988,6.496,A,choice,tdc,attraction_1,1,washing machines,NA,NA,NA,NA,NA,NA,1,60,50,50,60,60,45,Average lifespan,Energy savings,t
choice_trial,137,114,Female,2282000.699999988,8.609,C,choice,cdt,repulsion_2,2,televisions,NA,NA,NA,NA,NA,NA,1,30,100,40,90,20,100,Screen size,Average lifespan,t
choice_trial,139,114,Female,2282000.699999988,4.241,B,choice,dtc,repulsion_1,2,laptops,NA,NA,NA,NA,NA,NA,2,30,100,40,90,25,100,Processing speed,Memory (RAM),t
choice_trial,141,114,Female,2282000.699999988,2.917,A,choice,ctd,repulsion_2,1,microwave ovens,NA,NA,NA,NA,NA,NA,2,100,30,90,40,100,20,Warranty,Cooking power,c
choice_trial,143,114,Female,2282000.699999988,3.13,C,choice,dct,repulsion_1,2,microwave ovens,NA,NA,NA,NA,NA,NA,2,30,100,40,90,25,100,Warranty,Cooking power,t
choice_trial,145,114,Female,2282000.699999988,5.019,C,choice,dtc,attraction_2,1,microwave ovens,NA,NA,NA,NA,NA,NA,2,60,50,50,60,60,40,Warranty,Cooking power,c
choice_trial,147,114,Female,2282000.699999988,28.163,A,choice,tcd,attraction_2,1,washing machines,NA,NA,NA,NA,NA,NA,1,60,50,50,60,60,40,Average lifespan,Energy savings,t
choice_trial,149,114,Female,2282000.699999988,3.005,C,choice,wwb,catch,NA,microwave ovens,65,65,20,25,5,25,2,NA,NA,NA,NA,NA,NA,Warranty,Cooking power,b
choice_trial,151,114,Female,2282000.699999988,3.147,C,choice,wwb,catch,NA,laptops,50,70,25,45,15,15,1,NA,NA,NA,NA,NA,NA,Processing speed,Memory (RAM),b
choice_trial,153,114,Female,2282000.699999988,6.462,A,choice,tcd,repulsion_1,1,televisions,NA,NA,NA,NA,NA,NA,1,100,30,90,40,100,25,Screen size,Average lifespan,t
choice_trial,155,114,Female,2282000.699999988,3.08,A,choice,ctd,attraction_1,1,laptops,NA,NA,NA,NA,NA,NA,2,60,50,50,60,60,45,Processing speed,Memory (RAM),c
choice_trial,157,114,Female,2282000.699999988,9.93,B,choice,dtc,attraction_2,1,laptops,NA,NA,NA,NA,NA,NA,2,60,50,50,60,60,40,Processing speed,Memory (RAM),t
choice_trial,159,114,Female,2282000.699999988,5.046,A,choice,tcd,attraction_2,1,televisions,NA,NA,NA,NA,NA,NA,1,60,50,50,60,60,40,Screen size,Average lifespan,t
choice_trial,161,114,Female,2282000.699999988,4.109,B,choice,wbw,catch,NA,televisions,50,55,5,20,30,5,1,NA,NA,NA,NA,NA,NA,Screen size,Average lifespan,b
choice_trial,163,114,Female,2282000.699999988,5.551,A,choice,cdt,repulsion_1,1,microwave ovens,NA,NA,NA,NA,NA,NA,2,100,30,90,40,100,25,Warranty,Cooking power,c
choice_trial,85,116,Male,2679703,10.221,B,choice,wbw,catch,NA,washing machines,90,95,10,50,45,40,2,NA,NA,NA,NA,NA,NA,Average lifespan,Energy savings,b
choice_trial,87,116,Male,2679703,10.516,B,choice,tcd,attraction_2,1,washing machines,NA,NA,NA,NA,NA,NA,1,60,50,50,60,60,40,Average lifespan,Energy savings,c
choice_trial,89,116,Male,2679703,8.718,C,choice,tdc,repulsion_2,2,microwave ovens,NA,NA,NA,NA,NA,NA,2,30,100,40,90,20,100,Warranty,Cooking power,c
choice_trial,91,116,Male,2679703,5.487,C,choice,tdc,repulsion_1,2,laptops,NA,NA,NA,NA,NA,NA,2,30,100,40,90,25,100,Processing speed,Memory (RAM),c
choice_trial,93,116,Male,2679703,5.296,C,choice,dtc,repulsion_2,2,laptops,NA,NA,NA,NA,NA,NA,2,30,100,40,90,20,100,Processing speed,Memory (RAM),c
choice_trial,95,116,Male,2679703,4.765,C,choice,wwb,catch,NA,microwave ovens,55,50,35,30,50,45,1,NA,NA,NA,NA,NA,NA,Warranty,Cooking power,b
choice_trial,97,116,Male,2679703,4.733,B,choice,dct,attraction_1,2,televisions,NA,NA,NA,NA,NA,NA,1,50,60,60,50,45,60,Screen size,Average lifespan,c
choice_trial,99,116,Male,2679703,4.532,C,choice,wwb,catch,NA,laptops,85,60,5,30,50,20,1,NA,NA,NA,NA,NA,NA,Processing speed,Memory (RAM),b
choice_trial,101,116,Male,2679703,6.106,C,choice,dtc,repulsion_2,2,televisions,NA,NA,NA,NA,NA,NA,1,30,100,40,90,20,100,Screen size,Average lifespan,c
choice_trial,103,116,Male,2679703,23.375,B,choice,tcd,repulsion_1,2,microwave ovens,NA,NA,NA,NA,NA,NA,2,30,100,40,90,25,100,Warranty,Cooking power,c
choice_trial,105,116,Male,2679703,5.586,B,choice,dtc,attraction_1,2,microwave ovens,NA,NA,NA,NA,NA,NA,2,50,60,60,50,45,60,Warranty,Cooking power,t
choice_trial,107,116,Male,2679703,5.418,C,choice,tdc,repulsion_1,2,televisions,NA,NA,NA,NA,NA,NA,1,30,100,40,90,25,100,Screen size,Average lifespan,c
choice_trial,109,116,Male,2679703,4.912,C,choice,wwb,catch,NA,televisions,50,90,45,15,30,15,1,NA,NA,NA,NA,NA,NA,Screen size,Average lifespan,b
choice_trial,111,116,Male,2679703,7.317,C,choice,tdc,attraction_1,1,washing machines,NA,NA,NA,NA,NA,NA,1,60,50,50,60,60,45,Average lifespan,Energy savings,c
choice_trial,113,116,Male,2679703,5.498,C,choice,wwb,catch,NA,televisions,80,80,45,50,15,35,1,NA,NA,NA,NA,NA,NA,Screen size,Average lifespan,b
choice_trial,115,116,Male,2679703,8.538,B,choice,wbw,catch,NA,microwave ovens,65,65,25,50,10,40,2,NA,NA,NA,NA,NA,NA,Warranty,Cooking power,b
choice_trial,117,116,Male,2679703,4.686,B,choice,tcd,repulsion_2,2,washing machines,NA,NA,NA,NA,NA,NA,2,30,100,40,90,20,100,Average lifespan,Energy savings,c
choice_trial,119,116,Male,2679703,15.622,C,choice,cdt,attraction_1,1,televisions,NA,NA,NA,NA,NA,NA,2,60,50,50,60,60,45,Screen size,Average lifespan,t
choice_trial,121,116,Male,2679703,7.329,B,choice,dtc,attraction_2,2,washing machines,NA,NA,NA,NA,NA,NA,1,50,60,60,50,40,60,Average lifespan,Energy savings,t
choice_trial,123,116,Male,2679703,13.532,B,choice,tcd,attraction_1,1,laptops,NA,NA,NA,NA,NA,NA,1,60,50,50,60,60,45,Processing speed,Memory (RAM),c
choice_trial,125,116,Male,2679703,6.726,B,choice,tcd,repulsion_2,1,washing machines,NA,NA,NA,NA,NA,NA,1,100,30,90,40,100,20,Average lifespan,Energy savings,c
choice_trial,127,116,Male,2679703,11.07,C,choice,tdc,repulsion_2,1,televisions,NA,NA,NA,NA,NA,NA,2,100,30,90,40,100,20,Screen size,Average lifespan,c
choice_trial,129,116,Male,2679703,8.296,C,choice,dtc,repulsion_2,1,microwave ovens,NA,NA,NA,NA,NA,NA,1,100,30,90,40,100,20,Warranty,Cooking power,c
choice_trial,131,116,Male,2679703,42.507,A,choice,tdc,attraction_1,2,washing machines,NA,NA,NA,NA,NA,NA,1,50,60,60,50,45,60,Average lifespan,Energy savings,t
choice_trial,133,116,Male,2679703,5.435,C,choice,dct,attraction_2,1,televisions,NA,NA,NA,NA,NA,NA,1,60,50,50,60,60,40,Screen size,Average lifespan,t
choice_trial,135,116,Male,2679703,10.314,B,choice,tcd,repulsion_2,1,laptops,NA,NA,NA,NA,NA,NA,2,100,30,90,40,100,20,Processing speed,Memory (RAM),c
choice_trial,137,116,Male,2679703,11.554,B,choice,dct,attraction_2,2,microwave ovens,NA,NA,NA,NA,NA,NA,1,50,60,60,50,40,60,Warranty,Cooking power,c
choice_trial,139,116,Male,2679703,17.452,C,choice,dct,attraction_2,1,microwave ovens,NA,NA,NA,NA,NA,NA,2,60,50,50,60,60,40,Warranty,Cooking power,t
choice_trial,141,116,Male,2679703,13.044,A,choice,bww,catch,NA,laptops,80,90,30,5,5,10,1,NA,NA,NA,NA,NA,NA,Processing speed,Memory (RAM),b
choice_trial,143,116,Male,2679703,23.136,B,choice,wbw,catch,NA,washing machines,80,85,20,50,15,10,1,NA,NA,NA,NA,NA,NA,Average lifespan,Energy savings,b
choice_trial,145,116,Male,2679703,9.282,C,choice,dtc,repulsion_1,2,washing machines,NA,NA,NA,NA,NA,NA,2,30,100,40,90,25,100,Average lifespan,Energy savings,c
choice_trial,147,116,Male,2679703,9.13,B,choice,dct,repulsion_1,1,washing machines,NA,NA,NA,NA,NA,NA,2,100,30,90,40,100,25,Average lifespan,Energy savings,c
choice_trial,149,116,Male,2679703,20.655,A,choice,ctd,attraction_1,2,laptops,NA,NA,NA,NA,NA,NA,1,50,60,60,50,45,60,Processing speed,Memory (RAM),c
choice_trial,151,116,Male,2679703,13.348,A,choice,cdt,repulsion_1,1,televisions,NA,NA,NA,NA,NA,NA,2,100,30,90,40,100,25,Screen size,Average lifespan,c
choice_trial,153,116,Male,2679703,24.874,A,choice,tcd,attraction_2,2,televisions,NA,NA,NA,NA,NA,NA,1,50,60,60,50,40,60,Screen size,Average lifespan,t
choice_trial,155,116,Male,2679703,44.936,A,choice,tdc,attraction_2,1,laptops,NA,NA,NA,NA,NA,NA,1,60,50,50,60,60,40,Processing speed,Memory (RAM),t
choice_trial,157,116,Male,2679703,6.401,A,choice,cdt,repulsion_1,1,laptops,NA,NA,NA,NA,NA,NA,2,100,30,90,40,100,25,Processing speed,Memory (RAM),c
choice_trial,159,116,Male,2679703,7.742,C,choice,dtc,attraction_1,1,microwave ovens,NA,NA,NA,NA,NA,NA,1,60,50,50,60,60,45,Warranty,Cooking power,c
choice_trial,161,116,Male,2679703,5.085,A,choice,cdt,attraction_2,2,laptops,NA,NA,NA,NA,NA,NA,1,50,60,60,50,40,60,Processing speed,Memory (RAM),c
choice_trial,163,116,Male,2679703,7.193,A,choice,ctd,repulsion_1,1,microwave ovens,NA,NA,NA,NA,NA,NA,2,100,30,90,40,100,25,Warranty,Cooking power,c
choice_trial,85,120,Male,2010439.599999994,3.835,B,choice,wbw,catch,NA,microwave ovens,70,95,40,15,35,50,1,NA,NA,NA,NA,NA,NA,Warranty,Cooking power,b
choice_trial,87,120,Male,2010439.599999994,10.287,B,choice,dtc,repulsion_2,2,televisions,NA,NA,NA,NA,NA,NA,1,30,100,40,90,20,100,Screen size,Average lifespan,t
choice_trial,89,120,Male,2010439.599999994,9.991,C,choice,tdc,repulsion_2,1,washing machines,NA,NA,NA,NA,NA,NA,1,100,30,90,40,100,20,Average lifespan,Energy savings,c
choice_trial,91,120,Male,2010439.599999994,3.796,B,choice,wbw,catch,NA,washing machines,90,80,15,15,20,5,1,NA,NA,NA,NA,NA,NA,Average lifespan,Energy savings,b
choice_trial,93,120,Male,2010439.599999994,9.868,C,choice,dct,attraction_2,2,washing machines,NA,NA,NA,NA,NA,NA,1,50,60,60,50,40,60,Average lifespan,Energy savings,t
choice_trial,95,120,Male,2010439.599999994,7.74,C,choice,tdc,attraction_1,1,televisions,NA,NA,NA,NA,NA,NA,2,60,50,50,60,60,45,Screen size,Average lifespan,c
choice_trial,97,120,Male,2010439.599999994,3.535,B,choice,wbw,catch,NA,laptops,75,95,5,20,5,20,1,NA,NA,NA,NA,NA,NA,Processing speed,Memory (RAM),b
choice_trial,99,120,Male,2010439.599999994,7.939,B,choice,dtc,attraction_2,2,microwave ovens,NA,NA,NA,NA,NA,NA,2,50,60,60,50,40,60,Warranty,Cooking power,t
choice_trial,101,120,Male,2010439.599999994,7.251,B,choice,ctd,repulsion_1,2,microwave ovens,NA,NA,NA,NA,NA,NA,2,30,100,40,90,25,100,Warranty,Cooking power,t
choice_trial,103,120,Male,2010439.599999994,9.086,A,choice,cdt,repulsion_1,1,televisions,NA,NA,NA,NA,NA,NA,2,100,30,90,40,100,25,Screen size,Average lifespan,c
choice_trial,105,120,Male,2010439.599999994,3.882,B,choice,wbw,catch,NA,washing machines,50,85,35,35,50,15,2,NA,NA,NA,NA,NA,NA,Average lifespan,Energy savings,b
choice_trial,107,120,Male,2010439.599999994,7.145,B,choice,dct,attraction_2,1,televisions,NA,NA,NA,NA,NA,NA,2,60,50,50,60,60,40,Screen size,Average lifespan,c
choice_trial,109,120,Male,2010439.599999994,5.847,A,choice,tcd,repulsion_2,2,microwave ovens,NA,NA,NA,NA,NA,NA,2,30,100,40,90,20,100,Warranty,Cooking power,t
choice_trial,111,120,Male,2010439.599999994,22.641,C,choice,dct,repulsion_1,2,washing machines,NA,NA,NA,NA,NA,NA,2,30,100,40,90,25,100,Average lifespan,Energy savings,t
choice_trial,113,120,Male,2010439.599999994,14.85,C,choice,cdt,repulsion_1,2,televisions,NA,NA,NA,NA,NA,NA,2,30,100,40,90,25,100,Screen size,Average lifespan,t
choice_trial,115,120,Male,2010439.599999994,3.266,A,choice,bww,catch,NA,microwave ovens,60,80,40,10,30,50,2,NA,NA,NA,NA,NA,NA,Warranty,Cooking power,b
choice_trial,117,120,Male,2010439.599999994,9.205,A,choice,cdt,repulsion_2,1,televisions,NA,NA,NA,NA,NA,NA,2,100,30,90,40,100,20,Screen size,Average lifespan,c
choice_trial,119,120,Male,2010439.599999994,7.019,A,choice,cdt,repulsion_1,1,washing machines,NA,NA,NA,NA,NA,NA,2,100,30,90,40,100,25,Average lifespan,Energy savings,c
choice_trial,121,120,Male,2010439.599999994,9.286,C,choice,dtc,repulsion_2,2,laptops,NA,NA,NA,NA,NA,NA,1,30,100,40,90,20,100,Processing speed,Memory (RAM),c
choice_trial,123,120,Male,2010439.599999994,6.261,C,choice,wwb,catch,NA,televisions,55,90,25,20,20,40,1,NA,NA,NA,NA,NA,NA,Screen size,Average lifespan,b
choice_trial,125,120,Male,2010439.599999994,16.521,C,choice,tdc,attraction_1,1,laptops,NA,NA,NA,NA,NA,NA,1,60,50,50,60,60,45,Processing speed,Memory (RAM),c
choice_trial,127,120,Male,2010439.599999994,9.131,C,choice,dct,attraction_1,2,washing machines,NA,NA,NA,NA,NA,NA,2,50,60,60,50,45,60,Average lifespan,Energy savings,t
choice_trial,129,120,Male,2010439.599999994,6.511,A,choice,ctd,attraction_2,1,microwave ovens,NA,NA,NA,NA,NA,NA,2,60,50,50,60,60,40,Warranty,Cooking power,c
choice_trial,131,120,Male,2010439.599999994,7.124,A,choice,tcd,attraction_1,2,televisions,NA,NA,NA,NA,NA,NA,2,50,60,60,50,45,60,Screen size,Average lifespan,t
choice_trial,133,120,Male,2010439.599999994,7.251,A,choice,cdt,attraction_2,1,washing machines,NA,NA,NA,NA,NA,NA,2,60,50,50,60,60,40,Average lifespan,Energy savings,c
choice_trial,135,120,Male,2010439.599999994,7.537,B,choice,tcd,repulsion_2,1,microwave ovens,NA,NA,NA,NA,NA,NA,2,100,30,90,40,100,20,Warranty,Cooking power,c
choice_trial,137,120,Male,2010439.599999994,16.636,C,choice,tdc,repulsion_2,2,washing machines,NA,NA,NA,NA,NA,NA,1,30,100,40,90,20,100,Average lifespan,Energy savings,c
choice_trial,139,120,Male,2010439.599999994,6.285,A,choice,tdc,attraction_2,1,laptops,NA,NA,NA,NA,NA,NA,2,60,50,50,60,60,40,Processing speed,Memory (RAM),t
choice_trial,141,120,Male,2010439.599999994,5.053,A,choice,tdc,attraction_1,2,laptops,NA,NA,NA,NA,NA,NA,1,50,60,60,50,45,60,Processing speed,Memory (RAM),t
choice_trial,143,120,Male,2010439.599999994,7.525,B,choice,tcd,repulsion_2,1,laptops,NA,NA,NA,NA,NA,NA,2,100,30,90,40,100,20,Processing speed,Memory (RAM),c
choice_trial,145,120,Male,2010439.599999994,16.427,B,choice,ctd,attraction_1,2,microwave ovens,NA,NA,NA,NA,NA,NA,1,50,60,60,50,45,60,Warranty,Cooking power,t
choice_trial,147,120,Male,2010439.599999994,9.376,B,choice,dct,attraction_2,2,laptops,NA,NA,NA,NA,NA,NA,2,50,60,60,50,40,60,Processing speed,Memory (RAM),c
choice_trial,149,120,Male,2010439.599999994,6.911,B,choice,wbw,catch,NA,televisions,75,55,30,50,20,45,1,NA,NA,NA,NA,NA,NA,Screen size,Average lifespan,b
choice_trial,151,120,Male,2010439.599999994,5.196,A,choice,ctd,attraction_1,1,microwave ovens,NA,NA,NA,NA,NA,NA,1,60,50,50,60,60,45,Warranty,Cooking power,c
choice_trial,153,120,Male,2010439.599999994,11.004,B,choice,dct,repulsion_1,1,microwave ovens,NA,NA,NA,NA,NA,NA,1,100,30,90,40,100,25,Warranty,Cooking power,c
choice_trial,155,120,Male,2010439.599999994,7.6,C,choice,dtc,repulsion_1,2,laptops,NA,NA,NA,NA,NA,NA,2,30,100,40,90,25,100,Processing speed,Memory (RAM),c
choice_trial,157,120,Male,2010439.599999994,5.918,B,choice,tcd,repulsion_1,1,laptops,NA,NA,NA,NA,NA,NA,2,100,30,90,40,100,25,Processing speed,Memory (RAM),c
choice_trial,159,120,Male,2010439.599999994,8.01,B,choice,tcd,attraction_1,1,washing machines,NA,NA,NA,NA,NA,NA,2,60,50,50,60,60,45,Average lifespan,Energy savings,c
choice_trial,161,120,Male,2010439.599999994,3.206,A,choice,bww,catch,NA,laptops,85,50,15,10,5,20,1,NA,NA,NA,NA,NA,NA,Processing speed,Memory (RAM),b
choice_trial,163,120,Male,2010439.599999994,6.687,B,choice,ctd,attraction_2,2,televisions,NA,NA,NA,NA,NA,NA,2,50,60,60,50,40,60,Screen size,Average lifespan,t
choice_trial,85,124,Male,1554146.400000006,6.571,B,choice,dct,repulsion_1,1,laptops,NA,NA,NA,NA,NA,NA,2,100,30,90,40,100,25,Processing speed,Memory (RAM),c
choice_trial,87,124,Male,1554146.400000006,2.736,C,choice,wwb,catch,NA,washing machines,55,60,40,10,20,45,2,NA,NA,NA,NA,NA,NA,Average lifespan,Energy savings,b
choice_trial,89,124,Male,1554146.400000006,2.478,B,choice,wbw,catch,NA,laptops,65,90,30,45,20,45,2,NA,NA,NA,NA,NA,NA,Processing speed,Memory (RAM),b
choice_trial,91,124,Male,1554146.400000006,2.684,A,choice,cdt,repulsion_1,1,washing machines,NA,NA,NA,NA,NA,NA,1,100,30,90,40,100,25,Average lifespan,Energy savings,c
choice_trial,93,124,Male,1554146.400000006,2.298,C,choice,wwb,catch,NA,televisions,75,65,50,25,45,5,1,NA,NA,NA,NA,NA,NA,Screen size,Average lifespan,b
choice_trial,95,124,Male,1554146.400000006,2.539,B,choice,wbw,catch,NA,microwave ovens,50,95,10,10,10,45,1,NA,NA,NA,NA,NA,NA,Warranty,Cooking power,b
choice_trial,97,124,Male,1554146.400000006,5.337,A,choice,tdc,repulsion_2,2,microwave ovens,NA,NA,NA,NA,NA,NA,1,30,100,40,90,20,100,Warranty,Cooking power,t
choice_trial,99,124,Male,1554146.400000006,3.369,A,choice,tcd,repulsion_2,2,washing machines,NA,NA,NA,NA,NA,NA,2,30,100,40,90,20,100,Average lifespan,Energy savings,t
choice_trial,101,124,Male,1554146.400000006,33.785,B,choice,dct,attraction_2,2,laptops,NA,NA,NA,NA,NA,NA,2,50,60,60,50,40,60,Processing speed,Memory (RAM),c
choice_trial,103,124,Male,1554146.400000006,3.351,B,choice,dtc,attraction_1,1,televisions,NA,NA,NA,NA,NA,NA,2,60,50,50,60,60,45,Screen size,Average lifespan,t
choice_trial,105,124,Male,1554146.400000006,2.26,A,choice,cdt,attraction_2,1,washing machines,NA,NA,NA,NA,NA,NA,1,60,50,50,60,60,40,Average lifespan,Energy savings,c
choice_trial,107,124,Male,1554146.400000006,2.359,C,choice,cdt,attraction_1,2,microwave ovens,NA,NA,NA,NA,NA,NA,2,50,60,60,50,45,60,Warranty,Cooking power,t
choice_trial,109,124,Male,1554146.400000006,1.957,A,choice,bww,catch,NA,washing machines,90,70,35,35,30,20,2,NA,NA,NA,NA,NA,NA,Average lifespan,Energy savings,b
choice_trial,111,124,Male,1554146.400000006,2.797,A,choice,tcd,attraction_2,2,microwave ovens,NA,NA,NA,NA,NA,NA,1,50,60,60,50,40,60,Warranty,Cooking power,t
choice_trial,113,124,Male,1554146.400000006,2.731,B,choice,dct,repulsion_2,2,televisions,NA,NA,NA,NA,NA,NA,2,30,100,40,90,20,100,Screen size,Average lifespan,c
choice_trial,115,124,Male,1554146.400000006,2.733,B,choice,dtc,attraction_1,2,washing machines,NA,NA,NA,NA,NA,NA,2,50,60,60,50,45,60,Average lifespan,Energy savings,t
choice_trial,117,124,Male,1554146.400000006,5.655,B,choice,tcd,repulsion_2,1,washing machines,NA,NA,NA,NA,NA,NA,1,100,30,90,40,100,20,Average lifespan,Energy savings,c
choice_trial,119,124,Male,1554146.400000006,3.002,B,choice,ctd,attraction_2,2,washing machines,NA,NA,NA,NA,NA,NA,2,50,60,60,50,40,60,Average lifespan,Energy savings,t
choice_trial,121,124,Male,1554146.400000006,4.035,C,choice,dtc,attraction_2,1,microwave ovens,NA,NA,NA,NA,NA,NA,2,60,50,50,60,60,40,Warranty,Cooking power,c
choice_trial,123,124,Male,1554146.400000006,4.851,B,choice,tcd,attraction_2,1,laptops,NA,NA,NA,NA,NA,NA,1,60,50,50,60,60,40,Processing speed,Memory (RAM),c
choice_trial,125,124,Male,1554146.400000006,2.67,A,choice,tdc,attraction_1,1,laptops,NA,NA,NA,NA,NA,NA,2,60,50,50,60,60,45,Processing speed,Memory (RAM),t
choice_trial,127,124,Male,1554146.400000006,2.41,B,choice,tcd,attraction_2,2,televisions,NA,NA,NA,NA,NA,NA,2,50,60,60,50,40,60,Screen size,Average lifespan,c
choice_trial,129,124,Male,1554146.400000006,1.975,A,choice,bww,catch,NA,televisions,65,90,50,50,10,40,2,NA,NA,NA,NA,NA,NA,Screen size,Average lifespan,b
choice_trial,131,124,Male,1554146.400000006,3.599,B,choice,dtc,repulsion_1,1,televisions,NA,NA,NA,NA,NA,NA,2,100,30,90,40,100,25,Screen size,Average lifespan,t
choice_trial,133,124,Male,1554146.400000006,2.296,A,choice,cdt,attraction_1,2,laptops,NA,NA,NA,NA,NA,NA,1,50,60,60,50,45,60,Processing speed,Memory (RAM),c
choice_trial,135,124,Male,1554146.400000006,2.645,A,choice,ctd,repulsion_2,1,microwave ovens,NA,NA,NA,NA,NA,NA,2,100,30,90,40,100,20,Warranty,Cooking power,c
choice_trial,137,124,Male,1554146.400000006,2.663,A,choice,ctd,repulsion_2,1,laptops,NA,NA,NA,NA,NA,NA,1,100,30,90,40,100,20,Processing speed,Memory (RAM),c
choice_trial,139,124,Male,1554146.400000006,3.417,C,choice,tdc,attraction_1,1,washing machines,NA,NA,NA,NA,NA,NA,1,60,50,50,60,60,45,Average lifespan,Energy savings,c
choice_trial,141,124,Male,1554146.400000006,3.228,C,choice,dtc,repulsion_1,1,microwave ovens,NA,NA,NA,NA,NA,NA,2,100,30,90,40,100,25,Warranty,Cooking power,c
choice_trial,143,124,Male,1554146.400000006,2.337,A,choice,cdt,repulsion_1,2,laptops,NA,NA,NA,NA,NA,NA,1,30,100,40,90,25,100,Processing speed,Memory (RAM),c
choice_trial,145,124,Male,1554146.400000006,1.911,A,choice,bww,catch,NA,microwave ovens,90,65,15,50,10,10,2,NA,NA,NA,NA,NA,NA,Warranty,Cooking power,b
choice_trial,147,124,Male,1554146.400000006,3.045,C,choice,cdt,repulsion_1,2,microwave ovens,NA,NA,NA,NA,NA,NA,1,30,100,40,90,25,100,Warranty,Cooking power,t
choice_trial,149,124,Male,1554146.400000006,4.13,C,choice,dtc,attraction_1,1,microwave ovens,NA,NA,NA,NA,NA,NA,1,60,50,50,60,60,45,Warranty,Cooking power,c
choice_trial,151,124,Male,1554146.400000006,5.422,A,choice,tdc,repulsion_1,2,washing machines,NA,NA,NA,NA,NA,NA,2,30,100,40,90,25,100,Average lifespan,Energy savings,t
choice_trial,153,124,Male,1554146.400000006,3.624,A,choice,cdt,attraction_1,2,televisions,NA,NA,NA,NA,NA,NA,2,50,60,60,50,45,60,Screen size,Average lifespan,c
choice_trial,155,124,Male,1554146.400000006,2.53,A,choice,ctd,repulsion_2,2,laptops,NA,NA,NA,NA,NA,NA,2,30,100,40,90,20,100,Processing speed,Memory (RAM),c
choice_trial,157,124,Male,1554146.400000006,2.072,A,choice,tdc,attraction_2,1,televisions,NA,NA,NA,NA,NA,NA,1,60,50,50,60,60,40,Screen size,Average lifespan,t
choice_trial,159,124,Male,1554146.400000006,1.932,C,choice,wwb,catch,NA,laptops,55,85,15,15,50,40,2,NA,NA,NA,NA,NA,NA,Processing speed,Memory (RAM),b
choice_trial,161,124,Male,1554146.400000006,2.158,B,choice,ctd,repulsion_2,1,televisions,NA,NA,NA,NA,NA,NA,2,100,30,90,40,100,20,Screen size,Average lifespan,t
choice_trial,163,124,Male,1554146.400000006,2.799,A,choice,cdt,repulsion_1,2,televisions,NA,NA,NA,NA,NA,NA,2,30,100,40,90,25,100,Screen size,Average lifespan,c
choice_trial,85,129,Male,2823508.8000000715,5.927,C,choice,tdc,repulsion_1,2,washing machines,NA,NA,NA,NA,NA,NA,2,30,100,40,90,25,100,Average lifespan,Energy savings,c
choice_trial,87,129,Male,2823508.8000000715,3.745,B,choice,dct,repulsion_1,1,laptops,NA,NA,NA,NA,NA,NA,1,100,30,90,40,100,25,Processing speed,Memory (RAM),c
choice_trial,89,129,Male,2823508.8000000715,2.916,B,choice,tcd,repulsion_2,2,microwave ovens,NA,NA,NA,NA,NA,NA,1,30,100,40,90,20,100,Warranty,Cooking power,c
choice_trial,91,129,Male,2823508.8000000715,3.237,B,choice,wbw,catch,NA,microwave ovens,75,85,20,45,25,50,1,NA,NA,NA,NA,NA,NA,Warranty,Cooking power,b
choice_trial,93,129,Male,2823508.8000000715,4.919,B,choice,dct,repulsion_2,1,microwave ovens,NA,NA,NA,NA,NA,NA,2,100,30,90,40,100,20,Warranty,Cooking power,c
choice_trial,95,129,Male,2823508.8000000715,3.278,C,choice,wwb,catch,NA,televisions,60,85,35,20,50,40,2,NA,NA,NA,NA,NA,NA,Screen size,Average lifespan,b
choice_trial,97,129,Male,2823508.8000000715,76.749,C,choice,dct,attraction_2,1,televisions,NA,NA,NA,NA,NA,NA,1,60,50,50,60,60,40,Screen size,Average lifespan,t
choice_trial,99,129,Male,2823508.8000000715,3.103,B,choice,tcd,repulsion_1,2,microwave ovens,NA,NA,NA,NA,NA,NA,1,30,100,40,90,25,100,Warranty,Cooking power,c
choice_trial,101,129,Male,2823508.8000000715,2.035,A,choice,bww,catch,NA,washing machines,90,95,50,5,30,5,2,NA,NA,NA,NA,NA,NA,Average lifespan,Energy savings,b
choice_trial,103,129,Male,2823508.8000000715,3.431,A,choice,cdt,repulsion_2,2,washing machines,NA,NA,NA,NA,NA,NA,2,30,100,40,90,20,100,Average lifespan,Energy savings,c
choice_trial,105,129,Male,2823508.8000000715,6.416,C,choice,cdt,attraction_1,1,televisions,NA,NA,NA,NA,NA,NA,2,60,50,50,60,60,45,Screen size,Average lifespan,t
choice_trial,107,129,Male,2823508.8000000715,7.274,A,choice,cdt,attraction_1,2,washing machines,NA,NA,NA,NA,NA,NA,2,50,60,60,50,45,60,Average lifespan,Energy savings,c
choice_trial,109,129,Male,2823508.8000000715,4.182,A,choice,tcd,attraction_2,2,microwave ovens,NA,NA,NA,NA,NA,NA,1,50,60,60,50,40,60,Warranty,Cooking power,t
choice_trial,111,129,Male,2823508.8000000715,8.038,A,choice,cdt,attraction_1,2,televisions,NA,NA,NA,NA,NA,NA,1,50,60,60,50,45,60,Screen size,Average lifespan,c
choice_trial,113,129,Male,2823508.8000000715,5.699,A,choice,bww,catch,NA,televisions,90,55,10,20,35,20,2,NA,NA,NA,NA,NA,NA,Screen size,Average lifespan,b
choice_trial,115,129,Male,2823508.8000000715,6.261,A,choice,ctd,attraction_2,1,microwave ovens,NA,NA,NA,NA,NA,NA,1,60,50,50,60,60,40,Warranty,Cooking power,c
choice_trial,117,129,Male,2823508.8000000715,4.425,B,choice,tcd,repulsion_1,2,laptops,NA,NA,NA,NA,NA,NA,1,30,100,40,90,25,100,Processing speed,Memory (RAM),c
choice_trial,119,129,Male,2823508.8000000715,50.963,A,choice,cdt,attraction_2,1,laptops,NA,NA,NA,NA,NA,NA,1,60,50,50,60,60,40,Processing speed,Memory (RAM),c
choice_trial,121,129,Male,2823508.8000000715,2.835,A,choice,bww,catch,NA,laptops,85,65,5,25,50,25,2,NA,NA,NA,NA,NA,NA,Processing speed,Memory (RAM),b
choice_trial,123,129,Male,2823508.8000000715,4.557,A,choice,ctd,repulsion_2,1,laptops,NA,NA,NA,NA,NA,NA,2,100,30,90,40,100,20,Processing speed,Memory (RAM),c
choice_trial,125,129,Male,2823508.8000000715,1.868,A,choice,bww,catch,NA,washing machines,90,80,15,5,15,35,2,NA,NA,NA,NA,NA,NA,Average lifespan,Energy savings,b
choice_trial,127,129,Male,2823508.8000000715,3.677,B,choice,tcd,repulsion_2,2,televisions,NA,NA,NA,NA,NA,NA,1,30,100,40,90,20,100,Screen size,Average lifespan,c
choice_trial,129,129,Male,2823508.8000000715,3.788,B,choice,dct,repulsion_1,1,microwave ovens,NA,NA,NA,NA,NA,NA,1,100,30,90,40,100,25,Warranty,Cooking power,c
choice_trial,131,129,Male,2823508.8000000715,7.819,A,choice,cdt,attraction_1,1,laptops,NA,NA,NA,NA,NA,NA,2,60,50,50,60,60,45,Processing speed,Memory (RAM),c
choice_trial,133,129,Male,2823508.8000000715,5.543,C,choice,dtc,repulsion_2,1,washing machines,NA,NA,NA,NA,NA,NA,2,100,30,90,40,100,20,Average lifespan,Energy savings,c
choice_trial,135,129,Male,2823508.8000000715,7.915,B,choice,ctd,attraction_1,2,microwave ovens,NA,NA,NA,NA,NA,NA,1,50,60,60,50,45,60,Warranty,Cooking power,t
choice_trial,137,129,Male,2823508.8000000715,22.947,B,choice,dct,attraction_2,1,washing machines,NA,NA,NA,NA,NA,NA,2,60,50,50,60,60,40,Average lifespan,Energy savings,c
choice_trial,139,129,Male,2823508.8000000715,5.136,B,choice,dct,repulsion_1,1,washing machines,NA,NA,NA,NA,NA,NA,2,100,30,90,40,100,25,Average lifespan,Energy savings,c
choice_trial,141,129,Male,2823508.8000000715,3.249,A,choice,ctd,repulsion_2,2,laptops,NA,NA,NA,NA,NA,NA,1,30,100,40,90,20,100,Processing speed,Memory (RAM),c
choice_trial,143,129,Male,2823508.8000000715,6.154,A,choice,cdt,attraction_2,2,laptops,NA,NA,NA,NA,NA,NA,1,50,60,60,50,40,60,Processing speed,Memory (RAM),c
choice_trial,145,129,Male,2823508.8000000715,5.434,B,choice,tcd,repulsion_1,1,televisions,NA,NA,NA,NA,NA,NA,2,100,30,90,40,100,25,Screen size,Average lifespan,c
choice_trial,147,129,Male,2823508.8000000715,4.546,B,choice,dtc,attraction_1,2,laptops,NA,NA,NA,NA,NA,NA,2,50,60,60,50,45,60,Processing speed,Memory (RAM),t
choice_trial,149,129,Male,2823508.8000000715,14.737,A,choice,ctd,attraction_1,1,microwave ovens,NA,NA,NA,NA,NA,NA,1,60,50,50,60,60,45,Warranty,Cooking power,c
choice_trial,151,129,Male,2823508.8000000715,4.026,B,choice,dct,attraction_2,2,televisions,NA,NA,NA,NA,NA,NA,1,50,60,60,50,40,60,Screen size,Average lifespan,c
choice_trial,153,129,Male,2823508.8000000715,5.218,B,choice,wbw,catch,NA,microwave ovens,80,50,30,35,20,20,2,NA,NA,NA,NA,NA,NA,Warranty,Cooking power,b
choice_trial,155,129,Male,2823508.8000000715,114.887,C,choice,dct,attraction_2,2,washing machines,NA,NA,NA,NA,NA,NA,2,50,60,60,50,40,60,Average lifespan,Energy savings,t
choice_trial,157,129,Male,2823508.8000000715,14.456,A,choice,bww,catch,NA,laptops,60,55,35,45,40,20,2,NA,NA,NA,NA,NA,NA,Processing speed,Memory (RAM),b
choice_trial,159,129,Male,2823508.8000000715,2.977,B,choice,dct,repulsion_2,1,televisions,NA,NA,NA,NA,NA,NA,1,100,30,90,40,100,20,Screen size,Average lifespan,c
choice_trial,161,129,Male,2823508.8000000715,5.314,C,choice,dtc,repulsion_1,2,televisions,NA,NA,NA,NA,NA,NA,2,30,100,40,90,25,100,Screen size,Average lifespan,c
choice_trial,163,129,Male,2823508.8000000715,4.537,A,choice,cdt,attraction_1,1,washing machines,NA,NA,NA,NA,NA,NA,2,60,50,50,60,60,45,Average lifespan,Energy savings,c
choice_trial,85,130,Female,1963280.400000006,10.355,A,choice,bww,catch,NA,washing machines,70,60,5,20,35,50,1,NA,NA,NA,NA,NA,NA,Average lifespan,Energy savings,b
choice_trial,87,130,Female,1963280.400000006,5.618,C,choice,dtc,repulsion_1,1,televisions,NA,NA,NA,NA,NA,NA,1,100,30,90,40,100,25,Screen size,Average lifespan,c
choice_trial,89,130,Female,1963280.400000006,7.024,C,choice,dtc,repulsion_2,2,televisions,NA,NA,NA,NA,NA,NA,2,30,100,40,90,20,100,Screen size,Average lifespan,c
choice_trial,91,130,Female,1963280.400000006,9.031,B,choice,dct,attraction_1,1,televisions,NA,NA,NA,NA,NA,NA,1,60,50,50,60,60,45,Screen size,Average lifespan,c
choice_trial,93,130,Female,1963280.400000006,8.361,B,choice,tcd,attraction_2,1,microwave ovens,NA,NA,NA,NA,NA,NA,1,60,50,50,60,60,40,Warranty,Cooking power,c
choice_trial,95,130,Female,1963280.400000006,8.766,C,choice,tdc,attraction_1,2,laptops,NA,NA,NA,NA,NA,NA,2,50,60,60,50,45,60,Processing speed,Memory (RAM),c
choice_trial,97,130,Female,1963280.400000006,4.965,B,choice,wbw,catch,NA,washing machines,90,50,5,25,30,5,2,NA,NA,NA,NA,NA,NA,Average lifespan,Energy savings,b
choice_trial,99,130,Female,1963280.400000006,5.891,C,choice,wwb,catch,NA,televisions,60,75,40,15,50,20,2,NA,NA,NA,NA,NA,NA,Screen size,Average lifespan,b
choice_trial,101,130,Female,1963280.400000006,7.817,B,choice,tcd,repulsion_1,2,washing machines,NA,NA,NA,NA,NA,NA,1,30,100,40,90,25,100,Average lifespan,Energy savings,c
choice_trial,103,130,Female,1963280.400000006,12.526,B,choice,ctd,repulsion_1,1,laptops,NA,NA,NA,NA,NA,NA,2,100,30,90,40,100,25,Processing speed,Memory (RAM),t
choice_trial,105,130,Female,1963280.400000006,12.06,C,choice,dct,attraction_2,1,laptops,NA,NA,NA,NA,NA,NA,2,60,50,50,60,60,40,Processing speed,Memory (RAM),t
choice_trial,107,130,Female,1963280.400000006,6.416,C,choice,wwb,catch,NA,laptops,65,90,50,10,35,15,2,NA,NA,NA,NA,NA,NA,Processing speed,Memory (RAM),b
choice_trial,109,130,Female,1963280.400000006,6.691,B,choice,dct,attraction_2,2,laptops,NA,NA,NA,NA,NA,NA,1,50,60,60,50,40,60,Processing speed,Memory (RAM),c
choice_trial,111,130,Female,1963280.400000006,12.575,B,choice,ctd,attraction_1,1,laptops,NA,NA,NA,NA,NA,NA,1,60,50,50,60,60,45,Processing speed,Memory (RAM),t
choice_trial,113,130,Female,1963280.400000006,7.093,B,choice,dtc,attraction_2,2,washing machines,NA,NA,NA,NA,NA,NA,2,50,60,60,50,40,60,Average lifespan,Energy savings,t
choice_trial,115,130,Female,1963280.400000006,6.977,C,choice,tdc,attraction_1,2,microwave ovens,NA,NA,NA,NA,NA,NA,1,50,60,60,50,45,60,Warranty,Cooking power,c
choice_trial,117,130,Female,1963280.400000006,8.764,A,choice,ctd,attraction_2,1,washing machines,NA,NA,NA,NA,NA,NA,1,60,50,50,60,60,40,Average lifespan,Energy savings,c
choice_trial,119,130,Female,1963280.400000006,4.821,C,choice,dtc,repulsion_2,2,washing machines,NA,NA,NA,NA,NA,NA,2,30,100,40,90,20,100,Average lifespan,Energy savings,c
choice_trial,121,130,Female,1963280.400000006,4.216,C,choice,wwb,catch,NA,televisions,85,55,20,30,25,35,2,NA,NA,NA,NA,NA,NA,Screen size,Average lifespan,b
choice_trial,123,130,Female,1963280.400000006,4.139,C,choice,wwb,catch,NA,microwave ovens,95,80,35,45,35,30,2,NA,NA,NA,NA,NA,NA,Warranty,Cooking power,b
choice_trial,125,130,Female,1963280.400000006,8.861,A,choice,tcd,attraction_2,2,microwave ovens,NA,NA,NA,NA,NA,NA,2,50,60,60,50,40,60,Warranty,Cooking power,t
choice_trial,127,130,Female,1963280.400000006,7.501,B,choice,tcd,repulsion_2,2,laptops,NA,NA,NA,NA,NA,NA,2,30,100,40,90,20,100,Processing speed,Memory (RAM),c
choice_trial,129,130,Female,1963280.400000006,9.253,B,choice,tcd,repulsion_1,2,laptops,NA,NA,NA,NA,NA,NA,1,30,100,40,90,25,100,Processing speed,Memory (RAM),c
choice_trial,131,130,Female,1963280.400000006,6.385,C,choice,cdt,attraction_1,2,washing machines,NA,NA,NA,NA,NA,NA,2,50,60,60,50,45,60,Average lifespan,Energy savings,t
choice_trial,133,130,Female,1963280.400000006,6.491,B,choice,dct,repulsion_2,1,washing machines,NA,NA,NA,NA,NA,NA,2,100,30,90,40,100,20,Average lifespan,Energy savings,c
choice_trial,135,130,Female,1963280.400000006,4.714,B,choice,wbw,catch,NA,microwave ovens,65,55,35,50,30,40,1,NA,NA,NA,NA,NA,NA,Warranty,Cooking power,b
choice_trial,137,130,Female,1963280.400000006,5.252,C,choice,dtc,repulsion_2,1,laptops,NA,NA,NA,NA,NA,NA,2,100,30,90,40,100,20,Processing speed,Memory (RAM),c
choice_trial,139,130,Female,1963280.400000006,8.682,C,choice,tdc,attraction_1,1,microwave ovens,NA,NA,NA,NA,NA,NA,1,60,50,50,60,60,45,Warranty,Cooking power,c
