participant,screen_id,trial_index,time_elapsed,internal_node_id,condition,user_agent,device,browser,ppt_id,gender,other_countries,prev_study,exp_duration,view_history,rt,stimulus,response,phase,order,set,effect,t_high,category,d1_best,d2_best,d1_worst1,d2_worst1,d1_worst2,d2_worst2,first_dim,d1_t,d1_c,d1_d,d2_t,d2_c,d2_d,d1_name,d2_name,choice
47,choice_trial,5,140630,0.0-4.0-1.0,1,"Mozilla/5.0 (Macintosh; Intel Mac OS X 10_15_7) AppleWebKit/605.1.15 (KHTML, like Gecko) Version/16.1 Safari/605.1.15",Macintosh,Safari,bvf665e21o5ypl7,Female,"India - 18 years 
US - 2 years",I'm not sure,434730,NA,9.823,NA,B,choice,dct,trinary,repulsion_A,1,laptops,NA,NA,NA,NA,NA,NA,2,100,90,100,30,40,20,Processing speed,Memory (RAM),c
47,choice_trial,7,147327,0.0-4.0-1.1,1,"Mozilla/5.0 (Macintosh; Intel Mac OS X 10_15_7) AppleWebKit/605.1.15 (KHTML, like Gecko) Version/16.1 Safari/605.1.15",Macintosh,Safari,bvf665e21o5ypl7,Female,"India - 18 years 
US - 2 years",I'm not sure,434730,NA,6.39,NA,C,choice,tdc,trinary,attraction,2,laptops,NA,NA,NA,NA,NA,NA,2,50,60,40,60,50,60,Processing speed,Memory (RAM),c
47,choice_trial,9,154068,0.0-4.0-1.2,1,"Mozilla/5.0 (Macintosh; Intel Mac OS X 10_15_7) AppleWebKit/605.1.15 (KHTML, like Gecko) Version/16.1 Safari/605.1.15",Macintosh,Safari,bvf665e21o5ypl7,Female,"India - 18 years 
US - 2 years",I'm not sure,434730,NA,6.432,NA,B,choice,tdc,trinary,repulsion_A,2,washing machines,NA,NA,NA,NA,NA,NA,2,30,40,20,100,90,100,Average lifespan,Energy savings,d
47,choice_trial,11,159883,0.0-4.0-1.3,1,"Mozilla/5.0 (Macintosh; Intel Mac OS X 10_15_7) AppleWebKit/605.1.15 (KHTML, like Gecko) Version/16.1 Safari/605.1.15",Macintosh,Safari,bvf665e21o5ypl7,Female,"India - 18 years 
US - 2 years",I'm not sure,434730,NA,5.508,NA,B,choice,ctd,trinary,repulsion_A,2,laptops,NA,NA,NA,NA,NA,NA,2,30,40,20,100,90,100,Processing speed,Memory (RAM),t
47,choice_trial,13,163894,0.0-4.0-1.4,1,"Mozilla/5.0 (Macintosh; Intel Mac OS X 10_15_7) AppleWebKit/605.1.15 (KHTML, like Gecko) Version/16.1 Safari/605.1.15",Macintosh,Safari,bvf665e21o5ypl7,Female,"India - 18 years 
US - 2 years",I'm not sure,434730,NA,3.703,NA,B,choice,wb,binary,catch,NA,televisions,65,75,25,40,NA,NA,2,NA,NA,NA,NA,NA,NA,Screen size,Average lifespan,b
47,choice_trial,15,171107,0.0-4.0-1.5,1,"Mozilla/5.0 (Macintosh; Intel Mac OS X 10_15_7) AppleWebKit/605.1.15 (KHTML, like Gecko) Version/16.1 Safari/605.1.15",Macintosh,Safari,bvf665e21o5ypl7,Female,"India - 18 years 
US - 2 years",I'm not sure,434730,NA,6.905,NA,C,choice,dct,trinary,attraction,1,washing machines,NA,NA,NA,NA,NA,NA,1,60,50,60,50,60,40,Average lifespan,Energy savings,t
47,choice_trial,17,175375,0.0-4.0-1.6,1,"Mozilla/5.0 (Macintosh; Intel Mac OS X 10_15_7) AppleWebKit/605.1.15 (KHTML, like Gecko) Version/16.1 Safari/605.1.15",Macintosh,Safari,bvf665e21o5ypl7,Female,"India - 18 years 
US - 2 years",I'm not sure,434730,NA,3.959,NA,A,choice,tcd,trinary,repulsion_B,2,washing machines,NA,NA,NA,NA,NA,NA,1,40,30,40,90,100,80,Average lifespan,Energy savings,t
47,choice_trial,19,184878,0.0-4.0-1.7,1,"Mozilla/5.0 (Macintosh; Intel Mac OS X 10_15_7) AppleWebKit/605.1.15 (KHTML, like Gecko) Version/16.1 Safari/605.1.15",Macintosh,Safari,bvf665e21o5ypl7,Female,"India - 18 years 
US - 2 years",I'm not sure,434730,NA,9.194,NA,C,choice,dct,trinary,repulsion_B,1,laptops,NA,NA,NA,NA,NA,NA,1,90,100,80,40,30,40,Processing speed,Memory (RAM),t
47,choice_trial,21,190198,0.0-4.0-1.8,1,"Mozilla/5.0 (Macintosh; Intel Mac OS X 10_15_7) AppleWebKit/605.1.15 (KHTML, like Gecko) Version/16.1 Safari/605.1.15",Macintosh,Safari,bvf665e21o5ypl7,Female,"India - 18 years 
US - 2 years",I'm not sure,434730,NA,5.011,NA,B,choice,tdc,trinary,repulsion_B,1,microwave ovens,NA,NA,NA,NA,NA,NA,1,90,100,80,40,30,40,Warranty,Cooking power,d
47,choice_trial,23,193553,0.0-4.0-1.9,1,"Mozilla/5.0 (Macintosh; Intel Mac OS X 10_15_7) AppleWebKit/605.1.15 (KHTML, like Gecko) Version/16.1 Safari/605.1.15",Macintosh,Safari,bvf665e21o5ypl7,Female,"India - 18 years 
US - 2 years",I'm not sure,434730,NA,3.046,NA,B,choice,wb,binary,catch,NA,laptops,90,65,40,15,NA,NA,2,NA,NA,NA,NA,NA,NA,Processing speed,Memory (RAM),b
47,choice_trial,25,201131,0.0-4.0-1.10,1,"Mozilla/5.0 (Macintosh; Intel Mac OS X 10_15_7) AppleWebKit/605.1.15 (KHTML, like Gecko) Version/16.1 Safari/605.1.15",Macintosh,Safari,bvf665e21o5ypl7,Female,"India - 18 years 
US - 2 years",I'm not sure,434730,NA,7.269,NA,B,choice,dtc,trinary,repulsion_B,2,microwave ovens,NA,NA,NA,NA,NA,NA,1,40,30,40,90,100,80,Warranty,Cooking power,t
47,choice_trial,27,207639,0.0-4.0-1.11,1,"Mozilla/5.0 (Macintosh; Intel Mac OS X 10_15_7) AppleWebKit/605.1.15 (KHTML, like Gecko) Version/16.1 Safari/605.1.15",Macintosh,Safari,bvf665e21o5ypl7,Female,"India - 18 years 
US - 2 years",I'm not sure,434730,NA,6.201,NA,C,choice,cdt,trinary,attraction,2,washing machines,NA,NA,NA,NA,NA,NA,1,50,60,40,60,50,60,Average lifespan,Energy savings,t
47,choice_trial,29,213390,0.0-4.0-1.12,1,"Mozilla/5.0 (Macintosh; Intel Mac OS X 10_15_7) AppleWebKit/605.1.15 (KHTML, like Gecko) Version/16.1 Safari/605.1.15",Macintosh,Safari,bvf665e21o5ypl7,Female,"India - 18 years 
US - 2 years",I'm not sure,434730,NA,5.445,NA,A,choice,ct,binary,repulsion,2,laptops,NA,NA,NA,NA,NA,NA,2,30,40,NA,100,90,NA,Processing speed,Memory (RAM),c
47,choice_trial,31,217836,0.0-4.0-1.13,1,"Mozilla/5.0 (Macintosh; Intel Mac OS X 10_15_7) AppleWebKit/605.1.15 (KHTML, like Gecko) Version/16.1 Safari/605.1.15",Macintosh,Safari,bvf665e21o5ypl7,Female,"India - 18 years 
US - 2 years",I'm not sure,434730,NA,4.137,NA,A,choice,ct,binary,repulsion,1,microwave ovens,NA,NA,NA,NA,NA,NA,1,100,90,NA,30,40,NA,Warranty,Cooking power,c
47,choice_trial,33,222265,0.0-4.0-1.14,1,"Mozilla/5.0 (Macintosh; Intel Mac OS X 10_15_7) AppleWebKit/605.1.15 (KHTML, like Gecko) Version/16.1 Safari/605.1.15",Macintosh,Safari,bvf665e21o5ypl7,Female,"India - 18 years 
US - 2 years",I'm not sure,434730,NA,4.121,NA,B,choice,tc,binary,repulsion,1,washing machines,NA,NA,NA,NA,NA,NA,2,100,90,NA,30,40,NA,Average lifespan,Energy savings,c
47,choice_trial,35,226569,0.0-4.0-1.15,1,"Mozilla/5.0 (Macintosh; Intel Mac OS X 10_15_7) AppleWebKit/605.1.15 (KHTML, like Gecko) Version/16.1 Safari/605.1.15",Macintosh,Safari,bvf665e21o5ypl7,Female,"India - 18 years 
US - 2 years",I'm not sure,434730,NA,3.997,NA,C,choice,dtc,trinary,repulsion_A,1,televisions,NA,NA,NA,NA,NA,NA,1,100,90,100,30,40,20,Screen size,Average lifespan,c
47,choice_trial,37,235066,0.0-4.0-1.16,1,"Mozilla/5.0 (Macintosh; Intel Mac OS X 10_15_7) AppleWebKit/605.1.15 (KHTML, like Gecko) Version/16.1 Safari/605.1.15",Macintosh,Safari,bvf665e21o5ypl7,Female,"India - 18 years 
US - 2 years",I'm not sure,434730,NA,8.188,NA,B,choice,ct,binary,attraction,NA,laptops,NA,NA,NA,NA,NA,NA,1,60,50,NA,50,60,NA,Processing speed,Memory (RAM),t
47,choice_trial,39,239921,0.0-4.0-1.17,1,"Mozilla/5.0 (Macintosh; Intel Mac OS X 10_15_7) AppleWebKit/605.1.15 (KHTML, like Gecko) Version/16.1 Safari/605.1.15",Macintosh,Safari,bvf665e21o5ypl7,Female,"India - 18 years 
US - 2 years",I'm not sure,434730,NA,4.546,NA,C,choice,dct,trinary,repulsion_B,1,televisions,NA,NA,NA,NA,NA,NA,2,90,100,80,40,30,40,Screen size,Average lifespan,t
47,choice_trial,41,245534,0.0-4.0-1.18,1,"Mozilla/5.0 (Macintosh; Intel Mac OS X 10_15_7) AppleWebKit/605.1.15 (KHTML, like Gecko) Version/16.1 Safari/605.1.15",Macintosh,Safari,bvf665e21o5ypl7,Female,"India - 18 years 
US - 2 years",I'm not sure,434730,NA,5.305,NA,A,choice,ct,binary,repulsion,1,televisions,NA,NA,NA,NA,NA,NA,1,100,90,NA,30,40,NA,Screen size,Average lifespan,c
47,choice_trial,43,249731,0.0-4.0-1.19,1,"Mozilla/5.0 (Macintosh; Intel Mac OS X 10_15_7) AppleWebKit/605.1.15 (KHTML, like Gecko) Version/16.1 Safari/605.1.15",Macintosh,Safari,bvf665e21o5ypl7,Female,"India - 18 years 
US - 2 years",I'm not sure,434730,NA,3.888,NA,A,choice,tc,binary,attraction,NA,televisions,NA,NA,NA,NA,NA,NA,2,60,50,NA,50,60,NA,Screen size,Average lifespan,t
47,choice_trial,45,255554,0.0-4.0-1.20,1,"Mozilla/5.0 (Macintosh; Intel Mac OS X 10_15_7) AppleWebKit/605.1.15 (KHTML, like Gecko) Version/16.1 Safari/605.1.15",Macintosh,Safari,bvf665e21o5ypl7,Female,"India - 18 years 
US - 2 years",I'm not sure,434730,NA,5.516,NA,B,choice,dtc,trinary,repulsion_A,2,televisions,NA,NA,NA,NA,NA,NA,2,30,40,20,100,90,100,Screen size,Average lifespan,t
47,choice_trial,47,262653,0.0-4.0-1.21,1,"Mozilla/5.0 (Macintosh; Intel Mac OS X 10_15_7) AppleWebKit/605.1.15 (KHTML, like Gecko) Version/16.1 Safari/605.1.15",Macintosh,Safari,bvf665e21o5ypl7,Female,"India - 18 years 
US - 2 years",I'm not sure,434730,NA,6.789,NA,A,choice,tcd,trinary,attraction,2,televisions,NA,NA,NA,NA,NA,NA,2,50,60,40,60,50,60,Screen size,Average lifespan,t
47,choice_trial,49,270269,0.0-4.0-1.22,1,"Mozilla/5.0 (Macintosh; Intel Mac OS X 10_15_7) AppleWebKit/605.1.15 (KHTML, like Gecko) Version/16.1 Safari/605.1.15",Macintosh,Safari,bvf665e21o5ypl7,Female,"India - 18 years 
US - 2 years",I'm not sure,434730,NA,7.307,NA,A,choice,tcd,trinary,repulsion_A,1,microwave ovens,NA,NA,NA,NA,NA,NA,1,100,90,100,30,40,20,Warranty,Cooking power,t
47,choice_trial,51,276441,0.0-4.0-1.23,1,"Mozilla/5.0 (Macintosh; Intel Mac OS X 10_15_7) AppleWebKit/605.1.15 (KHTML, like Gecko) Version/16.1 Safari/605.1.15",Macintosh,Safari,bvf665e21o5ypl7,Female,"India - 18 years 
US - 2 years",I'm not sure,434730,NA,5.857,NA,C,choice,dct,trinary,repulsion_A,2,microwave ovens,NA,NA,NA,NA,NA,NA,2,30,40,20,100,90,100,Warranty,Cooking power,t
47,choice_trial,53,281562,0.0-4.0-1.24,1,"Mozilla/5.0 (Macintosh; Intel Mac OS X 10_15_7) AppleWebKit/605.1.15 (KHTML, like Gecko) Version/16.1 Safari/605.1.15",Macintosh,Safari,bvf665e21o5ypl7,Female,"India - 18 years 
US - 2 years",I'm not sure,434730,NA,4.811,NA,B,choice,wbw,trinary,catch,NA,microwave ovens,95,70,5,20,5,10,1,NA,NA,NA,NA,NA,NA,Warranty,Cooking power,b
47,choice_trial,55,288115,0.0-4.0-1.25,1,"Mozilla/5.0 (Macintosh; Intel Mac OS X 10_15_7) AppleWebKit/605.1.15 (KHTML, like Gecko) Version/16.1 Safari/605.1.15",Macintosh,Safari,bvf665e21o5ypl7,Female,"India - 18 years 
US - 2 years",I'm not sure,434730,NA,6.243,NA,A,choice,tcd,trinary,attraction,1,televisions,NA,NA,NA,NA,NA,NA,2,60,50,60,50,60,40,Screen size,Average lifespan,t
47,choice_trial,57,293742,0.0-4.0-1.26,1,"Mozilla/5.0 (Macintosh; Intel Mac OS X 10_15_7) AppleWebKit/605.1.15 (KHTML, like Gecko) Version/16.1 Safari/605.1.15",Macintosh,Safari,bvf665e21o5ypl7,Female,"India - 18 years 
US - 2 years",I'm not sure,434730,NA,5.317,NA,B,choice,ctd,trinary,repulsion_A,1,washing machines,NA,NA,NA,NA,NA,NA,1,100,90,100,30,40,20,Average lifespan,Energy savings,t
47,choice_trial,59,297210,0.0-4.0-1.27,1,"Mozilla/5.0 (Macintosh; Intel Mac OS X 10_15_7) AppleWebKit/605.1.15 (KHTML, like Gecko) Version/16.1 Safari/605.1.15",Macintosh,Safari,bvf665e21o5ypl7,Female,"India - 18 years 
US - 2 years",I'm not sure,434730,NA,3.157,NA,A,choice,tcd,trinary,attraction,1,microwave ovens,NA,NA,NA,NA,NA,NA,1,60,50,60,50,60,40,Warranty,Cooking power,t
47,choice_trial,61,299927,0.0-4.0-1.28,1,"Mozilla/5.0 (Macintosh; Intel Mac OS X 10_15_7) AppleWebKit/605.1.15 (KHTML, like Gecko) Version/16.1 Safari/605.1.15",Macintosh,Safari,bvf665e21o5ypl7,Female,"India - 18 years 
US - 2 years",I'm not sure,434730,NA,2.406,NA,A,choice,tc,binary,attraction,NA,microwave ovens,NA,NA,NA,NA,NA,NA,1,60,50,NA,50,60,NA,Warranty,Cooking power,t
47,choice_trial,63,304581,0.0-4.0-1.29,1,"Mozilla/5.0 (Macintosh; Intel Mac OS X 10_15_7) AppleWebKit/605.1.15 (KHTML, like Gecko) Version/16.1 Safari/605.1.15",Macintosh,Safari,bvf665e21o5ypl7,Female,"India - 18 years 
US - 2 years",I'm not sure,434730,NA,4.341,NA,C,choice,cdt,trinary,repulsion_B,2,televisions,NA,NA,NA,NA,NA,NA,1,40,30,40,90,100,80,Screen size,Average lifespan,t
47,choice_trial,65,309571,0.0-4.0-1.30,1,"Mozilla/5.0 (Macintosh; Intel Mac OS X 10_15_7) AppleWebKit/605.1.15 (KHTML, like Gecko) Version/16.1 Safari/605.1.15",Macintosh,Safari,bvf665e21o5ypl7,Female,"India - 18 years 
US - 2 years",I'm not sure,434730,NA,4.679,NA,C,choice,wwb,trinary,catch,NA,washing machines,55,60,40,5,25,35,1,NA,NA,NA,NA,NA,NA,Average lifespan,Energy savings,b
47,choice_trial,67,312589,0.0-4.0-1.31,1,"Mozilla/5.0 (Macintosh; Intel Mac OS X 10_15_7) AppleWebKit/605.1.15 (KHTML, like Gecko) Version/16.1 Safari/605.1.15",Macintosh,Safari,bvf665e21o5ypl7,Female,"India - 18 years 
US - 2 years",I'm not sure,434730,NA,2.707,NA,A,choice,bw,binary,catch,NA,washing machines,90,85,15,50,NA,NA,1,NA,NA,NA,NA,NA,NA,Average lifespan,Energy savings,b
47,choice_trial,69,316638,0.0-4.0-1.32,1,"Mozilla/5.0 (Macintosh; Intel Mac OS X 10_15_7) AppleWebKit/605.1.15 (KHTML, like Gecko) Version/16.1 Safari/605.1.15",Macintosh,Safari,bvf665e21o5ypl7,Female,"India - 18 years 
US - 2 years",I'm not sure,434730,NA,3.738,NA,B,choice,ct,binary,attraction,NA,washing machines,NA,NA,NA,NA,NA,NA,1,60,50,NA,50,60,NA,Average lifespan,Energy savings,t
47,choice_trial,71,319833,0.0-4.0-1.33,1,"Mozilla/5.0 (Macintosh; Intel Mac OS X 10_15_7) AppleWebKit/605.1.15 (KHTML, like Gecko) Version/16.1 Safari/605.1.15",Macintosh,Safari,bvf665e21o5ypl7,Female,"India - 18 years 
US - 2 years",I'm not sure,434730,NA,2.884,NA,A,choice,cdt,trinary,repulsion_B,1,washing machines,NA,NA,NA,NA,NA,NA,1,90,100,80,40,30,40,Average lifespan,Energy savings,c
47,choice_trial,73,323714,0.0-4.0-1.34,1,"Mozilla/5.0 (Macintosh; Intel Mac OS X 10_15_7) AppleWebKit/605.1.15 (KHTML, like Gecko) Version/16.1 Safari/605.1.15",Macintosh,Safari,bvf665e21o5ypl7,Female,"India - 18 years 
US - 2 years",I'm not sure,434730,NA,3.571,NA,B,choice,wbw,trinary,catch,NA,televisions,80,95,30,10,50,5,1,NA,NA,NA,NA,NA,NA,Screen size,Average lifespan,b
47,choice_trial,75,328287,0.0-4.0-1.35,1,"Mozilla/5.0 (Macintosh; Intel Mac OS X 10_15_7) AppleWebKit/605.1.15 (KHTML, like Gecko) Version/16.1 Safari/605.1.15",Macintosh,Safari,bvf665e21o5ypl7,Female,"India - 18 years 
US - 2 years",I'm not sure,434730,NA,4.262,NA,A,choice,ct,binary,repulsion,1,laptops,NA,NA,NA,NA,NA,NA,2,100,90,NA,30,40,NA,Processing speed,Memory (RAM),c
47,choice_trial,77,331491,0.0-4.0-1.36,1,"Mozilla/5.0 (Macintosh; Intel Mac OS X 10_15_7) AppleWebKit/605.1.15 (KHTML, like Gecko) Version/16.1 Safari/605.1.15",Macintosh,Safari,bvf665e21o5ypl7,Female,"India - 18 years 
US - 2 years",I'm not sure,434730,NA,2.894,NA,B,choice,tc,binary,repulsion,2,microwave ovens,NA,NA,NA,NA,NA,NA,2,30,40,NA,100,90,NA,Warranty,Cooking power,c
47,choice_trial,79,335011,0.0-4.0-1.37,1,"Mozilla/5.0 (Macintosh; Intel Mac OS X 10_15_7) AppleWebKit/605.1.15 (KHTML, like Gecko) Version/16.1 Safari/605.1.15",Macintosh,Safari,bvf665e21o5ypl7,Female,"India - 18 years 
US - 2 years",I'm not sure,434730,NA,3.21,NA,B,choice,dtc,trinary,attraction,1,laptops,NA,NA,NA,NA,NA,NA,1,60,50,60,50,60,40,Processing speed,Memory (RAM),t
47,choice_trial,81,337901,0.0-4.0-1.38,1,"Mozilla/5.0 (Macintosh; Intel Mac OS X 10_15_7) AppleWebKit/605.1.15 (KHTML, like Gecko) Version/16.1 Safari/605.1.15",Macintosh,Safari,bvf665e21o5ypl7,Female,"India - 18 years 
US - 2 years",I'm not sure,434730,NA,2.576,NA,B,choice,ct,binary,repulsion,2,washing machines,NA,NA,NA,NA,NA,NA,2,30,40,NA,100,90,NA,Average lifespan,Energy savings,t
47,choice_trial,83,343107,0.0-4.0-1.39,1,"Mozilla/5.0 (Macintosh; Intel Mac OS X 10_15_7) AppleWebKit/605.1.15 (KHTML, like Gecko) Version/16.1 Safari/605.1.15",Macintosh,Safari,bvf665e21o5ypl7,Female,"India - 18 years 
US - 2 years",I'm not sure,434730,NA,4.893,NA,A,choice,ct,binary,repulsion,2,televisions,NA,NA,NA,NA,NA,NA,2,30,40,NA,100,90,NA,Screen size,Average lifespan,c
47,choice_trial,85,346385,0.0-4.0-1.40,1,"Mozilla/5.0 (Macintosh; Intel Mac OS X 10_15_7) AppleWebKit/605.1.15 (KHTML, like Gecko) Version/16.1 Safari/605.1.15",Macintosh,Safari,bvf665e21o5ypl7,Female,"India - 18 years 
US - 2 years",I'm not sure,434730,NA,2.967,NA,A,choice,tdc,trinary,repulsion_B,2,laptops,NA,NA,NA,NA,NA,NA,2,40,30,40,90,100,80,Processing speed,Memory (RAM),t
47,choice_trial,87,349359,0.0-4.0-1.41,1,"Mozilla/5.0 (Macintosh; Intel Mac OS X 10_15_7) AppleWebKit/605.1.15 (KHTML, like Gecko) Version/16.1 Safari/605.1.15",Macintosh,Safari,bvf665e21o5ypl7,Female,"India - 18 years 
US - 2 years",I'm not sure,434730,NA,2.665,NA,C,choice,wwb,trinary,catch,NA,laptops,75,50,5,35,15,45,2,NA,NA,NA,NA,NA,NA,Processing speed,Memory (RAM),b
47,choice_trial,89,354326,0.0-4.0-1.42,1,"Mozilla/5.0 (Macintosh; Intel Mac OS X 10_15_7) AppleWebKit/605.1.15 (KHTML, like Gecko) Version/16.1 Safari/605.1.15",Macintosh,Safari,bvf665e21o5ypl7,Female,"India - 18 years 
US - 2 years",I'm not sure,434730,NA,4.656,NA,A,choice,bw,binary,catch,NA,microwave ovens,70,75,45,45,NA,NA,1,NA,NA,NA,NA,NA,NA,Warranty,Cooking power,b
47,choice_trial,91,357798,0.0-4.0-1.43,1,"Mozilla/5.0 (Macintosh; Intel Mac OS X 10_15_7) AppleWebKit/605.1.15 (KHTML, like Gecko) Version/16.1 Safari/605.1.15",Macintosh,Safari,bvf665e21o5ypl7,Female,"India - 18 years 
US - 2 years",I'm not sure,434730,NA,3.159,NA,A,choice,tcd,trinary,attraction,2,microwave ovens,NA,NA,NA,NA,NA,NA,2,50,60,40,60,50,60,Warranty,Cooking power,t
48,choice_trial,5,72273,0.0-4.0-1.0,1,"Mozilla/5.0 (Macintosh; Intel Mac OS X 10_15_7) AppleWebKit/537.36 (KHTML, like Gecko) Chrome/134.0.0.0 Safari/537.36",Macintosh,Chrome,om0r7pllll9qdfs,Male,"Singapore, India, Canada",No,427331.59999996424,NA,8.956,NA,B,choice,tc,binary,attraction,NA,washing machines,NA,NA,NA,NA,NA,NA,1,60,50,NA,50,60,NA,Average lifespan,Energy savings,c
48,choice_trial,7,79014,0.0-4.0-1.1,1,"Mozilla/5.0 (Macintosh; Intel Mac OS X 10_15_7) AppleWebKit/537.36 (KHTML, like Gecko) Chrome/134.0.0.0 Safari/537.36",Macintosh,Chrome,om0r7pllll9qdfs,Male,"Singapore, India, Canada",No,427331.59999996424,NA,6.435,NA,C,choice,cdt,trinary,attraction,1,televisions,NA,NA,NA,NA,NA,NA,1,60,50,60,50,60,40,Screen size,Average lifespan,t
48,choice_trial,9,88307,0.0-4.0-1.2,1,"Mozilla/5.0 (Macintosh; Intel Mac OS X 10_15_7) AppleWebKit/537.36 (KHTML, like Gecko) Chrome/134.0.0.0 Safari/537.36",Macintosh,Chrome,om0r7pllll9qdfs,Male,"Singapore, India, Canada",No,427331.59999996424,NA,8.986,NA,B,choice,tc,binary,attraction,NA,microwave ovens,NA,NA,NA,NA,NA,NA,2,60,50,NA,50,60,NA,Warranty,Cooking power,c
48,choice_trial,11,96378,0.0-4.0-1.3,1,"Mozilla/5.0 (Macintosh; Intel Mac OS X 10_15_7) AppleWebKit/537.36 (KHTML, like Gecko) Chrome/134.0.0.0 Safari/537.36",Macintosh,Chrome,om0r7pllll9qdfs,Male,"Singapore, India, Canada",No,427331.59999996424,NA,7.763,NA,A,choice,tcd,trinary,attraction,2,televisions,NA,NA,NA,NA,NA,NA,2,50,60,40,60,50,60,Screen size,Average lifespan,t
48,choice_trial,13,104697,0.0-4.0-1.4,1,"Mozilla/5.0 (Macintosh; Intel Mac OS X 10_15_7) AppleWebKit/537.36 (KHTML, like Gecko) Chrome/134.0.0.0 Safari/537.36",Macintosh,Chrome,om0r7pllll9qdfs,Male,"Singapore, India, Canada",No,427331.59999996424,NA,8.013,NA,A,choice,bw,binary,catch,NA,televisions,95,70,20,20,NA,NA,1,NA,NA,NA,NA,NA,NA,Screen size,Average lifespan,b
48,choice_trial,15,112169,0.0-4.0-1.5,1,"Mozilla/5.0 (Macintosh; Intel Mac OS X 10_15_7) AppleWebKit/537.36 (KHTML, like Gecko) Chrome/134.0.0.0 Safari/537.36",Macintosh,Chrome,om0r7pllll9qdfs,Male,"Singapore, India, Canada",No,427331.59999996424,NA,7.164,NA,B,choice,tc,binary,repulsion,2,laptops,NA,NA,NA,NA,NA,NA,2,30,40,NA,100,90,NA,Processing speed,Memory (RAM),c
48,choice_trial,17,116782,0.0-4.0-1.6,1,"Mozilla/5.0 (Macintosh; Intel Mac OS X 10_15_7) AppleWebKit/537.36 (KHTML, like Gecko) Chrome/134.0.0.0 Safari/537.36",Macintosh,Chrome,om0r7pllll9qdfs,Male,"Singapore, India, Canada",No,427331.59999996424,NA,4.306,NA,A,choice,ct,binary,repulsion,2,washing machines,NA,NA,NA,NA,NA,NA,1,30,40,NA,100,90,NA,Average lifespan,Energy savings,c
48,choice_trial,19,120329,0.0-4.0-1.7,1,"Mozilla/5.0 (Macintosh; Intel Mac OS X 10_15_7) AppleWebKit/537.36 (KHTML, like Gecko) Chrome/134.0.0.0 Safari/537.36",Macintosh,Chrome,om0r7pllll9qdfs,Male,"Singapore, India, Canada",No,427331.59999996424,NA,3.239,NA,A,choice,bw,binary,catch,NA,laptops,60,95,40,10,NA,NA,2,NA,NA,NA,NA,NA,NA,Processing speed,Memory (RAM),b
48,choice_trial,21,125419,0.0-4.0-1.8,1,"Mozilla/5.0 (Macintosh; Intel Mac OS X 10_15_7) AppleWebKit/537.36 (KHTML, like Gecko) Chrome/134.0.0.0 Safari/537.36",Macintosh,Chrome,om0r7pllll9qdfs,Male,"Singapore, India, Canada",No,427331.59999996424,NA,4.783,NA,A,choice,tcd,trinary,repulsion_B,1,washing machines,NA,NA,NA,NA,NA,NA,2,90,100,80,40,30,40,Average lifespan,Energy savings,t
48,choice_trial,23,129263,0.0-4.0-1.9,1,"Mozilla/5.0 (Macintosh; Intel Mac OS X 10_15_7) AppleWebKit/537.36 (KHTML, like Gecko) Chrome/134.0.0.0 Safari/537.36",Macintosh,Chrome,om0r7pllll9qdfs,Male,"Singapore, India, Canada",No,427331.59999996424,NA,3.537,NA,C,choice,tdc,trinary,repulsion_A,2,televisions,NA,NA,NA,NA,NA,NA,1,30,40,20,100,90,100,Screen size,Average lifespan,c
48,choice_trial,25,132914,0.0-4.0-1.10,1,"Mozilla/5.0 (Macintosh; Intel Mac OS X 10_15_7) AppleWebKit/537.36 (KHTML, like Gecko) Chrome/134.0.0.0 Safari/537.36",Macintosh,Chrome,om0r7pllll9qdfs,Male,"Singapore, India, Canada",No,427331.59999996424,NA,3.343,NA,B,choice,wbw,trinary,catch,NA,washing machines,80,80,50,40,15,20,2,NA,NA,NA,NA,NA,NA,Average lifespan,Energy savings,b
48,choice_trial,27,136969,0.0-4.0-1.11,1,"Mozilla/5.0 (Macintosh; Intel Mac OS X 10_15_7) AppleWebKit/537.36 (KHTML, like Gecko) Chrome/134.0.0.0 Safari/537.36",Macintosh,Chrome,om0r7pllll9qdfs,Male,"Singapore, India, Canada",No,427331.59999996424,NA,3.747,NA,C,choice,dct,trinary,attraction,2,washing machines,NA,NA,NA,NA,NA,NA,2,50,60,40,60,50,60,Average lifespan,Energy savings,t
48,choice_trial,29,141057,0.0-4.0-1.12,1,"Mozilla/5.0 (Macintosh; Intel Mac OS X 10_15_7) AppleWebKit/537.36 (KHTML, like Gecko) Chrome/134.0.0.0 Safari/537.36",Macintosh,Chrome,om0r7pllll9qdfs,Male,"Singapore, India, Canada",No,427331.59999996424,NA,3.78,NA,A,choice,ct,binary,repulsion,2,microwave ovens,NA,NA,NA,NA,NA,NA,2,30,40,NA,100,90,NA,Warranty,Cooking power,c
48,choice_trial,31,149415,0.0-4.0-1.13,1,"Mozilla/5.0 (Macintosh; Intel Mac OS X 10_15_7) AppleWebKit/537.36 (KHTML, like Gecko) Chrome/134.0.0.0 Safari/537.36",Macintosh,Chrome,om0r7pllll9qdfs,Male,"Singapore, India, Canada",No,427331.59999996424,NA,8.051,NA,B,choice,tcd,trinary,repulsion_A,1,microwave ovens,NA,NA,NA,NA,NA,NA,1,100,90,100,30,40,20,Warranty,Cooking power,c
48,choice_trial,33,154151,0.0-4.0-1.14,1,"Mozilla/5.0 (Macintosh; Intel Mac OS X 10_15_7) AppleWebKit/537.36 (KHTML, like Gecko) Chrome/134.0.0.0 Safari/537.36",Macintosh,Chrome,om0r7pllll9qdfs,Male,"Singapore, India, Canada",No,427331.59999996424,NA,4.428,NA,C,choice,tdc,trinary,repulsion_A,2,laptops,NA,NA,NA,NA,NA,NA,1,30,40,20,100,90,100,Processing speed,Memory (RAM),c
48,choice_trial,35,162061,0.0-4.0-1.15,1,"Mozilla/5.0 (Macintosh; Intel Mac OS X 10_15_7) AppleWebKit/537.36 (KHTML, like Gecko) Chrome/134.0.0.0 Safari/537.36",Macintosh,Chrome,om0r7pllll9qdfs,Male,"Singapore, India, Canada",No,427331.59999996424,NA,7.601,NA,A,choice,tcd,trinary,repulsion_A,1,televisions,NA,NA,NA,NA,NA,NA,2,100,90,100,30,40,20,Screen size,Average lifespan,t
48,choice_trial,37,168987,0.0-4.0-1.16,1,"Mozilla/5.0 (Macintosh; Intel Mac OS X 10_15_7) AppleWebKit/537.36 (KHTML, like Gecko) Chrome/134.0.0.0 Safari/537.36",Macintosh,Chrome,om0r7pllll9qdfs,Male,"Singapore, India, Canada",No,427331.59999996424,NA,6.616,NA,C,choice,dtc,trinary,repulsion_A,1,laptops,NA,NA,NA,NA,NA,NA,2,100,90,100,30,40,20,Processing speed,Memory (RAM),c
48,choice_trial,39,178044,0.0-4.0-1.17,1,"Mozilla/5.0 (Macintosh; Intel Mac OS X 10_15_7) AppleWebKit/537.36 (KHTML, like Gecko) Chrome/134.0.0.0 Safari/537.36",Macintosh,Chrome,om0r7pllll9qdfs,Male,"Singapore, India, Canada",No,427331.59999996424,NA,8.748,NA,B,choice,ct,binary,attraction,NA,televisions,NA,NA,NA,NA,NA,NA,1,60,50,NA,50,60,NA,Screen size,Average lifespan,t
48,choice_trial,41,183726,0.0-4.0-1.18,1,"Mozilla/5.0 (Macintosh; Intel Mac OS X 10_15_7) AppleWebKit/537.36 (KHTML, like Gecko) Chrome/134.0.0.0 Safari/537.36",Macintosh,Chrome,om0r7pllll9qdfs,Male,"Singapore, India, Canada",No,427331.59999996424,NA,5.373,NA,C,choice,cdt,trinary,repulsion_B,2,laptops,NA,NA,NA,NA,NA,NA,1,40,30,40,90,100,80,Processing speed,Memory (RAM),t
48,choice_trial,43,187667,0.0-4.0-1.19,1,"Mozilla/5.0 (Macintosh; Intel Mac OS X 10_15_7) AppleWebKit/537.36 (KHTML, like Gecko) Chrome/134.0.0.0 Safari/537.36",Macintosh,Chrome,om0r7pllll9qdfs,Male,"Singapore, India, Canada",No,427331.59999996424,NA,3.632,NA,B,choice,wbw,trinary,catch,NA,microwave ovens,60,85,40,40,35,50,2,NA,NA,NA,NA,NA,NA,Warranty,Cooking power,b
48,choice_trial,45,192330,0.0-4.0-1.20,1,"Mozilla/5.0 (Macintosh; Intel Mac OS X 10_15_7) AppleWebKit/537.36 (KHTML, like Gecko) Chrome/134.0.0.0 Safari/537.36",Macintosh,Chrome,om0r7pllll9qdfs,Male,"Singapore, India, Canada",No,427331.59999996424,NA,4.353,NA,B,choice,tc,binary,repulsion,1,microwave ovens,NA,NA,NA,NA,NA,NA,1,100,90,NA,30,40,NA,Warranty,Cooking power,c
48,choice_trial,47,197307,0.0-4.0-1.21,1,"Mozilla/5.0 (Macintosh; Intel Mac OS X 10_15_7) AppleWebKit/537.36 (KHTML, like Gecko) Chrome/134.0.0.0 Safari/537.36",Macintosh,Chrome,om0r7pllll9qdfs,Male,"Singapore, India, Canada",No,427331.59999996424,NA,4.668,NA,C,choice,cdt,trinary,repulsion_B,2,washing machines,NA,NA,NA,NA,NA,NA,2,40,30,40,90,100,80,Average lifespan,Energy savings,t
48,choice_trial,49,202083,0.0-4.0-1.22,1,"Mozilla/5.0 (Macintosh; Intel Mac OS X 10_15_7) AppleWebKit/537.36 (KHTML, like Gecko) Chrome/134.0.0.0 Safari/537.36",Macintosh,Chrome,om0r7pllll9qdfs,Male,"Singapore, India, Canada",No,427331.59999996424,NA,4.468,NA,C,choice,dct,trinary,repulsion_B,1,televisions,NA,NA,NA,NA,NA,NA,1,90,100,80,40,30,40,Screen size,Average lifespan,t
48,choice_trial,51,207287,0.0-4.0-1.23,1,"Mozilla/5.0 (Macintosh; Intel Mac OS X 10_15_7) AppleWebKit/537.36 (KHTML, like Gecko) Chrome/134.0.0.0 Safari/537.36",Macintosh,Chrome,om0r7pllll9qdfs,Male,"Singapore, India, Canada",No,427331.59999996424,NA,4.895,NA,A,choice,ct,binary,repulsion,1,laptops,NA,NA,NA,NA,NA,NA,2,100,90,NA,30,40,NA,Processing speed,Memory (RAM),c
48,choice_trial,53,215664,0.0-4.0-1.24,1,"Mozilla/5.0 (Macintosh; Intel Mac OS X 10_15_7) AppleWebKit/537.36 (KHTML, like Gecko) Chrome/134.0.0.0 Safari/537.36",Macintosh,Chrome,om0r7pllll9qdfs,Male,"Singapore, India, Canada",No,427331.59999996424,NA,8.069,NA,C,choice,dct,trinary,attraction,2,microwave ovens,NA,NA,NA,NA,NA,NA,2,50,60,40,60,50,60,Warranty,Cooking power,t
48,choice_trial,55,220699,0.0-4.0-1.25,1,"Mozilla/5.0 (Macintosh; Intel Mac OS X 10_15_7) AppleWebKit/537.36 (KHTML, like Gecko) Chrome/134.0.0.0 Safari/537.36",Macintosh,Chrome,om0r7pllll9qdfs,Male,"Singapore, India, Canada",No,427331.59999996424,NA,4.727,NA,B,choice,wbw,trinary,catch,NA,televisions,60,65,40,25,15,25,1,NA,NA,NA,NA,NA,NA,Screen size,Average lifespan,b
48,choice_trial,57,225676,0.0-4.0-1.26,1,"Mozilla/5.0 (Macintosh; Intel Mac OS X 10_15_7) AppleWebKit/537.36 (KHTML, like Gecko) Chrome/134.0.0.0 Safari/537.36",Macintosh,Chrome,om0r7pllll9qdfs,Male,"Singapore, India, Canada",No,427331.59999996424,NA,4.668,NA,C,choice,dtc,trinary,repulsion_A,1,washing machines,NA,NA,NA,NA,NA,NA,1,100,90,100,30,40,20,Average lifespan,Energy savings,c
48,choice_trial,59,235098,0.0-4.0-1.27,1,"Mozilla/5.0 (Macintosh; Intel Mac OS X 10_15_7) AppleWebKit/537.36 (KHTML, like Gecko) Chrome/134.0.0.0 Safari/537.36",Macintosh,Chrome,om0r7pllll9qdfs,Male,"Singapore, India, Canada",No,427331.59999996424,NA,9.114,NA,C,choice,dct,trinary,attraction,1,washing machines,NA,NA,NA,NA,NA,NA,2,60,50,60,50,60,40,Average lifespan,Energy savings,t
48,choice_trial,61,242164,0.0-4.0-1.28,1,"Mozilla/5.0 (Macintosh; Intel Mac OS X 10_15_7) AppleWebKit/537.36 (KHTML, like Gecko) Chrome/134.0.0.0 Safari/537.36",Macintosh,Chrome,om0r7pllll9qdfs,Male,"Singapore, India, Canada",No,427331.59999996424,NA,6.754,NA,A,choice,tcd,trinary,repulsion_B,1,microwave ovens,NA,NA,NA,NA,NA,NA,2,90,100,80,40,30,40,Warranty,Cooking power,t
48,choice_trial,63,255122,0.0-4.0-1.29,1,"Mozilla/5.0 (Macintosh; Intel Mac OS X 10_15_7) AppleWebKit/537.36 (KHTML, like Gecko) Chrome/134.0.0.0 Safari/537.36",Macintosh,Chrome,om0r7pllll9qdfs,Male,"Singapore, India, Canada",No,427331.59999996424,NA,12.647,NA,B,choice,ctd,trinary,attraction,2,laptops,NA,NA,NA,NA,NA,NA,1,50,60,40,60,50,60,Processing speed,Memory (RAM),t
48,choice_trial,65,260325,0.0-4.0-1.30,1,"Mozilla/5.0 (Macintosh; Intel Mac OS X 10_15_7) AppleWebKit/537.36 (KHTML, like Gecko) Chrome/134.0.0.0 Safari/537.36",Macintosh,Chrome,om0r7pllll9qdfs,Male,"Singapore, India, Canada",No,427331.59999996424,NA,4.891,NA,B,choice,tc,binary,repulsion,1,washing machines,NA,NA,NA,NA,NA,NA,1,100,90,NA,30,40,NA,Average lifespan,Energy savings,c
48,choice_trial,67,264899,0.0-4.0-1.31,1,"Mozilla/5.0 (Macintosh; Intel Mac OS X 10_15_7) AppleWebKit/537.36 (KHTML, like Gecko) Chrome/134.0.0.0 Safari/537.36",Macintosh,Chrome,om0r7pllll9qdfs,Male,"Singapore, India, Canada",No,427331.59999996424,NA,4.26,NA,B,choice,dct,trinary,repulsion_A,2,washing machines,NA,NA,NA,NA,NA,NA,1,30,40,20,100,90,100,Average lifespan,Energy savings,c
48,choice_trial,69,268476,0.0-4.0-1.32,1,"Mozilla/5.0 (Macintosh; Intel Mac OS X 10_15_7) AppleWebKit/537.36 (KHTML, like Gecko) Chrome/134.0.0.0 Safari/537.36",Macintosh,Chrome,om0r7pllll9qdfs,Male,"Singapore, India, Canada",No,427331.59999996424,NA,3.265,NA,A,choice,tdc,trinary,attraction,1,microwave ovens,NA,NA,NA,NA,NA,NA,1,60,50,60,50,60,40,Warranty,Cooking power,t
48,choice_trial,71,272871,0.0-4.0-1.33,1,"Mozilla/5.0 (Macintosh; Intel Mac OS X 10_15_7) AppleWebKit/537.36 (KHTML, like Gecko) Chrome/134.0.0.0 Safari/537.36",Macintosh,Chrome,om0r7pllll9qdfs,Male,"Singapore, India, Canada",No,427331.59999996424,NA,4.085,NA,B,choice,dct,trinary,attraction,1,laptops,NA,NA,NA,NA,NA,NA,2,60,50,60,50,60,40,Processing speed,Memory (RAM),c
48,choice_trial,73,276877,0.0-4.0-1.34,1,"Mozilla/5.0 (Macintosh; Intel Mac OS X 10_15_7) AppleWebKit/537.36 (KHTML, like Gecko) Chrome/134.0.0.0 Safari/537.36",Macintosh,Chrome,om0r7pllll9qdfs,Male,"Singapore, India, Canada",No,427331.59999996424,NA,3.695,NA,B,choice,ctd,trinary,repulsion_B,2,televisions,NA,NA,NA,NA,NA,NA,2,40,30,40,90,100,80,Screen size,Average lifespan,t
48,choice_trial,75,284526,0.0-4.0-1.35,1,"Mozilla/5.0 (Macintosh; Intel Mac OS X 10_15_7) AppleWebKit/537.36 (KHTML, like Gecko) Chrome/134.0.0.0 Safari/537.36",Macintosh,Chrome,om0r7pllll9qdfs,Male,"Singapore, India, Canada",No,427331.59999996424,NA,7.335,NA,B,choice,ct,binary,attraction,NA,laptops,NA,NA,NA,NA,NA,NA,2,60,50,NA,50,60,NA,Processing speed,Memory (RAM),t
48,choice_trial,77,287723,0.0-4.0-1.36,1,"Mozilla/5.0 (Macintosh; Intel Mac OS X 10_15_7) AppleWebKit/537.36 (KHTML, like Gecko) Chrome/134.0.0.0 Safari/537.36",Macintosh,Chrome,om0r7pllll9qdfs,Male,"Singapore, India, Canada",No,427331.59999996424,NA,2.889,NA,A,choice,ct,binary,repulsion,2,televisions,NA,NA,NA,NA,NA,NA,2,30,40,NA,100,90,NA,Screen size,Average lifespan,c
48,choice_trial,79,292944,0.0-4.0-1.37,1,"Mozilla/5.0 (Macintosh; Intel Mac OS X 10_15_7) AppleWebKit/537.36 (KHTML, like Gecko) Chrome/134.0.0.0 Safari/537.36",Macintosh,Chrome,om0r7pllll9qdfs,Male,"Singapore, India, Canada",No,427331.59999996424,NA,4.906,NA,A,choice,tcd,trinary,repulsion_B,2,microwave ovens,NA,NA,NA,NA,NA,NA,1,40,30,40,90,100,80,Warranty,Cooking power,t
48,choice_trial,81,296512,0.0-4.0-1.38,1,"Mozilla/5.0 (Macintosh; Intel Mac OS X 10_15_7) AppleWebKit/537.36 (KHTML, like Gecko) Chrome/134.0.0.0 Safari/537.36",Macintosh,Chrome,om0r7pllll9qdfs,Male,"Singapore, India, Canada",No,427331.59999996424,NA,3.26,NA,C,choice,wwb,trinary,catch,NA,laptops,55,75,10,35,10,50,1,NA,NA,NA,NA,NA,NA,Processing speed,Memory (RAM),b
48,choice_trial,83,301603,0.0-4.0-1.39,1,"Mozilla/5.0 (Macintosh; Intel Mac OS X 10_15_7) AppleWebKit/537.36 (KHTML, like Gecko) Chrome/134.0.0.0 Safari/537.36",Macintosh,Chrome,om0r7pllll9qdfs,Male,"Singapore, India, Canada",No,427331.59999996424,NA,4.779,NA,B,choice,dtc,trinary,repulsion_B,1,laptops,NA,NA,NA,NA,NA,NA,2,90,100,80,40,30,40,Processing speed,Memory (RAM),t
48,choice_trial,85,307770,0.0-4.0-1.40,1,"Mozilla/5.0 (Macintosh; Intel Mac OS X 10_15_7) AppleWebKit/537.36 (KHTML, like Gecko) Chrome/134.0.0.0 Safari/537.36",Macintosh,Chrome,om0r7pllll9qdfs,Male,"Singapore, India, Canada",No,427331.59999996424,NA,5.859,NA,C,choice,tdc,trinary,repulsion_A,2,microwave ovens,NA,NA,NA,NA,NA,NA,2,30,40,20,100,90,100,Warranty,Cooking power,c
48,choice_trial,87,310726,0.0-4.0-1.41,1,"Mozilla/5.0 (Macintosh; Intel Mac OS X 10_15_7) AppleWebKit/537.36 (KHTML, like Gecko) Chrome/134.0.0.0 Safari/537.36",Macintosh,Chrome,om0r7pllll9qdfs,Male,"Singapore, India, Canada",No,427331.59999996424,NA,2.643,NA,B,choice,tc,binary,repulsion,1,televisions,NA,NA,NA,NA,NA,NA,2,100,90,NA,30,40,NA,Screen size,Average lifespan,c
48,choice_trial,89,313242,0.0-4.0-1.42,1,"Mozilla/5.0 (Macintosh; Intel Mac OS X 10_15_7) AppleWebKit/537.36 (KHTML, like Gecko) Chrome/134.0.0.0 Safari/537.36",Macintosh,Chrome,om0r7pllll9qdfs,Male,"Singapore, India, Canada",No,427331.59999996424,NA,2.204,NA,B,choice,wb,binary,catch,NA,microwave ovens,80,65,45,45,NA,NA,1,NA,NA,NA,NA,NA,NA,Warranty,Cooking power,b
48,choice_trial,91,316699,0.0-4.0-1.43,1,"Mozilla/5.0 (Macintosh; Intel Mac OS X 10_15_7) AppleWebKit/537.36 (KHTML, like Gecko) Chrome/134.0.0.0 Safari/537.36",Macintosh,Chrome,om0r7pllll9qdfs,Male,"Singapore, India, Canada",No,427331.59999996424,NA,3.146,NA,B,choice,wb,binary,catch,NA,washing machines,75,95,25,10,NA,NA,1,NA,NA,NA,NA,NA,NA,Average lifespan,Energy savings,b
49,choice_trial,5,46845,0.0-4.0-1.0,1,"Mozilla/5.0 (Macintosh; Intel Mac OS X 10_15_7) AppleWebKit/537.36 (KHTML, like Gecko) Chrome/135.0.0.0 Safari/537.36",Macintosh,Chrome,jo9yqd4wghosunj,Male,NA,I'm not sure,474680.30000019073,NA,16.804,NA,C,choice,dct,trinary,repulsion_B,2,televisions,NA,NA,NA,NA,NA,NA,1,40,30,40,90,100,80,Screen size,Average lifespan,t
49,choice_trial,7,54674,0.0-4.0-1.1,1,"Mozilla/5.0 (Macintosh; Intel Mac OS X 10_15_7) AppleWebKit/537.36 (KHTML, like Gecko) Chrome/135.0.0.0 Safari/537.36",Macintosh,Chrome,jo9yqd4wghosunj,Male,NA,I'm not sure,474680.30000019073,NA,7.522,NA,C,choice,wwb,trinary,catch,NA,washing machines,60,95,30,25,25,5,1,NA,NA,NA,NA,NA,NA,Average lifespan,Energy savings,b
49,choice_trial,9,58740,0.0-4.0-1.2,1,"Mozilla/5.0 (Macintosh; Intel Mac OS X 10_15_7) AppleWebKit/537.36 (KHTML, like Gecko) Chrome/135.0.0.0 Safari/537.36",Macintosh,Chrome,jo9yqd4wghosunj,Male,NA,I'm not sure,474680.30000019073,NA,3.76,NA,A,choice,bw,binary,catch,NA,washing machines,95,95,20,40,NA,NA,1,NA,NA,NA,NA,NA,NA,Average lifespan,Energy savings,b
49,choice_trial,11,65786,0.0-4.0-1.3,1,"Mozilla/5.0 (Macintosh; Intel Mac OS X 10_15_7) AppleWebKit/537.36 (KHTML, like Gecko) Chrome/135.0.0.0 Safari/537.36",Macintosh,Chrome,jo9yqd4wghosunj,Male,NA,I'm not sure,474680.30000019073,NA,6.741,NA,A,choice,ct,binary,repulsion,2,televisions,NA,NA,NA,NA,NA,NA,2,30,40,NA,100,90,NA,Screen size,Average lifespan,c
49,choice_trial,13,75317,0.0-4.0-1.4,1,"Mozilla/5.0 (Macintosh; Intel Mac OS X 10_15_7) AppleWebKit/537.36 (KHTML, like Gecko) Chrome/135.0.0.0 Safari/537.36",Macintosh,Chrome,jo9yqd4wghosunj,Male,NA,I'm not sure,474680.30000019073,NA,9.225,NA,A,choice,tcd,trinary,repulsion_A,1,laptops,NA,NA,NA,NA,NA,NA,2,100,90,100,30,40,20,Processing speed,Memory (RAM),t
49,choice_trial,15,85344,0.0-4.0-1.5,1,"Mozilla/5.0 (Macintosh; Intel Mac OS X 10_15_7) AppleWebKit/537.36 (KHTML, like Gecko) Chrome/135.0.0.0 Safari/537.36",Macintosh,Chrome,jo9yqd4wghosunj,Male,NA,I'm not sure,474680.30000019073,NA,9.722,NA,A,choice,tcd,trinary,attraction,1,televisions,NA,NA,NA,NA,NA,NA,2,60,50,60,50,60,40,Screen size,Average lifespan,t
49,choice_trial,17,97426,0.0-4.0-1.6,1,"Mozilla/5.0 (Macintosh; Intel Mac OS X 10_15_7) AppleWebKit/537.36 (KHTML, like Gecko) Chrome/135.0.0.0 Safari/537.36",Macintosh,Chrome,jo9yqd4wghosunj,Male,NA,I'm not sure,474680.30000019073,NA,11.777,NA,C,choice,tdc,trinary,repulsion_A,2,laptops,NA,NA,NA,NA,NA,NA,1,30,40,20,100,90,100,Processing speed,Memory (RAM),c
49,choice_trial,19,110385,0.0-4.0-1.7,1,"Mozilla/5.0 (Macintosh; Intel Mac OS X 10_15_7) AppleWebKit/537.36 (KHTML, like Gecko) Chrome/135.0.0.0 Safari/537.36",Macintosh,Chrome,jo9yqd4wghosunj,Male,NA,I'm not sure,474680.30000019073,NA,12.653,NA,C,choice,wwb,trinary,catch,NA,laptops,50,60,20,20,35,35,1,NA,NA,NA,NA,NA,NA,Processing speed,Memory (RAM),b
49,choice_trial,21,116409,0.0-4.0-1.8,1,"Mozilla/5.0 (Macintosh; Intel Mac OS X 10_15_7) AppleWebKit/537.36 (KHTML, like Gecko) Chrome/135.0.0.0 Safari/537.36",Macintosh,Chrome,jo9yqd4wghosunj,Male,NA,I'm not sure,474680.30000019073,NA,5.719,NA,A,choice,tc,binary,attraction,NA,televisions,NA,NA,NA,NA,NA,NA,1,60,50,NA,50,60,NA,Screen size,Average lifespan,t
49,choice_trial,23,124031,0.0-4.0-1.9,1,"Mozilla/5.0 (Macintosh; Intel Mac OS X 10_15_7) AppleWebKit/537.36 (KHTML, like Gecko) Chrome/135.0.0.0 Safari/537.36",Macintosh,Chrome,jo9yqd4wghosunj,Male,NA,I'm not sure,474680.30000019073,NA,7.316,NA,A,choice,tdc,trinary,repulsion_A,2,televisions,NA,NA,NA,NA,NA,NA,2,30,40,20,100,90,100,Screen size,Average lifespan,t
49,choice_trial,25,127395,0.0-4.0-1.10,1,"Mozilla/5.0 (Macintosh; Intel Mac OS X 10_15_7) AppleWebKit/537.36 (KHTML, like Gecko) Chrome/135.0.0.0 Safari/537.36",Macintosh,Chrome,jo9yqd4wghosunj,Male,NA,I'm not sure,474680.30000019073,NA,3.057,NA,A,choice,bw,binary,catch,NA,laptops,85,65,45,25,NA,NA,1,NA,NA,NA,NA,NA,NA,Processing speed,Memory (RAM),b
49,choice_trial,27,130222,0.0-4.0-1.11,1,"Mozilla/5.0 (Macintosh; Intel Mac OS X 10_15_7) AppleWebKit/537.36 (KHTML, like Gecko) Chrome/135.0.0.0 Safari/537.36",Macintosh,Chrome,jo9yqd4wghosunj,Male,NA,I'm not sure,474680.30000019073,NA,2.521,NA,A,choice,bw,binary,catch,NA,televisions,50,90,25,10,NA,NA,1,NA,NA,NA,NA,NA,NA,Screen size,Average lifespan,b
49,choice_trial,29,137692,0.0-4.0-1.12,1,"Mozilla/5.0 (Macintosh; Intel Mac OS X 10_15_7) AppleWebKit/537.36 (KHTML, like Gecko) Chrome/135.0.0.0 Safari/537.36",Macintosh,Chrome,jo9yqd4wghosunj,Male,NA,I'm not sure,474680.30000019073,NA,7.164,NA,C,choice,dtc,trinary,repulsion_A,1,televisions,NA,NA,NA,NA,NA,NA,2,100,90,100,30,40,20,Screen size,Average lifespan,c
49,choice_trial,31,143110,0.0-4.0-1.13,1,"Mozilla/5.0 (Macintosh; Intel Mac OS X 10_15_7) AppleWebKit/537.36 (KHTML, like Gecko) Chrome/135.0.0.0 Safari/537.36",Macintosh,Chrome,jo9yqd4wghosunj,Male,NA,I'm not sure,474680.30000019073,NA,5.111,NA,C,choice,cdt,trinary,attraction,2,microwave ovens,NA,NA,NA,NA,NA,NA,2,50,60,40,60,50,60,Warranty,Cooking power,t
49,choice_trial,33,150412,0.0-4.0-1.14,1,"Mozilla/5.0 (Macintosh; Intel Mac OS X 10_15_7) AppleWebKit/537.36 (KHTML, like Gecko) Chrome/135.0.0.0 Safari/537.36",Macintosh,Chrome,jo9yqd4wghosunj,Male,NA,I'm not sure,474680.30000019073,NA,6.995,NA,B,choice,ctd,trinary,attraction,1,laptops,NA,NA,NA,NA,NA,NA,1,60,50,60,50,60,40,Processing speed,Memory (RAM),t
49,choice_trial,35,156644,0.0-4.0-1.15,1,"Mozilla/5.0 (Macintosh; Intel Mac OS X 10_15_7) AppleWebKit/537.36 (KHTML, like Gecko) Chrome/135.0.0.0 Safari/537.36",Macintosh,Chrome,jo9yqd4wghosunj,Male,NA,I'm not sure,474680.30000019073,NA,5.926,NA,C,choice,dtc,trinary,attraction,1,washing machines,NA,NA,NA,NA,NA,NA,2,60,50,60,50,60,40,Average lifespan,Energy savings,c
49,choice_trial,37,162548,0.0-4.0-1.16,1,"Mozilla/5.0 (Macintosh; Intel Mac OS X 10_15_7) AppleWebKit/537.36 (KHTML, like Gecko) Chrome/135.0.0.0 Safari/537.36",Macintosh,Chrome,jo9yqd4wghosunj,Male,NA,I'm not sure,474680.30000019073,NA,5.596,NA,A,choice,ct,binary,repulsion,2,washing machines,NA,NA,NA,NA,NA,NA,1,30,40,NA,100,90,NA,Average lifespan,Energy savings,c
49,choice_trial,39,170298,0.0-4.0-1.17,1,"Mozilla/5.0 (Macintosh; Intel Mac OS X 10_15_7) AppleWebKit/537.36 (KHTML, like Gecko) Chrome/135.0.0.0 Safari/537.36",Macintosh,Chrome,jo9yqd4wghosunj,Male,NA,I'm not sure,474680.30000019073,NA,7.443,NA,B,choice,ctd,trinary,repulsion_B,1,microwave ovens,NA,NA,NA,NA,NA,NA,2,90,100,80,40,30,40,Warranty,Cooking power,t
49,choice_trial,41,179925,0.0-4.0-1.18,1,"Mozilla/5.0 (Macintosh; Intel Mac OS X 10_15_7) AppleWebKit/537.36 (KHTML, like Gecko) Chrome/135.0.0.0 Safari/537.36",Macintosh,Chrome,jo9yqd4wghosunj,Male,NA,I'm not sure,474680.30000019073,NA,9.32,NA,A,choice,tc,binary,repulsion,2,microwave ovens,NA,NA,NA,NA,NA,NA,2,30,40,NA,100,90,NA,Warranty,Cooking power,t
49,choice_trial,43,185534,0.0-4.0-1.19,1,"Mozilla/5.0 (Macintosh; Intel Mac OS X 10_15_7) AppleWebKit/537.36 (KHTML, like Gecko) Chrome/135.0.0.0 Safari/537.36",Macintosh,Chrome,jo9yqd4wghosunj,Male,NA,I'm not sure,474680.30000019073,NA,5.301,NA,C,choice,tdc,trinary,repulsion_A,1,washing machines,NA,NA,NA,NA,NA,NA,1,100,90,100,30,40,20,Average lifespan,Energy savings,c
49,choice_trial,45,190814,0.0-4.0-1.20,1,"Mozilla/5.0 (Macintosh; Intel Mac OS X 10_15_7) AppleWebKit/537.36 (KHTML, like Gecko) Chrome/135.0.0.0 Safari/537.36",Macintosh,Chrome,jo9yqd4wghosunj,Male,NA,I'm not sure,474680.30000019073,NA,4.972,NA,B,choice,dct,trinary,repulsion_A,2,washing machines,NA,NA,NA,NA,NA,NA,2,30,40,20,100,90,100,Average lifespan,Energy savings,c
49,choice_trial,47,195761,0.0-4.0-1.21,1,"Mozilla/5.0 (Macintosh; Intel Mac OS X 10_15_7) AppleWebKit/537.36 (KHTML, like Gecko) Chrome/135.0.0.0 Safari/537.36",Macintosh,Chrome,jo9yqd4wghosunj,Male,NA,I'm not sure,474680.30000019073,NA,4.639,NA,A,choice,tc,binary,attraction,NA,laptops,NA,NA,NA,NA,NA,NA,2,60,50,NA,50,60,NA,Processing speed,Memory (RAM),t
49,choice_trial,49,199890,0.0-4.0-1.22,1,"Mozilla/5.0 (Macintosh; Intel Mac OS X 10_15_7) AppleWebKit/537.36 (KHTML, like Gecko) Chrome/135.0.0.0 Safari/537.36",Macintosh,Chrome,jo9yqd4wghosunj,Male,NA,I'm not sure,474680.30000019073,NA,3.822,NA,B,choice,tcd,trinary,repulsion_B,2,microwave ovens,NA,NA,NA,NA,NA,NA,2,40,30,40,90,100,80,Warranty,Cooking power,c
49,choice_trial,51,204836,0.0-4.0-1.23,1,"Mozilla/5.0 (Macintosh; Intel Mac OS X 10_15_7) AppleWebKit/537.36 (KHTML, like Gecko) Chrome/135.0.0.0 Safari/537.36",Macintosh,Chrome,jo9yqd4wghosunj,Male,NA,I'm not sure,474680.30000019073,NA,4.639,NA,B,choice,ct,binary,attraction,NA,washing machines,NA,NA,NA,NA,NA,NA,1,60,50,NA,50,60,NA,Average lifespan,Energy savings,t
49,choice_trial,53,209989,0.0-4.0-1.24,1,"Mozilla/5.0 (Macintosh; Intel Mac OS X 10_15_7) AppleWebKit/537.36 (KHTML, like Gecko) Chrome/135.0.0.0 Safari/537.36",Macintosh,Chrome,jo9yqd4wghosunj,Male,NA,I'm not sure,474680.30000019073,NA,4.844,NA,B,choice,tc,binary,repulsion,1,televisions,NA,NA,NA,NA,NA,NA,1,100,90,NA,30,40,NA,Screen size,Average lifespan,c
49,choice_trial,55,215581,0.0-4.0-1.25,1,"Mozilla/5.0 (Macintosh; Intel Mac OS X 10_15_7) AppleWebKit/537.36 (KHTML, like Gecko) Chrome/135.0.0.0 Safari/537.36",Macintosh,Chrome,jo9yqd4wghosunj,Male,NA,I'm not sure,474680.30000019073,NA,5.284,NA,B,choice,ctd,trinary,repulsion_B,2,laptops,NA,NA,NA,NA,NA,NA,1,40,30,40,90,100,80,Processing speed,Memory (RAM),t
49,choice_trial,57,227528,0.0-4.0-1.26,1,"Mozilla/5.0 (Macintosh; Intel Mac OS X 10_15_7) AppleWebKit/537.36 (KHTML, like Gecko) Chrome/135.0.0.0 Safari/537.36",Macintosh,Chrome,jo9yqd4wghosunj,Male,NA,I'm not sure,474680.30000019073,NA,11.639,NA,B,choice,dtc,trinary,attraction,2,televisions,NA,NA,NA,NA,NA,NA,2,50,60,40,60,50,60,Screen size,Average lifespan,t
49,choice_trial,59,231611,0.0-4.0-1.27,1,"Mozilla/5.0 (Macintosh; Intel Mac OS X 10_15_7) AppleWebKit/537.36 (KHTML, like Gecko) Chrome/135.0.0.0 Safari/537.36",Macintosh,Chrome,jo9yqd4wghosunj,Male,NA,I'm not sure,474680.30000019073,NA,3.774,NA,C,choice,dtc,trinary,attraction,2,laptops,NA,NA,NA,NA,NA,NA,1,50,60,40,60,50,60,Processing speed,Memory (RAM),c
49,choice_trial,61,235054,0.0-4.0-1.28,1,"Mozilla/5.0 (Macintosh; Intel Mac OS X 10_15_7) AppleWebKit/537.36 (KHTML, like Gecko) Chrome/135.0.0.0 Safari/537.36",Macintosh,Chrome,jo9yqd4wghosunj,Male,NA,I'm not sure,474680.30000019073,NA,3.134,NA,B,choice,wb,binary,catch,NA,microwave ovens,85,70,5,30,NA,NA,2,NA,NA,NA,NA,NA,NA,Warranty,Cooking power,b
49,choice_trial,63,246257,0.0-4.0-1.29,1,"Mozilla/5.0 (Macintosh; Intel Mac OS X 10_15_7) AppleWebKit/537.36 (KHTML, like Gecko) Chrome/135.0.0.0 Safari/537.36",Macintosh,Chrome,jo9yqd4wghosunj,Male,NA,I'm not sure,474680.30000019073,NA,10.894,NA,A,choice,tc,binary,repulsion,1,laptops,NA,NA,NA,NA,NA,NA,2,100,90,NA,30,40,NA,Processing speed,Memory (RAM),t
49,choice_trial,65,253886,0.0-4.0-1.30,1,"Mozilla/5.0 (Macintosh; Intel Mac OS X 10_15_7) AppleWebKit/537.36 (KHTML, like Gecko) Chrome/135.0.0.0 Safari/537.36",Macintosh,Chrome,jo9yqd4wghosunj,Male,NA,I'm not sure,474680.30000019073,NA,7.321,NA,C,choice,cdt,trinary,repulsion_B,1,televisions,NA,NA,NA,NA,NA,NA,2,90,100,80,40,30,40,Screen size,Average lifespan,t
49,choice_trial,67,257921,0.0-4.0-1.31,1,"Mozilla/5.0 (Macintosh; Intel Mac OS X 10_15_7) AppleWebKit/537.36 (KHTML, like Gecko) Chrome/135.0.0.0 Safari/537.36",Macintosh,Chrome,jo9yqd4wghosunj,Male,NA,I'm not sure,474680.30000019073,NA,3.727,NA,C,choice,dct,trinary,attraction,2,washing machines,NA,NA,NA,NA,NA,NA,2,50,60,40,60,50,60,Average lifespan,Energy savings,t
49,choice_trial,69,265382,0.0-4.0-1.32,1,"Mozilla/5.0 (Macintosh; Intel Mac OS X 10_15_7) AppleWebKit/537.36 (KHTML, like Gecko) Chrome/135.0.0.0 Safari/537.36",Macintosh,Chrome,jo9yqd4wghosunj,Male,NA,I'm not sure,474680.30000019073,NA,7.155,NA,A,choice,bww,trinary,catch,NA,televisions,65,70,30,10,25,20,1,NA,NA,NA,NA,NA,NA,Screen size,Average lifespan,b
49,choice_trial,71,270599,0.0-4.0-1.33,1,"Mozilla/5.0 (Macintosh; Intel Mac OS X 10_15_7) AppleWebKit/537.36 (KHTML, like Gecko) Chrome/135.0.0.0 Safari/537.36",Macintosh,Chrome,jo9yqd4wghosunj,Male,NA,I'm not sure,474680.30000019073,NA,4.909,NA,C,choice,dct,trinary,repulsion_A,2,microwave ovens,NA,NA,NA,NA,NA,NA,1,30,40,20,100,90,100,Warranty,Cooking power,t
49,choice_trial,73,274953,0.0-4.0-1.34,1,"Mozilla/5.0 (Macintosh; Intel Mac OS X 10_15_7) AppleWebKit/537.36 (KHTML, like Gecko) Chrome/135.0.0.0 Safari/537.36",Macintosh,Chrome,jo9yqd4wghosunj,Male,NA,I'm not sure,474680.30000019073,NA,4.043,NA,C,choice,wwb,trinary,catch,NA,microwave ovens,80,60,50,45,25,35,2,NA,NA,NA,NA,NA,NA,Warranty,Cooking power,b
49,choice_trial,75,282902,0.0-4.0-1.35,1,"Mozilla/5.0 (Macintosh; Intel Mac OS X 10_15_7) AppleWebKit/537.36 (KHTML, like Gecko) Chrome/135.0.0.0 Safari/537.36",Macintosh,Chrome,jo9yqd4wghosunj,Male,NA,I'm not sure,474680.30000019073,NA,7.639,NA,B,choice,tc,binary,repulsion,2,laptops,NA,NA,NA,NA,NA,NA,2,30,40,NA,100,90,NA,Processing speed,Memory (RAM),c
49,choice_trial,77,294441,0.0-4.0-1.36,1,"Mozilla/5.0 (Macintosh; Intel Mac OS X 10_15_7) AppleWebKit/537.36 (KHTML, like Gecko) Chrome/135.0.0.0 Safari/537.36",Macintosh,Chrome,jo9yqd4wghosunj,Male,NA,I'm not sure,474680.30000019073,NA,11.228,NA,B,choice,tc,binary,repulsion,1,microwave ovens,NA,NA,NA,NA,NA,NA,2,100,90,NA,30,40,NA,Warranty,Cooking power,c
49,choice_trial,79,298612,0.0-4.0-1.37,1,"Mozilla/5.0 (Macintosh; Intel Mac OS X 10_15_7) AppleWebKit/537.36 (KHTML, like Gecko) Chrome/135.0.0.0 Safari/537.36",Macintosh,Chrome,jo9yqd4wghosunj,Male,NA,I'm not sure,474680.30000019073,NA,3.861,NA,C,choice,dtc,trinary,repulsion_A,1,microwave ovens,NA,NA,NA,NA,NA,NA,2,100,90,100,30,40,20,Warranty,Cooking power,c
49,choice_trial,81,302966,0.0-4.0-1.38,1,"Mozilla/5.0 (Macintosh; Intel Mac OS X 10_15_7) AppleWebKit/537.36 (KHTML, like Gecko) Chrome/135.0.0.0 Safari/537.36",Macintosh,Chrome,jo9yqd4wghosunj,Male,NA,I'm not sure,474680.30000019073,NA,4.044,NA,C,choice,ctd,trinary,repulsion_B,1,washing machines,NA,NA,NA,NA,NA,NA,1,90,100,80,40,30,40,Average lifespan,Energy savings,d
49,choice_trial,83,306753,0.0-4.0-1.39,1,"Mozilla/5.0 (Macintosh; Intel Mac OS X 10_15_7) AppleWebKit/537.36 (KHTML, like Gecko) Chrome/135.0.0.0 Safari/537.36",Macintosh,Chrome,jo9yqd4wghosunj,Male,NA,I'm not sure,474680.30000019073,NA,3.477,NA,A,choice,ct,binary,attraction,NA,microwave ovens,NA,NA,NA,NA,NA,NA,1,60,50,NA,50,60,NA,Warranty,Cooking power,c
49,choice_trial,85,310355,0.0-4.0-1.40,1,"Mozilla/5.0 (Macintosh; Intel Mac OS X 10_15_7) AppleWebKit/537.36 (KHTML, like Gecko) Chrome/135.0.0.0 Safari/537.36",Macintosh,Chrome,jo9yqd4wghosunj,Male,NA,I'm not sure,474680.30000019073,NA,3.292,NA,A,choice,cdt,trinary,attraction,1,microwave ovens,NA,NA,NA,NA,NA,NA,2,60,50,60,50,60,40,Warranty,Cooking power,c
49,choice_trial,87,315556,0.0-4.0-1.41,1,"Mozilla/5.0 (Macintosh; Intel Mac OS X 10_15_7) AppleWebKit/537.36 (KHTML, like Gecko) Chrome/135.0.0.0 Safari/537.36",Macintosh,Chrome,jo9yqd4wghosunj,Male,NA,I'm not sure,474680.30000019073,NA,4.892,NA,A,choice,dtc,trinary,repulsion_B,2,washing machines,NA,NA,NA,NA,NA,NA,2,40,30,40,90,100,80,Average lifespan,Energy savings,d
49,choice_trial,89,321963,0.0-4.0-1.42,1,"Mozilla/5.0 (Macintosh; Intel Mac OS X 10_15_7) AppleWebKit/537.36 (KHTML, like Gecko) Chrome/135.0.0.0 Safari/537.36",Macintosh,Chrome,jo9yqd4wghosunj,Male,NA,I'm not sure,474680.30000019073,NA,6.098,NA,A,choice,ct,binary,repulsion,1,washing machines,NA,NA,NA,NA,NA,NA,1,100,90,NA,30,40,NA,Average lifespan,Energy savings,c
49,choice_trial,91,326238,0.0-4.0-1.43,1,"Mozilla/5.0 (Macintosh; Intel Mac OS X 10_15_7) AppleWebKit/537.36 (KHTML, like Gecko) Chrome/135.0.0.0 Safari/537.36",Macintosh,Chrome,jo9yqd4wghosunj,Male,NA,I'm not sure,474680.30000019073,NA,3.965,NA,B,choice,tcd,trinary,repulsion_B,1,laptops,NA,NA,NA,NA,NA,NA,1,90,100,80,40,30,40,Processing speed,Memory (RAM),c
1,choice_trial,5,72273,0.0-4.0-1.0,1,"Mozilla/5.0 (Windows NT 10.0; Win64; x64) AppleWebKit/537.36 (KHTML, like Gecko) Chrome/135.0.0.0 Safari/537.36",WebKit,Chrome,mwswbyrxzuxpm55,Male,NA,NA,429157,NA,15.095,NA,A,choice,ctd,trinary,repulsion_A,2,microwave ovens,NA,NA,NA,NA,NA,NA,1,30,40,20,100,90,100,Warranty,Cooking power,c
1,choice_trial,7,81972,0.0-4.0-1.1,1,"Mozilla/5.0 (Windows NT 10.0; Win64; x64) AppleWebKit/537.36 (KHTML, like Gecko) Chrome/135.0.0.0 Safari/537.36",WebKit,Chrome,mwswbyrxzuxpm55,Male,NA,NA,429157,NA,9.398,NA,A,choice,tcd,trinary,repulsion_B,1,laptops,NA,NA,NA,NA,NA,NA,1,90,100,80,40,30,40,Processing speed,Memory (RAM),t
1,choice_trial,9,87989,0.0-4.0-1.2,1,"Mozilla/5.0 (Windows NT 10.0; Win64; x64) AppleWebKit/537.36 (KHTML, like Gecko) Chrome/135.0.0.0 Safari/537.36",WebKit,Chrome,mwswbyrxzuxpm55,Male,NA,NA,429157,NA,5.715,NA,C,choice,tdc,trinary,repulsion_B,1,washing machines,NA,NA,NA,NA,NA,NA,1,90,100,80,40,30,40,Average lifespan,Energy savings,c
1,choice_trial,11,94481,0.0-4.0-1.3,1,"Mozilla/5.0 (Windows NT 10.0; Win64; x64) AppleWebKit/537.36 (KHTML, like Gecko) Chrome/135.0.0.0 Safari/537.36",WebKit,Chrome,mwswbyrxzuxpm55,Male,NA,NA,429157,NA,6.188,NA,B,choice,ct,binary,repulsion,2,microwave ovens,NA,NA,NA,NA,NA,NA,2,30,40,NA,100,90,NA,Warranty,Cooking power,t
1,choice_trial,13,103340,0.0-4.0-1.4,1,"Mozilla/5.0 (Windows NT 10.0; Win64; x64) AppleWebKit/537.36 (KHTML, like Gecko) Chrome/135.0.0.0 Safari/537.36",WebKit,Chrome,mwswbyrxzuxpm55,Male,NA,NA,429157,NA,8.558,NA,B,choice,ct,binary,repulsion,1,laptops,NA,NA,NA,NA,NA,NA,1,100,90,NA,30,40,NA,Processing speed,Memory (RAM),t
1,choice_trial,15,109036,0.0-4.0-1.5,1,"Mozilla/5.0 (Windows NT 10.0; Win64; x64) AppleWebKit/537.36 (KHTML, like Gecko) Chrome/135.0.0.0 Safari/537.36",WebKit,Chrome,mwswbyrxzuxpm55,Male,NA,NA,429157,NA,5.393,NA,B,choice,tc,binary,repulsion,2,laptops,NA,NA,NA,NA,NA,NA,2,30,40,NA,100,90,NA,Processing speed,Memory (RAM),c
1,choice_trial,17,117248,0.0-4.0-1.6,1,"Mozilla/5.0 (Windows NT 10.0; Win64; x64) AppleWebKit/537.36 (KHTML, like Gecko) Chrome/135.0.0.0 Safari/537.36",WebKit,Chrome,mwswbyrxzuxpm55,Male,NA,NA,429157,NA,7.908,NA,B,choice,wb,binary,catch,NA,microwave ovens,65,85,10,20,NA,NA,1,NA,NA,NA,NA,NA,NA,Warranty,Cooking power,b
1,choice_trial,19,126816,0.0-4.0-1.7,1,"Mozilla/5.0 (Windows NT 10.0; Win64; x64) AppleWebKit/537.36 (KHTML, like Gecko) Chrome/135.0.0.0 Safari/537.36",WebKit,Chrome,mwswbyrxzuxpm55,Male,NA,NA,429157,NA,9.265,NA,B,choice,ct,binary,repulsion,1,televisions,NA,NA,NA,NA,NA,NA,2,100,90,NA,30,40,NA,Screen size,Average lifespan,t
1,choice_trial,21,131500,0.0-4.0-1.8,1,"Mozilla/5.0 (Windows NT 10.0; Win64; x64) AppleWebKit/537.36 (KHTML, like Gecko) Chrome/135.0.0.0 Safari/537.36",WebKit,Chrome,mwswbyrxzuxpm55,Male,NA,NA,429157,NA,4.381,NA,B,choice,tc,binary,repulsion,2,televisions,NA,NA,NA,NA,NA,NA,1,30,40,NA,100,90,NA,Screen size,Average lifespan,c
1,choice_trial,23,138872,0.0-4.0-1.9,1,"Mozilla/5.0 (Windows NT 10.0; Win64; x64) AppleWebKit/537.36 (KHTML, like Gecko) Chrome/135.0.0.0 Safari/537.36",WebKit,Chrome,mwswbyrxzuxpm55,Male,NA,NA,429157,NA,7.069,NA,B,choice,tcd,trinary,repulsion_A,2,washing machines,NA,NA,NA,NA,NA,NA,1,30,40,20,100,90,100,Average lifespan,Energy savings,c
1,choice_trial,25,151696,0.0-4.0-1.10,1,"Mozilla/5.0 (Windows NT 10.0; Win64; x64) AppleWebKit/537.36 (KHTML, like Gecko) Chrome/135.0.0.0 Safari/537.36",WebKit,Chrome,mwswbyrxzuxpm55,Male,NA,NA,429157,NA,12.521,NA,C,choice,dct,trinary,repulsion_B,2,televisions,NA,NA,NA,NA,NA,NA,2,40,30,40,90,100,80,Screen size,Average lifespan,t
1,choice_trial,27,159803,0.0-4.0-1.11,1,"Mozilla/5.0 (Windows NT 10.0; Win64; x64) AppleWebKit/537.36 (KHTML, like Gecko) Chrome/135.0.0.0 Safari/537.36",WebKit,Chrome,mwswbyrxzuxpm55,Male,NA,NA,429157,NA,7.806,NA,C,choice,tdc,trinary,attraction,2,laptops,NA,NA,NA,NA,NA,NA,1,50,60,40,60,50,60,Processing speed,Memory (RAM),c
1,choice_trial,29,166535,0.0-4.0-1.12,1,"Mozilla/5.0 (Windows NT 10.0; Win64; x64) AppleWebKit/537.36 (KHTML, like Gecko) Chrome/135.0.0.0 Safari/537.36",WebKit,Chrome,mwswbyrxzuxpm55,Male,NA,NA,429157,NA,6.428,NA,B,choice,ct,binary,repulsion,1,washing machines,NA,NA,NA,NA,NA,NA,1,100,90,NA,30,40,NA,Average lifespan,Energy savings,t
1,choice_trial,31,176491,0.0-4.0-1.13,1,"Mozilla/5.0 (Windows NT 10.0; Win64; x64) AppleWebKit/537.36 (KHTML, like Gecko) Chrome/135.0.0.0 Safari/537.36",WebKit,Chrome,mwswbyrxzuxpm55,Male,NA,NA,429157,NA,9.652,NA,A,choice,tdc,trinary,attraction,1,laptops,NA,NA,NA,NA,NA,NA,1,60,50,60,50,60,40,Processing speed,Memory (RAM),t
1,choice_trial,33,182683,0.0-4.0-1.14,1,"Mozilla/5.0 (Windows NT 10.0; Win64; x64) AppleWebKit/537.36 (KHTML, like Gecko) Chrome/135.0.0.0 Safari/537.36",WebKit,Chrome,mwswbyrxzuxpm55,Male,NA,NA,429157,NA,5.888,NA,B,choice,dtc,trinary,attraction,1,televisions,NA,NA,NA,NA,NA,NA,1,60,50,60,50,60,40,Screen size,Average lifespan,t
1,choice_trial,35,189559,0.0-4.0-1.15,1,"Mozilla/5.0 (Windows NT 10.0; Win64; x64) AppleWebKit/537.36 (KHTML, like Gecko) Chrome/135.0.0.0 Safari/537.36",WebKit,Chrome,mwswbyrxzuxpm55,Male,NA,NA,429157,NA,6.572,NA,A,choice,cdt,trinary,repulsion_A,2,laptops,NA,NA,NA,NA,NA,NA,1,30,40,20,100,90,100,Processing speed,Memory (RAM),c
1,choice_trial,37,195294,0.0-4.0-1.16,1,"Mozilla/5.0 (Windows NT 10.0; Win64; x64) AppleWebKit/537.36 (KHTML, like Gecko) Chrome/135.0.0.0 Safari/537.36",WebKit,Chrome,mwswbyrxzuxpm55,Male,NA,NA,429157,NA,5.432,NA,B,choice,dtc,trinary,repulsion_B,2,microwave ovens,NA,NA,NA,NA,NA,NA,1,40,30,40,90,100,80,Warranty,Cooking power,t
1,choice_trial,39,200887,0.0-4.0-1.17,1,"Mozilla/5.0 (Windows NT 10.0; Win64; x64) AppleWebKit/537.36 (KHTML, like Gecko) Chrome/135.0.0.0 Safari/537.36",WebKit,Chrome,mwswbyrxzuxpm55,Male,NA,NA,429157,NA,5.289,NA,A,choice,ct,binary,attraction,NA,microwave ovens,NA,NA,NA,NA,NA,NA,1,60,50,NA,50,60,NA,Warranty,Cooking power,c
1,choice_trial,41,208471,0.0-4.0-1.18,1,"Mozilla/5.0 (Windows NT 10.0; Win64; x64) AppleWebKit/537.36 (KHTML, like Gecko) Chrome/135.0.0.0 Safari/537.36",WebKit,Chrome,mwswbyrxzuxpm55,Male,NA,NA,429157,NA,7.281,NA,C,choice,cdt,trinary,repulsion_B,2,laptops,NA,NA,NA,NA,NA,NA,1,40,30,40,90,100,80,Processing speed,Memory (RAM),t
1,choice_trial,43,214134,0.0-4.0-1.19,1,"Mozilla/5.0 (Windows NT 10.0; Win64; x64) AppleWebKit/537.36 (KHTML, like Gecko) Chrome/135.0.0.0 Safari/537.36",WebKit,Chrome,mwswbyrxzuxpm55,Male,NA,NA,429157,NA,5.361,NA,B,choice,wbw,trinary,catch,NA,televisions,75,70,40,35,45,45,2,NA,NA,NA,NA,NA,NA,Screen size,Average lifespan,b
1,choice_trial,45,218007,0.0-4.0-1.20,1,"Mozilla/5.0 (Windows NT 10.0; Win64; x64) AppleWebKit/537.36 (KHTML, like Gecko) Chrome/135.0.0.0 Safari/537.36",WebKit,Chrome,mwswbyrxzuxpm55,Male,NA,NA,429157,NA,3.57,NA,B,choice,wb,binary,catch,NA,washing machines,95,80,20,10,NA,NA,1,NA,NA,NA,NA,NA,NA,Average lifespan,Energy savings,b
1,choice_trial,47,223926,0.0-4.0-1.21,1,"Mozilla/5.0 (Windows NT 10.0; Win64; x64) AppleWebKit/537.36 (KHTML, like Gecko) Chrome/135.0.0.0 Safari/537.36",WebKit,Chrome,mwswbyrxzuxpm55,Male,NA,NA,429157,NA,5.615,NA,C,choice,dct,trinary,attraction,2,televisions,NA,NA,NA,NA,NA,NA,2,50,60,40,60,50,60,Screen size,Average lifespan,t
1,choice_trial,49,231626,0.0-4.0-1.22,1,"Mozilla/5.0 (Windows NT 10.0; Win64; x64) AppleWebKit/537.36 (KHTML, like Gecko) Chrome/135.0.0.0 Safari/537.36",WebKit,Chrome,mwswbyrxzuxpm55,Male,NA,NA,429157,NA,7.396,NA,A,choice,cdt,trinary,repulsion_A,1,laptops,NA,NA,NA,NA,NA,NA,2,100,90,100,30,40,20,Processing speed,Memory (RAM),c
1,choice_trial,51,237154,0.0-4.0-1.23,1,"Mozilla/5.0 (Windows NT 10.0; Win64; x64) AppleWebKit/537.36 (KHTML, like Gecko) Chrome/135.0.0.0 Safari/537.36",WebKit,Chrome,mwswbyrxzuxpm55,Male,NA,NA,429157,NA,5.223,NA,C,choice,dct,trinary,repulsion_B,2,washing machines,NA,NA,NA,NA,NA,NA,1,40,30,40,90,100,80,Average lifespan,Energy savings,t
1,choice_trial,53,243618,0.0-4.0-1.24,1,"Mozilla/5.0 (Windows NT 10.0; Win64; x64) AppleWebKit/537.36 (KHTML, like Gecko) Chrome/135.0.0.0 Safari/537.36",WebKit,Chrome,mwswbyrxzuxpm55,Male,NA,NA,429157,NA,6.161,NA,A,choice,tcd,trinary,attraction,1,microwave ovens,NA,NA,NA,NA,NA,NA,2,60,50,60,50,60,40,Warranty,Cooking power,t
1,choice_trial,55,247078,0.0-4.0-1.25,1,"Mozilla/5.0 (Windows NT 10.0; Win64; x64) AppleWebKit/537.36 (KHTML, like Gecko) Chrome/135.0.0.0 Safari/537.36",WebKit,Chrome,mwswbyrxzuxpm55,Male,NA,NA,429157,NA,3.149,NA,C,choice,tdc,trinary,repulsion_A,1,washing machines,NA,NA,NA,NA,NA,NA,2,100,90,100,30,40,20,Average lifespan,Energy savings,c
1,choice_trial,57,251326,0.0-4.0-1.26,1,"Mozilla/5.0 (Windows NT 10.0; Win64; x64) AppleWebKit/537.36 (KHTML, like Gecko) Chrome/135.0.0.0 Safari/537.36",WebKit,Chrome,mwswbyrxzuxpm55,Male,NA,NA,429157,NA,3.944,NA,B,choice,ctd,trinary,repulsion_B,1,televisions,NA,NA,NA,NA,NA,NA,2,90,100,80,40,30,40,Screen size,Average lifespan,t
1,choice_trial,59,254962,0.0-4.0-1.27,1,"Mozilla/5.0 (Windows NT 10.0; Win64; x64) AppleWebKit/537.36 (KHTML, like Gecko) Chrome/135.0.0.0 Safari/537.36",WebKit,Chrome,mwswbyrxzuxpm55,Male,NA,NA,429157,NA,3.332,NA,C,choice,dct,trinary,repulsion_B,1,microwave ovens,NA,NA,NA,NA,NA,NA,2,90,100,80,40,30,40,Warranty,Cooking power,t
1,choice_trial,61,259893,0.0-4.0-1.28,1,"Mozilla/5.0 (Windows NT 10.0; Win64; x64) AppleWebKit/537.36 (KHTML, like Gecko) Chrome/135.0.0.0 Safari/537.36",WebKit,Chrome,mwswbyrxzuxpm55,Male,NA,NA,429157,NA,4.627,NA,A,choice,ct,binary,repulsion,1,microwave ovens,NA,NA,NA,NA,NA,NA,2,100,90,NA,30,40,NA,Warranty,Cooking power,c
1,choice_trial,63,264593,0.0-4.0-1.29,1,"Mozilla/5.0 (Windows NT 10.0; Win64; x64) AppleWebKit/537.36 (KHTML, like Gecko) Chrome/135.0.0.0 Safari/537.36",WebKit,Chrome,mwswbyrxzuxpm55,Male,NA,NA,429157,NA,4.396,NA,A,choice,ct,binary,repulsion,2,washing machines,NA,NA,NA,NA,NA,NA,2,30,40,NA,100,90,NA,Average lifespan,Energy savings,c
1,choice_trial,65,272878,0.0-4.0-1.30,1,"Mozilla/5.0 (Windows NT 10.0; Win64; x64) AppleWebKit/537.36 (KHTML, like Gecko) Chrome/135.0.0.0 Safari/537.36",WebKit,Chrome,mwswbyrxzuxpm55,Male,NA,NA,429157,NA,7.981,NA,B,choice,dct,trinary,repulsion_A,2,televisions,NA,NA,NA,NA,NA,NA,1,30,40,20,100,90,100,Screen size,Average lifespan,c
1,choice_trial,67,278231,0.0-4.0-1.31,1,"Mozilla/5.0 (Windows NT 10.0; Win64; x64) AppleWebKit/537.36 (KHTML, like Gecko) Chrome/135.0.0.0 Safari/537.36",WebKit,Chrome,mwswbyrxzuxpm55,Male,NA,NA,429157,NA,5.048,NA,B,choice,ct,binary,attraction,NA,televisions,NA,NA,NA,NA,NA,NA,1,60,50,NA,50,60,NA,Screen size,Average lifespan,t
1,choice_trial,69,286645,0.0-4.0-1.32,1,"Mozilla/5.0 (Windows NT 10.0; Win64; x64) AppleWebKit/537.36 (KHTML, like Gecko) Chrome/135.0.0.0 Safari/537.36",WebKit,Chrome,mwswbyrxzuxpm55,Male,NA,NA,429157,NA,8.109,NA,C,choice,wwb,trinary,catch,NA,microwave ovens,65,70,10,50,15,45,1,NA,NA,NA,NA,NA,NA,Warranty,Cooking power,b
1,choice_trial,71,296409,0.0-4.0-1.33,1,"Mozilla/5.0 (Windows NT 10.0; Win64; x64) AppleWebKit/537.36 (KHTML, like Gecko) Chrome/135.0.0.0 Safari/537.36",WebKit,Chrome,mwswbyrxzuxpm55,Male,NA,NA,429157,NA,9.459,NA,B,choice,ct,binary,attraction,NA,laptops,NA,NA,NA,NA,NA,NA,2,60,50,NA,50,60,NA,Processing speed,Memory (RAM),t
1,choice_trial,73,305029,0.0-4.0-1.34,1,"Mozilla/5.0 (Windows NT 10.0; Win64; x64) AppleWebKit/537.36 (KHTML, like Gecko) Chrome/135.0.0.0 Safari/537.36",WebKit,Chrome,mwswbyrxzuxpm55,Male,NA,NA,429157,NA,8.315,NA,B,choice,dct,trinary,attraction,2,washing machines,NA,NA,NA,NA,NA,NA,1,50,60,40,60,50,60,Average lifespan,Energy savings,c
1,choice_trial,75,314013,0.0-4.0-1.35,1,"Mozilla/5.0 (Windows NT 10.0; Win64; x64) AppleWebKit/537.36 (KHTML, like Gecko) Chrome/135.0.0.0 Safari/537.36",WebKit,Chrome,mwswbyrxzuxpm55,Male,NA,NA,429157,NA,8.679,NA,A,choice,tc,binary,attraction,NA,washing machines,NA,NA,NA,NA,NA,NA,2,60,50,NA,50,60,NA,Average lifespan,Energy savings,t
1,choice_trial,77,320757,0.0-4.0-1.36,1,"Mozilla/5.0 (Windows NT 10.0; Win64; x64) AppleWebKit/537.36 (KHTML, like Gecko) Chrome/135.0.0.0 Safari/537.36",WebKit,Chrome,mwswbyrxzuxpm55,Male,NA,NA,429157,NA,6.44,NA,B,choice,wb,binary,catch,NA,televisions,80,65,25,25,NA,NA,1,NA,NA,NA,NA,NA,NA,Screen size,Average lifespan,b
1,choice_trial,79,326341,0.0-4.0-1.37,1,"Mozilla/5.0 (Windows NT 10.0; Win64; x64) AppleWebKit/537.36 (KHTML, like Gecko) Chrome/135.0.0.0 Safari/537.36",WebKit,Chrome,mwswbyrxzuxpm55,Male,NA,NA,429157,NA,5.278,NA,C,choice,cdt,trinary,attraction,2,microwave ovens,NA,NA,NA,NA,NA,NA,1,50,60,40,60,50,60,Warranty,Cooking power,t
1,choice_trial,81,331389,0.0-4.0-1.38,1,"Mozilla/5.0 (Windows NT 10.0; Win64; x64) AppleWebKit/537.36 (KHTML, like Gecko) Chrome/135.0.0.0 Safari/537.36",WebKit,Chrome,mwswbyrxzuxpm55,Male,NA,NA,429157,NA,4.744,NA,A,choice,bww,trinary,catch,NA,laptops,90,80,5,10,35,15,2,NA,NA,NA,NA,NA,NA,Processing speed,Memory (RAM),b
1,choice_trial,83,336229,0.0-4.0-1.39,1,"Mozilla/5.0 (Windows NT 10.0; Win64; x64) AppleWebKit/537.36 (KHTML, like Gecko) Chrome/135.0.0.0 Safari/537.36",WebKit,Chrome,mwswbyrxzuxpm55,Male,NA,NA,429157,NA,4.535,NA,A,choice,bw,binary,catch,NA,laptops,70,65,50,25,NA,NA,1,NA,NA,NA,NA,NA,NA,Processing speed,Memory (RAM),b
1,choice_trial,85,341774,0.0-4.0-1.40,1,"Mozilla/5.0 (Windows NT 10.0; Win64; x64) AppleWebKit/537.36 (KHTML, like Gecko) Chrome/135.0.0.0 Safari/537.36",WebKit,Chrome,mwswbyrxzuxpm55,Male,NA,NA,429157,NA,5.241,NA,B,choice,tcd,trinary,attraction,1,washing machines,NA,NA,NA,NA,NA,NA,2,60,50,60,50,60,40,Average lifespan,Energy savings,c
1,choice_trial,87,347045,0.0-4.0-1.41,1,"Mozilla/5.0 (Windows NT 10.0; Win64; x64) AppleWebKit/537.36 (KHTML, like Gecko) Chrome/135.0.0.0 Safari/537.36",WebKit,Chrome,mwswbyrxzuxpm55,Male,NA,NA,429157,NA,4.966,NA,A,choice,cdt,trinary,repulsion_A,1,televisions,NA,NA,NA,NA,NA,NA,2,100,90,100,30,40,20,Screen size,Average lifespan,c
1,choice_trial,89,351906,0.0-4.0-1.42,1,"Mozilla/5.0 (Windows NT 10.0; Win64; x64) AppleWebKit/537.36 (KHTML, like Gecko) Chrome/135.0.0.0 Safari/537.36",WebKit,Chrome,mwswbyrxzuxpm55,Male,NA,NA,429157,NA,4.556,NA,C,choice,dct,trinary,repulsion_A,1,microwave ovens,NA,NA,NA,NA,NA,NA,1,100,90,100,30,40,20,Warranty,Cooking power,t
1,choice_trial,91,355341,0.0-4.0-1.43,1,"Mozilla/5.0 (Windows NT 10.0; Win64; x64) AppleWebKit/537.36 (KHTML, like Gecko) Chrome/135.0.0.0 Safari/537.36",WebKit,Chrome,mwswbyrxzuxpm55,Male,NA,NA,429157,NA,3.13,NA,A,choice,bww,trinary,catch,NA,washing machines,80,60,5,10,10,5,2,NA,NA,NA,NA,NA,NA,Average lifespan,Energy savings,b
2,choice_trial,5,75449,0.0-4.0-1.0,1,"Mozilla/5.0 (Macintosh; Intel Mac OS X 10_15_7) AppleWebKit/537.36 (KHTML, like Gecko) Chrome/134.0.0.0 Safari/537.36",Macintosh,Chrome,1zpmgfj6wo16qem,Male,NA,No,347813.6999999881,NA,36.079,NA,B,choice,dct,trinary,repulsion_A,1,washing machines,NA,NA,NA,NA,NA,NA,1,100,90,100,30,40,20,Average lifespan,Energy savings,c
2,choice_trial,7,81039,0.0-4.0-1.1,1,"Mozilla/5.0 (Macintosh; Intel Mac OS X 10_15_7) AppleWebKit/537.36 (KHTML, like Gecko) Chrome/134.0.0.0 Safari/537.36",Macintosh,Chrome,1zpmgfj6wo16qem,Male,NA,No,347813.6999999881,NA,5.284,NA,B,choice,tc,binary,repulsion,1,laptops,NA,NA,NA,NA,NA,NA,2,100,90,NA,30,40,NA,Processing speed,Memory (RAM),c
2,choice_trial,9,83802,0.0-4.0-1.2,1,"Mozilla/5.0 (Macintosh; Intel Mac OS X 10_15_7) AppleWebKit/537.36 (KHTML, like Gecko) Chrome/134.0.0.0 Safari/537.36",Macintosh,Chrome,1zpmgfj6wo16qem,Male,NA,No,347813.6999999881,NA,2.456,NA,B,choice,tc,binary,repulsion,1,televisions,NA,NA,NA,NA,NA,NA,2,100,90,NA,30,40,NA,Screen size,Average lifespan,c
2,choice_trial,11,90030,0.0-4.0-1.3,1,"Mozilla/5.0 (Macintosh; Intel Mac OS X 10_15_7) AppleWebKit/537.36 (KHTML, like Gecko) Chrome/134.0.0.0 Safari/537.36",Macintosh,Chrome,1zpmgfj6wo16qem,Male,NA,No,347813.6999999881,NA,5.922,NA,C,choice,dtc,trinary,repulsion_A,1,televisions,NA,NA,NA,NA,NA,NA,1,100,90,100,30,40,20,Screen size,Average lifespan,c
2,choice_trial,13,92868,0.0-4.0-1.4,1,"Mozilla/5.0 (Macintosh; Intel Mac OS X 10_15_7) AppleWebKit/537.36 (KHTML, like Gecko) Chrome/134.0.0.0 Safari/537.36",Macintosh,Chrome,1zpmgfj6wo16qem,Male,NA,No,347813.6999999881,NA,2.533,NA,C,choice,tdc,trinary,repulsion_A,1,laptops,NA,NA,NA,NA,NA,NA,1,100,90,100,30,40,20,Processing speed,Memory (RAM),c
2,choice_trial,15,96913,0.0-4.0-1.5,1,"Mozilla/5.0 (Macintosh; Intel Mac OS X 10_15_7) AppleWebKit/537.36 (KHTML, like Gecko) Chrome/134.0.0.0 Safari/537.36",Macintosh,Chrome,1zpmgfj6wo16qem,Male,NA,No,347813.6999999881,NA,3.74,NA,B,choice,dtc,trinary,repulsion_B,1,microwave ovens,NA,NA,NA,NA,NA,NA,2,90,100,80,40,30,40,Warranty,Cooking power,t
2,choice_trial,17,100943,0.0-4.0-1.6,1,"Mozilla/5.0 (Macintosh; Intel Mac OS X 10_15_7) AppleWebKit/537.36 (KHTML, like Gecko) Chrome/134.0.0.0 Safari/537.36",Macintosh,Chrome,1zpmgfj6wo16qem,Male,NA,No,347813.6999999881,NA,3.725,NA,B,choice,dct,trinary,attraction,1,washing machines,NA,NA,NA,NA,NA,NA,1,60,50,60,50,60,40,Average lifespan,Energy savings,c
2,choice_trial,19,103892,0.0-4.0-1.7,1,"Mozilla/5.0 (Macintosh; Intel Mac OS X 10_15_7) AppleWebKit/537.36 (KHTML, like Gecko) Chrome/134.0.0.0 Safari/537.36",Macintosh,Chrome,1zpmgfj6wo16qem,Male,NA,No,347813.6999999881,NA,2.645,NA,A,choice,bw,binary,catch,NA,microwave ovens,90,50,30,10,NA,NA,2,NA,NA,NA,NA,NA,NA,Warranty,Cooking power,b
2,choice_trial,21,109120,0.0-4.0-1.8,1,"Mozilla/5.0 (Macintosh; Intel Mac OS X 10_15_7) AppleWebKit/537.36 (KHTML, like Gecko) Chrome/134.0.0.0 Safari/537.36",Macintosh,Chrome,1zpmgfj6wo16qem,Male,NA,No,347813.6999999881,NA,4.922,NA,A,choice,tc,binary,attraction,NA,laptops,NA,NA,NA,NA,NA,NA,2,60,50,NA,50,60,NA,Processing speed,Memory (RAM),t
2,choice_trial,23,113924,0.0-4.0-1.9,1,"Mozilla/5.0 (Macintosh; Intel Mac OS X 10_15_7) AppleWebKit/537.36 (KHTML, like Gecko) Chrome/134.0.0.0 Safari/537.36",Macintosh,Chrome,1zpmgfj6wo16qem,Male,NA,No,347813.6999999881,NA,4.498,NA,B,choice,tc,binary,repulsion,2,washing machines,NA,NA,NA,NA,NA,NA,2,30,40,NA,100,90,NA,Average lifespan,Energy savings,c
2,choice_trial,25,117682,0.0-4.0-1.10,1,"Mozilla/5.0 (Macintosh; Intel Mac OS X 10_15_7) AppleWebKit/537.36 (KHTML, like Gecko) Chrome/134.0.0.0 Safari/537.36",Macintosh,Chrome,1zpmgfj6wo16qem,Male,NA,No,347813.6999999881,NA,3.452,NA,C,choice,wwb,trinary,catch,NA,microwave ovens,80,80,50,10,45,45,2,NA,NA,NA,NA,NA,NA,Warranty,Cooking power,b
2,choice_trial,27,121566,0.0-4.0-1.11,1,"Mozilla/5.0 (Macintosh; Intel Mac OS X 10_15_7) AppleWebKit/537.36 (KHTML, like Gecko) Chrome/134.0.0.0 Safari/537.36",Macintosh,Chrome,1zpmgfj6wo16qem,Male,NA,No,347813.6999999881,NA,3.578,NA,B,choice,tcd,trinary,repulsion_A,2,televisions,NA,NA,NA,NA,NA,NA,1,30,40,20,100,90,100,Screen size,Average lifespan,c
2,choice_trial,29,125883,0.0-4.0-1.12,1,"Mozilla/5.0 (Macintosh; Intel Mac OS X 10_15_7) AppleWebKit/537.36 (KHTML, like Gecko) Chrome/134.0.0.0 Safari/537.36",Macintosh,Chrome,1zpmgfj6wo16qem,Male,NA,No,347813.6999999881,NA,4.012,NA,C,choice,cdt,trinary,attraction,2,washing machines,NA,NA,NA,NA,NA,NA,2,50,60,40,60,50,60,Average lifespan,Energy savings,t
2,choice_trial,31,128825,0.0-4.0-1.13,1,"Mozilla/5.0 (Macintosh; Intel Mac OS X 10_15_7) AppleWebKit/537.36 (KHTML, like Gecko) Chrome/134.0.0.0 Safari/537.36",Macintosh,Chrome,1zpmgfj6wo16qem,Male,NA,No,347813.6999999881,NA,2.635,NA,B,choice,tc,binary,repulsion,2,televisions,NA,NA,NA,NA,NA,NA,2,30,40,NA,100,90,NA,Screen size,Average lifespan,c
2,choice_trial,33,133077,0.0-4.0-1.14,1,"Mozilla/5.0 (Macintosh; Intel Mac OS X 10_15_7) AppleWebKit/537.36 (KHTML, like Gecko) Chrome/134.0.0.0 Safari/537.36",Macintosh,Chrome,1zpmgfj6wo16qem,Male,NA,No,347813.6999999881,NA,3.945,NA,B,choice,dct,trinary,repulsion_A,2,washing machines,NA,NA,NA,NA,NA,NA,2,30,40,20,100,90,100,Average lifespan,Energy savings,c
2,choice_trial,35,164547,0.0-4.0-1.15,1,"Mozilla/5.0 (Macintosh; Intel Mac OS X 10_15_7) AppleWebKit/537.36 (KHTML, like Gecko) Chrome/134.0.0.0 Safari/537.36",Macintosh,Chrome,1zpmgfj6wo16qem,Male,NA,No,347813.6999999881,NA,31.162,NA,C,choice,dct,trinary,repulsion_B,2,televisions,NA,NA,NA,NA,NA,NA,2,40,30,40,90,100,80,Screen size,Average lifespan,t
2,choice_trial,37,169071,0.0-4.0-1.16,1,"Mozilla/5.0 (Macintosh; Intel Mac OS X 10_15_7) AppleWebKit/537.36 (KHTML, like Gecko) Chrome/134.0.0.0 Safari/537.36",Macintosh,Chrome,1zpmgfj6wo16qem,Male,NA,No,347813.6999999881,NA,4.218,NA,B,choice,dtc,trinary,attraction,2,televisions,NA,NA,NA,NA,NA,NA,2,50,60,40,60,50,60,Screen size,Average lifespan,t
2,choice_trial,39,173796,0.0-4.0-1.17,1,"Mozilla/5.0 (Macintosh; Intel Mac OS X 10_15_7) AppleWebKit/537.36 (KHTML, like Gecko) Chrome/134.0.0.0 Safari/537.36",Macintosh,Chrome,1zpmgfj6wo16qem,Male,NA,No,347813.6999999881,NA,4.417,NA,B,choice,dtc,trinary,attraction,2,laptops,NA,NA,NA,NA,NA,NA,1,50,60,40,60,50,60,Processing speed,Memory (RAM),t
2,choice_trial,41,177777,0.0-4.0-1.18,1,"Mozilla/5.0 (Macintosh; Intel Mac OS X 10_15_7) AppleWebKit/537.36 (KHTML, like Gecko) Chrome/134.0.0.0 Safari/537.36",Macintosh,Chrome,1zpmgfj6wo16qem,Male,NA,No,347813.6999999881,NA,3.673,NA,C,choice,wwb,trinary,catch,NA,laptops,75,50,15,40,40,50,2,NA,NA,NA,NA,NA,NA,Processing speed,Memory (RAM),b
2,choice_trial,43,180423,0.0-4.0-1.19,1,"Mozilla/5.0 (Macintosh; Intel Mac OS X 10_15_7) AppleWebKit/537.36 (KHTML, like Gecko) Chrome/134.0.0.0 Safari/537.36",Macintosh,Chrome,1zpmgfj6wo16qem,Male,NA,No,347813.6999999881,NA,2.339,NA,C,choice,tdc,trinary,repulsion_A,2,laptops,NA,NA,NA,NA,NA,NA,2,30,40,20,100,90,100,Processing speed,Memory (RAM),c
2,choice_trial,45,184435,0.0-4.0-1.20,1,"Mozilla/5.0 (Macintosh; Intel Mac OS X 10_15_7) AppleWebKit/537.36 (KHTML, like Gecko) Chrome/134.0.0.0 Safari/537.36",Macintosh,Chrome,1zpmgfj6wo16qem,Male,NA,No,347813.6999999881,NA,3.705,NA,C,choice,dct,trinary,repulsion_B,2,washing machines,NA,NA,NA,NA,NA,NA,1,40,30,40,90,100,80,Average lifespan,Energy savings,t
2,choice_trial,47,186722,0.0-4.0-1.21,1,"Mozilla/5.0 (Macintosh; Intel Mac OS X 10_15_7) AppleWebKit/537.36 (KHTML, like Gecko) Chrome/134.0.0.0 Safari/537.36",Macintosh,Chrome,1zpmgfj6wo16qem,Male,NA,No,347813.6999999881,NA,1.979,NA,A,choice,bw,binary,catch,NA,laptops,95,85,25,15,NA,NA,2,NA,NA,NA,NA,NA,NA,Processing speed,Memory (RAM),b
2,choice_trial,49,189711,0.0-4.0-1.22,1,"Mozilla/5.0 (Macintosh; Intel Mac OS X 10_15_7) AppleWebKit/537.36 (KHTML, like Gecko) Chrome/134.0.0.0 Safari/537.36",Macintosh,Chrome,1zpmgfj6wo16qem,Male,NA,No,347813.6999999881,NA,2.681,NA,C,choice,cdt,trinary,attraction,1,microwave ovens,NA,NA,NA,NA,NA,NA,1,60,50,60,50,60,40,Warranty,Cooking power,t
2,choice_trial,51,192317,0.0-4.0-1.23,1,"Mozilla/5.0 (Macintosh; Intel Mac OS X 10_15_7) AppleWebKit/537.36 (KHTML, like Gecko) Chrome/134.0.0.0 Safari/537.36",Macintosh,Chrome,1zpmgfj6wo16qem,Male,NA,No,347813.6999999881,NA,2.3,NA,B,choice,tc,binary,repulsion,1,washing machines,NA,NA,NA,NA,NA,NA,2,100,90,NA,30,40,NA,Average lifespan,Energy savings,c
2,choice_trial,53,195499,0.0-4.0-1.24,1,"Mozilla/5.0 (Macintosh; Intel Mac OS X 10_15_7) AppleWebKit/537.36 (KHTML, like Gecko) Chrome/134.0.0.0 Safari/537.36",Macintosh,Chrome,1zpmgfj6wo16qem,Male,NA,No,347813.6999999881,NA,2.874,NA,B,choice,ctd,trinary,attraction,1,laptops,NA,NA,NA,NA,NA,NA,2,60,50,60,50,60,40,Processing speed,Memory (RAM),t
2,choice_trial,55,200407,0.0-4.0-1.25,1,"Mozilla/5.0 (Macintosh; Intel Mac OS X 10_15_7) AppleWebKit/537.36 (KHTML, like Gecko) Chrome/134.0.0.0 Safari/537.36",Macintosh,Chrome,1zpmgfj6wo16qem,Male,NA,No,347813.6999999881,NA,4.602,NA,B,choice,dtc,trinary,repulsion_B,2,microwave ovens,NA,NA,NA,NA,NA,NA,1,40,30,40,90,100,80,Warranty,Cooking power,t
2,choice_trial,57,203820,0.0-4.0-1.26,1,"Mozilla/5.0 (Macintosh; Intel Mac OS X 10_15_7) AppleWebKit/537.36 (KHTML, like Gecko) Chrome/134.0.0.0 Safari/537.36",Macintosh,Chrome,1zpmgfj6wo16qem,Male,NA,No,347813.6999999881,NA,3.105,NA,B,choice,dtc,trinary,attraction,2,microwave ovens,NA,NA,NA,NA,NA,NA,1,50,60,40,60,50,60,Warranty,Cooking power,t
2,choice_trial,59,206523,0.0-4.0-1.27,1,"Mozilla/5.0 (Macintosh; Intel Mac OS X 10_15_7) AppleWebKit/537.36 (KHTML, like Gecko) Chrome/134.0.0.0 Safari/537.36",Macintosh,Chrome,1zpmgfj6wo16qem,Male,NA,No,347813.6999999881,NA,2.397,NA,C,choice,wwb,trinary,catch,NA,washing machines,55,85,10,25,30,30,2,NA,NA,NA,NA,NA,NA,Average lifespan,Energy savings,b
2,choice_trial,61,208921,0.0-4.0-1.28,1,"Mozilla/5.0 (Macintosh; Intel Mac OS X 10_15_7) AppleWebKit/537.36 (KHTML, like Gecko) Chrome/134.0.0.0 Safari/537.36",Macintosh,Chrome,1zpmgfj6wo16qem,Male,NA,No,347813.6999999881,NA,2.092,NA,B,choice,ctd,trinary,repulsion_B,1,televisions,NA,NA,NA,NA,NA,NA,2,90,100,80,40,30,40,Screen size,Average lifespan,t
2,choice_trial,63,226595,0.0-4.0-1.29,1,"Mozilla/5.0 (Macintosh; Intel Mac OS X 10_15_7) AppleWebKit/537.36 (KHTML, like Gecko) Chrome/134.0.0.0 Safari/537.36",Macintosh,Chrome,1zpmgfj6wo16qem,Male,NA,No,347813.6999999881,NA,17.365,NA,C,choice,dct,trinary,repulsion_B,1,washing machines,NA,NA,NA,NA,NA,NA,1,90,100,80,40,30,40,Average lifespan,Energy savings,t
2,choice_trial,65,229728,0.0-4.0-1.30,1,"Mozilla/5.0 (Macintosh; Intel Mac OS X 10_15_7) AppleWebKit/537.36 (KHTML, like Gecko) Chrome/134.0.0.0 Safari/537.36",Macintosh,Chrome,1zpmgfj6wo16qem,Male,NA,No,347813.6999999881,NA,2.823,NA,B,choice,tc,binary,repulsion,1,microwave ovens,NA,NA,NA,NA,NA,NA,1,100,90,NA,30,40,NA,Warranty,Cooking power,c
2,choice_trial,67,232485,0.0-4.0-1.31,1,"Mozilla/5.0 (Macintosh; Intel Mac OS X 10_15_7) AppleWebKit/537.36 (KHTML, like Gecko) Chrome/134.0.0.0 Safari/537.36",Macintosh,Chrome,1zpmgfj6wo16qem,Male,NA,No,347813.6999999881,NA,2.45,NA,B,choice,tc,binary,attraction,NA,televisions,NA,NA,NA,NA,NA,NA,1,60,50,NA,50,60,NA,Screen size,Average lifespan,c
2,choice_trial,69,235108,0.0-4.0-1.32,1,"Mozilla/5.0 (Macintosh; Intel Mac OS X 10_15_7) AppleWebKit/537.36 (KHTML, like Gecko) Chrome/134.0.0.0 Safari/537.36",Macintosh,Chrome,1zpmgfj6wo16qem,Male,NA,No,347813.6999999881,NA,2.315,NA,B,choice,wbw,trinary,catch,NA,televisions,55,55,35,35,45,35,1,NA,NA,NA,NA,NA,NA,Screen size,Average lifespan,b
2,choice_trial,71,238544,0.0-4.0-1.33,1,"Mozilla/5.0 (Macintosh; Intel Mac OS X 10_15_7) AppleWebKit/537.36 (KHTML, like Gecko) Chrome/134.0.0.0 Safari/537.36",Macintosh,Chrome,1zpmgfj6wo16qem,Male,NA,No,347813.6999999881,NA,3.129,NA,B,choice,ct,binary,attraction,NA,washing machines,NA,NA,NA,NA,NA,NA,1,60,50,NA,50,60,NA,Average lifespan,Energy savings,t
2,choice_trial,73,241287,0.0-4.0-1.34,1,"Mozilla/5.0 (Macintosh; Intel Mac OS X 10_15_7) AppleWebKit/537.36 (KHTML, like Gecko) Chrome/134.0.0.0 Safari/537.36",Macintosh,Chrome,1zpmgfj6wo16qem,Male,NA,No,347813.6999999881,NA,2.433,NA,B,choice,ctd,trinary,attraction,1,televisions,NA,NA,NA,NA,NA,NA,2,60,50,60,50,60,40,Screen size,Average lifespan,t
2,choice_trial,75,243781,0.0-4.0-1.35,1,"Mozilla/5.0 (Macintosh; Intel Mac OS X 10_15_7) AppleWebKit/537.36 (KHTML, like Gecko) Chrome/134.0.0.0 Safari/537.36",Macintosh,Chrome,1zpmgfj6wo16qem,Male,NA,No,347813.6999999881,NA,2.185,NA,A,choice,bw,binary,catch,NA,televisions,60,60,35,35,NA,NA,1,NA,NA,NA,NA,NA,NA,Screen size,Average lifespan,b
2,choice_trial,77,248281,0.0-4.0-1.36,1,"Mozilla/5.0 (Macintosh; Intel Mac OS X 10_15_7) AppleWebKit/537.36 (KHTML, like Gecko) Chrome/134.0.0.0 Safari/537.36",Macintosh,Chrome,1zpmgfj6wo16qem,Male,NA,No,347813.6999999881,NA,4.192,NA,A,choice,bw,binary,catch,NA,washing machines,75,90,40,35,NA,NA,1,NA,NA,NA,NA,NA,NA,Average lifespan,Energy savings,b
2,choice_trial,79,255617,0.0-4.0-1.37,1,"Mozilla/5.0 (Macintosh; Intel Mac OS X 10_15_7) AppleWebKit/537.36 (KHTML, like Gecko) Chrome/134.0.0.0 Safari/537.36",Macintosh,Chrome,1zpmgfj6wo16qem,Male,NA,No,347813.6999999881,NA,7.027,NA,B,choice,dtc,trinary,repulsion_B,2,laptops,NA,NA,NA,NA,NA,NA,1,40,30,40,90,100,80,Processing speed,Memory (RAM),t
2,choice_trial,81,260709,0.0-4.0-1.38,1,"Mozilla/5.0 (Macintosh; Intel Mac OS X 10_15_7) AppleWebKit/537.36 (KHTML, like Gecko) Chrome/134.0.0.0 Safari/537.36",Macintosh,Chrome,1zpmgfj6wo16qem,Male,NA,No,347813.6999999881,NA,4.783,NA,A,choice,ct,binary,repulsion,2,microwave ovens,NA,NA,NA,NA,NA,NA,1,30,40,NA,100,90,NA,Warranty,Cooking power,c
2,choice_trial,83,263915,0.0-4.0-1.39,1,"Mozilla/5.0 (Macintosh; Intel Mac OS X 10_15_7) AppleWebKit/537.36 (KHTML, like Gecko) Chrome/134.0.0.0 Safari/537.36",Macintosh,Chrome,1zpmgfj6wo16qem,Male,NA,No,347813.6999999881,NA,2.897,NA,C,choice,tdc,trinary,repulsion_A,2,microwave ovens,NA,NA,NA,NA,NA,NA,2,30,40,20,100,90,100,Warranty,Cooking power,c
2,choice_trial,85,266345,0.0-4.0-1.40,1,"Mozilla/5.0 (Macintosh; Intel Mac OS X 10_15_7) AppleWebKit/537.36 (KHTML, like Gecko) Chrome/134.0.0.0 Safari/537.36",Macintosh,Chrome,1zpmgfj6wo16qem,Male,NA,No,347813.6999999881,NA,2.12,NA,B,choice,ct,binary,attraction,NA,microwave ovens,NA,NA,NA,NA,NA,NA,2,60,50,NA,50,60,NA,Warranty,Cooking power,t
2,choice_trial,87,270094,0.0-4.0-1.41,1,"Mozilla/5.0 (Macintosh; Intel Mac OS X 10_15_7) AppleWebKit/537.36 (KHTML, like Gecko) Chrome/134.0.0.0 Safari/537.36",Macintosh,Chrome,1zpmgfj6wo16qem,Male,NA,No,347813.6999999881,NA,3.44,NA,C,choice,cdt,trinary,repulsion_B,1,laptops,NA,NA,NA,NA,NA,NA,1,90,100,80,40,30,40,Processing speed,Memory (RAM),t
2,choice_trial,89,273852,0.0-4.0-1.42,1,"Mozilla/5.0 (Macintosh; Intel Mac OS X 10_15_7) AppleWebKit/537.36 (KHTML, like Gecko) Chrome/134.0.0.0 Safari/537.36",Macintosh,Chrome,1zpmgfj6wo16qem,Male,NA,No,347813.6999999881,NA,3.451,NA,A,choice,ct,binary,repulsion,2,laptops,NA,NA,NA,NA,NA,NA,2,30,40,NA,100,90,NA,Processing speed,Memory (RAM),c
2,choice_trial,91,278120,0.0-4.0-1.43,1,"Mozilla/5.0 (Macintosh; Intel Mac OS X 10_15_7) AppleWebKit/537.36 (KHTML, like Gecko) Chrome/134.0.0.0 Safari/537.36",Macintosh,Chrome,1zpmgfj6wo16qem,Male,NA,No,347813.6999999881,NA,3.956,NA,B,choice,tcd,trinary,repulsion_A,1,microwave ovens,NA,NA,NA,NA,NA,NA,2,100,90,100,30,40,20,Warranty,Cooking power,c
3,choice_trial,5,710265,0.0-4.0-1.0,1,"Mozilla/5.0 (Windows NT 10.0; Win64; x64) AppleWebKit/537.36 (KHTML, like Gecko) Chrome/135.0.0.0 Safari/537.36 Edg/135.0.0.0",WebKit,Edge,gqrv4hkxlwv1buf,Female,NA,No,999937.7000000476,NA,12.883,NA,B,choice,ctd,trinary,attraction,1,microwave ovens,NA,NA,NA,NA,NA,NA,1,60,50,60,50,60,40,Warranty,Cooking power,t
3,choice_trial,7,720537,0.0-4.0-1.1,1,"Mozilla/5.0 (Windows NT 10.0; Win64; x64) AppleWebKit/537.36 (KHTML, like Gecko) Chrome/135.0.0.0 Safari/537.36 Edg/135.0.0.0",WebKit,Edge,gqrv4hkxlwv1buf,Female,NA,No,999937.7000000476,NA,9.955,NA,A,choice,tcd,trinary,attraction,2,televisions,NA,NA,NA,NA,NA,NA,2,50,60,40,60,50,60,Screen size,Average lifespan,t
3,choice_trial,9,727994,0.0-4.0-1.2,1,"Mozilla/5.0 (Windows NT 10.0; Win64; x64) AppleWebKit/537.36 (KHTML, like Gecko) Chrome/135.0.0.0 Safari/537.36 Edg/135.0.0.0",WebKit,Edge,gqrv4hkxlwv1buf,Female,NA,No,999937.7000000476,NA,7.151,NA,A,choice,ctd,trinary,repulsion_A,1,washing machines,NA,NA,NA,NA,NA,NA,1,100,90,100,30,40,20,Average lifespan,Energy savings,c
3,choice_trial,11,733203,0.0-4.0-1.3,1,"Mozilla/5.0 (Windows NT 10.0; Win64; x64) AppleWebKit/537.36 (KHTML, like Gecko) Chrome/135.0.0.0 Safari/537.36 Edg/135.0.0.0",WebKit,Edge,gqrv4hkxlwv1buf,Female,NA,No,999937.7000000476,NA,4.889,NA,A,choice,cdt,trinary,attraction,1,televisions,NA,NA,NA,NA,NA,NA,1,60,50,60,50,60,40,Screen size,Average lifespan,c
3,choice_trial,13,736077,0.0-4.0-1.4,1,"Mozilla/5.0 (Windows NT 10.0; Win64; x64) AppleWebKit/537.36 (KHTML, like Gecko) Chrome/135.0.0.0 Safari/537.36 Edg/135.0.0.0",WebKit,Edge,gqrv4hkxlwv1buf,Female,NA,No,999937.7000000476,NA,2.568,NA,A,choice,tc,binary,attraction,NA,washing machines,NA,NA,NA,NA,NA,NA,1,60,50,NA,50,60,NA,Average lifespan,Energy savings,t
3,choice_trial,15,743618,0.0-4.0-1.5,1,"Mozilla/5.0 (Windows NT 10.0; Win64; x64) AppleWebKit/537.36 (KHTML, like Gecko) Chrome/135.0.0.0 Safari/537.36 Edg/135.0.0.0",WebKit,Edge,gqrv4hkxlwv1buf,Female,NA,No,999937.7000000476,NA,7.221,NA,C,choice,cdt,trinary,repulsion_B,2,televisions,NA,NA,NA,NA,NA,NA,2,40,30,40,90,100,80,Screen size,Average lifespan,t
3,choice_trial,17,747704,0.0-4.0-1.6,1,"Mozilla/5.0 (Windows NT 10.0; Win64; x64) AppleWebKit/537.36 (KHTML, like Gecko) Chrome/135.0.0.0 Safari/537.36 Edg/135.0.0.0",WebKit,Edge,gqrv4hkxlwv1buf,Female,NA,No,999937.7000000476,NA,3.773,NA,B,choice,wb,binary,catch,NA,washing machines,65,80,15,5,NA,NA,2,NA,NA,NA,NA,NA,NA,Average lifespan,Energy savings,b
3,choice_trial,19,754220,0.0-4.0-1.7,1,"Mozilla/5.0 (Windows NT 10.0; Win64; x64) AppleWebKit/537.36 (KHTML, like Gecko) Chrome/135.0.0.0 Safari/537.36 Edg/135.0.0.0",WebKit,Edge,gqrv4hkxlwv1buf,Female,NA,No,999937.7000000476,NA,6.204,NA,B,choice,tcd,trinary,repulsion_A,1,televisions,NA,NA,NA,NA,NA,NA,1,100,90,100,30,40,20,Screen size,Average lifespan,c
3,choice_trial,21,766760,0.0-4.0-1.8,1,"Mozilla/5.0 (Windows NT 10.0; Win64; x64) AppleWebKit/537.36 (KHTML, like Gecko) Chrome/135.0.0.0 Safari/537.36 Edg/135.0.0.0",WebKit,Edge,gqrv4hkxlwv1buf,Female,NA,No,999937.7000000476,NA,12.23,NA,C,choice,wwb,trinary,catch,NA,microwave ovens,50,80,30,25,40,20,1,NA,NA,NA,NA,NA,NA,Warranty,Cooking power,b
3,choice_trial,23,775956,0.0-4.0-1.9,1,"Mozilla/5.0 (Windows NT 10.0; Win64; x64) AppleWebKit/537.36 (KHTML, like Gecko) Chrome/135.0.0.0 Safari/537.36 Edg/135.0.0.0",WebKit,Edge,gqrv4hkxlwv1buf,Female,NA,No,999937.7000000476,NA,8.886,NA,A,choice,tcd,trinary,repulsion_B,2,laptops,NA,NA,NA,NA,NA,NA,2,40,30,40,90,100,80,Processing speed,Memory (RAM),t
3,choice_trial,25,779467,0.0-4.0-1.10,1,"Mozilla/5.0 (Windows NT 10.0; Win64; x64) AppleWebKit/537.36 (KHTML, like Gecko) Chrome/135.0.0.0 Safari/537.36 Edg/135.0.0.0",WebKit,Edge,gqrv4hkxlwv1buf,Female,NA,No,999937.7000000476,NA,3.198,NA,B,choice,tc,binary,attraction,NA,televisions,NA,NA,NA,NA,NA,NA,2,60,50,NA,50,60,NA,Screen size,Average lifespan,c
3,choice_trial,27,782271,0.0-4.0-1.11,1,"Mozilla/5.0 (Windows NT 10.0; Win64; x64) AppleWebKit/537.36 (KHTML, like Gecko) Chrome/135.0.0.0 Safari/537.36 Edg/135.0.0.0",WebKit,Edge,gqrv4hkxlwv1buf,Female,NA,No,999937.7000000476,NA,2.484,NA,B,choice,dct,trinary,attraction,2,microwave ovens,NA,NA,NA,NA,NA,NA,1,50,60,40,60,50,60,Warranty,Cooking power,c
3,choice_trial,29,785596,0.0-4.0-1.12,1,"Mozilla/5.0 (Windows NT 10.0; Win64; x64) AppleWebKit/537.36 (KHTML, like Gecko) Chrome/135.0.0.0 Safari/537.36 Edg/135.0.0.0",WebKit,Edge,gqrv4hkxlwv1buf,Female,NA,No,999937.7000000476,NA,3.016,NA,B,choice,wb,binary,catch,NA,televisions,55,90,30,20,NA,NA,1,NA,NA,NA,NA,NA,NA,Screen size,Average lifespan,b
3,choice_trial,31,790001,0.0-4.0-1.13,1,"Mozilla/5.0 (Windows NT 10.0; Win64; x64) AppleWebKit/537.36 (KHTML, like Gecko) Chrome/135.0.0.0 Safari/537.36 Edg/135.0.0.0",WebKit,Edge,gqrv4hkxlwv1buf,Female,NA,No,999937.7000000476,NA,4.097,NA,C,choice,cdt,trinary,repulsion_B,1,microwave ovens,NA,NA,NA,NA,NA,NA,1,90,100,80,40,30,40,Warranty,Cooking power,t
3,choice_trial,33,793172,0.0-4.0-1.14,1,"Mozilla/5.0 (Windows NT 10.0; Win64; x64) AppleWebKit/537.36 (KHTML, like Gecko) Chrome/135.0.0.0 Safari/537.36 Edg/135.0.0.0",WebKit,Edge,gqrv4hkxlwv1buf,Female,NA,No,999937.7000000476,NA,2.849,NA,A,choice,cdt,trinary,repulsion_A,2,laptops,NA,NA,NA,NA,NA,NA,2,30,40,20,100,90,100,Processing speed,Memory (RAM),c
3,choice_trial,35,799219,0.0-4.0-1.15,1,"Mozilla/5.0 (Windows NT 10.0; Win64; x64) AppleWebKit/537.36 (KHTML, like Gecko) Chrome/135.0.0.0 Safari/537.36 Edg/135.0.0.0",WebKit,Edge,gqrv4hkxlwv1buf,Female,NA,No,999937.7000000476,NA,5.732,NA,A,choice,ctd,trinary,repulsion_B,2,washing machines,NA,NA,NA,NA,NA,NA,1,40,30,40,90,100,80,Average lifespan,Energy savings,c
3,choice_trial,37,802495,0.0-4.0-1.16,1,"Mozilla/5.0 (Windows NT 10.0; Win64; x64) AppleWebKit/537.36 (KHTML, like Gecko) Chrome/135.0.0.0 Safari/537.36 Edg/135.0.0.0",WebKit,Edge,gqrv4hkxlwv1buf,Female,NA,No,999937.7000000476,NA,2.956,NA,A,choice,ct,binary,repulsion,1,microwave ovens,NA,NA,NA,NA,NA,NA,1,100,90,NA,30,40,NA,Warranty,Cooking power,c
3,choice_trial,39,810065,0.0-4.0-1.17,1,"Mozilla/5.0 (Windows NT 10.0; Win64; x64) AppleWebKit/537.36 (KHTML, like Gecko) Chrome/135.0.0.0 Safari/537.36 Edg/135.0.0.0",WebKit,Edge,gqrv4hkxlwv1buf,Female,NA,No,999937.7000000476,NA,7.261,NA,B,choice,tc,binary,repulsion,1,televisions,NA,NA,NA,NA,NA,NA,2,100,90,NA,30,40,NA,Screen size,Average lifespan,c
3,choice_trial,41,813795,0.0-4.0-1.18,1,"Mozilla/5.0 (Windows NT 10.0; Win64; x64) AppleWebKit/537.36 (KHTML, like Gecko) Chrome/135.0.0.0 Safari/537.36 Edg/135.0.0.0",WebKit,Edge,gqrv4hkxlwv1buf,Female,NA,No,999937.7000000476,NA,3.423,NA,B,choice,tc,binary,attraction,NA,microwave ovens,NA,NA,NA,NA,NA,NA,2,60,50,NA,50,60,NA,Warranty,Cooking power,c
3,choice_trial,43,820416,0.0-4.0-1.19,1,"Mozilla/5.0 (Windows NT 10.0; Win64; x64) AppleWebKit/537.36 (KHTML, like Gecko) Chrome/135.0.0.0 Safari/537.36 Edg/135.0.0.0",WebKit,Edge,gqrv4hkxlwv1buf,Female,NA,No,999937.7000000476,NA,6.314,NA,A,choice,cdt,trinary,repulsion_A,2,microwave ovens,NA,NA,NA,NA,NA,NA,1,30,40,20,100,90,100,Warranty,Cooking power,c
3,choice_trial,45,824365,0.0-4.0-1.20,1,"Mozilla/5.0 (Windows NT 10.0; Win64; x64) AppleWebKit/537.36 (KHTML, like Gecko) Chrome/135.0.0.0 Safari/537.36 Edg/135.0.0.0",WebKit,Edge,gqrv4hkxlwv1buf,Female,NA,No,999937.7000000476,NA,3.632,NA,C,choice,wwb,trinary,catch,NA,televisions,90,85,30,35,40,45,1,NA,NA,NA,NA,NA,NA,Screen size,Average lifespan,b
3,choice_trial,47,828190,0.0-4.0-1.21,1,"Mozilla/5.0 (Windows NT 10.0; Win64; x64) AppleWebKit/537.36 (KHTML, like Gecko) Chrome/135.0.0.0 Safari/537.36 Edg/135.0.0.0",WebKit,Edge,gqrv4hkxlwv1buf,Female,NA,No,999937.7000000476,NA,3.518,NA,B,choice,dtc,trinary,attraction,1,washing machines,NA,NA,NA,NA,NA,NA,1,60,50,60,50,60,40,Average lifespan,Energy savings,t
3,choice_trial,49,833500,0.0-4.0-1.22,1,"Mozilla/5.0 (Windows NT 10.0; Win64; x64) AppleWebKit/537.36 (KHTML, like Gecko) Chrome/135.0.0.0 Safari/537.36 Edg/135.0.0.0",WebKit,Edge,gqrv4hkxlwv1buf,Female,NA,No,999937.7000000476,NA,4.993,NA,A,choice,tcd,trinary,repulsion_B,1,washing machines,NA,NA,NA,NA,NA,NA,2,90,100,80,40,30,40,Average lifespan,Energy savings,t
3,choice_trial,51,842244,0.0-4.0-1.23,1,"Mozilla/5.0 (Windows NT 10.0; Win64; x64) AppleWebKit/537.36 (KHTML, like Gecko) Chrome/135.0.0.0 Safari/537.36 Edg/135.0.0.0",WebKit,Edge,gqrv4hkxlwv1buf,Female,NA,No,999937.7000000476,NA,8.426,NA,A,choice,ct,binary,repulsion,1,laptops,NA,NA,NA,NA,NA,NA,2,100,90,NA,30,40,NA,Processing speed,Memory (RAM),c
3,choice_trial,53,851434,0.0-4.0-1.24,1,"Mozilla/5.0 (Windows NT 10.0; Win64; x64) AppleWebKit/537.36 (KHTML, like Gecko) Chrome/135.0.0.0 Safari/537.36 Edg/135.0.0.0",WebKit,Edge,gqrv4hkxlwv1buf,Female,NA,No,999937.7000000476,NA,8.877,NA,B,choice,wb,binary,catch,NA,microwave ovens,65,80,20,50,NA,NA,2,NA,NA,NA,NA,NA,NA,Warranty,Cooking power,b
3,choice_trial,55,853990,0.0-4.0-1.25,1,"Mozilla/5.0 (Windows NT 10.0; Win64; x64) AppleWebKit/537.36 (KHTML, like Gecko) Chrome/135.0.0.0 Safari/537.36 Edg/135.0.0.0",WebKit,Edge,gqrv4hkxlwv1buf,Female,NA,No,999937.7000000476,NA,2.233,NA,B,choice,wb,binary,catch,NA,laptops,85,80,10,40,NA,NA,1,NA,NA,NA,NA,NA,NA,Processing speed,Memory (RAM),b
3,choice_trial,57,858089,0.0-4.0-1.26,1,"Mozilla/5.0 (Windows NT 10.0; Win64; x64) AppleWebKit/537.36 (KHTML, like Gecko) Chrome/135.0.0.0 Safari/537.36 Edg/135.0.0.0",WebKit,Edge,gqrv4hkxlwv1buf,Female,NA,No,999937.7000000476,NA,3.792,NA,B,choice,wbw,trinary,catch,NA,washing machines,75,85,45,25,30,35,1,NA,NA,NA,NA,NA,NA,Average lifespan,Energy savings,b
3,choice_trial,59,861996,0.0-4.0-1.27,1,"Mozilla/5.0 (Windows NT 10.0; Win64; x64) AppleWebKit/537.36 (KHTML, like Gecko) Chrome/135.0.0.0 Safari/537.36 Edg/135.0.0.0",WebKit,Edge,gqrv4hkxlwv1buf,Female,NA,No,999937.7000000476,NA,3.594,NA,B,choice,tcd,trinary,attraction,1,laptops,NA,NA,NA,NA,NA,NA,2,60,50,60,50,60,40,Processing speed,Memory (RAM),c
3,choice_trial,61,865232,0.0-4.0-1.28,1,"Mozilla/5.0 (Windows NT 10.0; Win64; x64) AppleWebKit/537.36 (KHTML, like Gecko) Chrome/135.0.0.0 Safari/537.36 Edg/135.0.0.0",WebKit,Edge,gqrv4hkxlwv1buf,Female,NA,No,999937.7000000476,NA,2.912,NA,B,choice,tc,binary,repulsion,2,washing machines,NA,NA,NA,NA,NA,NA,1,30,40,NA,100,90,NA,Average lifespan,Energy savings,c
3,choice_trial,63,867617,0.0-4.0-1.29,1,"Mozilla/5.0 (Windows NT 10.0; Win64; x64) AppleWebKit/537.36 (KHTML, like Gecko) Chrome/135.0.0.0 Safari/537.36 Edg/135.0.0.0",WebKit,Edge,gqrv4hkxlwv1buf,Female,NA,No,999937.7000000476,NA,2.078,NA,B,choice,ct,binary,attraction,NA,laptops,NA,NA,NA,NA,NA,NA,1,60,50,NA,50,60,NA,Processing speed,Memory (RAM),t
3,choice_trial,65,873719,0.0-4.0-1.30,1,"Mozilla/5.0 (Windows NT 10.0; Win64; x64) AppleWebKit/537.36 (KHTML, like Gecko) Chrome/135.0.0.0 Safari/537.36 Edg/135.0.0.0",WebKit,Edge,gqrv4hkxlwv1buf,Female,NA,No,999937.7000000476,NA,5.786,NA,B,choice,tcd,trinary,repulsion_A,2,televisions,NA,NA,NA,NA,NA,NA,1,30,40,20,100,90,100,Screen size,Average lifespan,c
3,choice_trial,67,876700,0.0-4.0-1.31,1,"Mozilla/5.0 (Windows NT 10.0; Win64; x64) AppleWebKit/537.36 (KHTML, like Gecko) Chrome/135.0.0.0 Safari/537.36 Edg/135.0.0.0",WebKit,Edge,gqrv4hkxlwv1buf,Female,NA,No,999937.7000000476,NA,2.671,NA,B,choice,ctd,trinary,attraction,2,washing machines,NA,NA,NA,NA,NA,NA,2,50,60,40,60,50,60,Average lifespan,Energy savings,t
3,choice_trial,69,880566,0.0-4.0-1.32,1,"Mozilla/5.0 (Windows NT 10.0; Win64; x64) AppleWebKit/537.36 (KHTML, like Gecko) Chrome/135.0.0.0 Safari/537.36 Edg/135.0.0.0",WebKit,Edge,gqrv4hkxlwv1buf,Female,NA,No,999937.7000000476,NA,3.548,NA,A,choice,tdc,trinary,attraction,2,laptops,NA,NA,NA,NA,NA,NA,2,50,60,40,60,50,60,Processing speed,Memory (RAM),t
3,choice_trial,71,884496,0.0-4.0-1.33,1,"Mozilla/5.0 (Windows NT 10.0; Win64; x64) AppleWebKit/537.36 (KHTML, like Gecko) Chrome/135.0.0.0 Safari/537.36 Edg/135.0.0.0",WebKit,Edge,gqrv4hkxlwv1buf,Female,NA,No,999937.7000000476,NA,3.606,NA,A,choice,tcd,trinary,repulsion_B,2,microwave ovens,NA,NA,NA,NA,NA,NA,2,40,30,40,90,100,80,Warranty,Cooking power,t
3,choice_trial,73,887732,0.0-4.0-1.34,1,"Mozilla/5.0 (Windows NT 10.0; Win64; x64) AppleWebKit/537.36 (KHTML, like Gecko) Chrome/135.0.0.0 Safari/537.36 Edg/135.0.0.0",WebKit,Edge,gqrv4hkxlwv1buf,Female,NA,No,999937.7000000476,NA,2.912,NA,B,choice,ctd,trinary,repulsion_B,1,laptops,NA,NA,NA,NA,NA,NA,1,90,100,80,40,30,40,Processing speed,Memory (RAM),t
3,choice_trial,75,890683,0.0-4.0-1.35,1,"Mozilla/5.0 (Windows NT 10.0; Win64; x64) AppleWebKit/537.36 (KHTML, like Gecko) Chrome/135.0.0.0 Safari/537.36 Edg/135.0.0.0",WebKit,Edge,gqrv4hkxlwv1buf,Female,NA,No,999937.7000000476,NA,2.628,NA,A,choice,ct,binary,repulsion,2,microwave ovens,NA,NA,NA,NA,NA,NA,2,30,40,NA,100,90,NA,Warranty,Cooking power,c
3,choice_trial,77,893331,0.0-4.0-1.36,1,"Mozilla/5.0 (Windows NT 10.0; Win64; x64) AppleWebKit/537.36 (KHTML, like Gecko) Chrome/135.0.0.0 Safari/537.36 Edg/135.0.0.0",WebKit,Edge,gqrv4hkxlwv1buf,Female,NA,No,999937.7000000476,NA,2.325,NA,A,choice,ct,binary,repulsion,1,washing machines,NA,NA,NA,NA,NA,NA,1,100,90,NA,30,40,NA,Average lifespan,Energy savings,c
3,choice_trial,79,898505,0.0-4.0-1.37,1,"Mozilla/5.0 (Windows NT 10.0; Win64; x64) AppleWebKit/537.36 (KHTML, like Gecko) Chrome/135.0.0.0 Safari/537.36 Edg/135.0.0.0",WebKit,Edge,gqrv4hkxlwv1buf,Female,NA,No,999937.7000000476,NA,4.849,NA,B,choice,tc,binary,repulsion,2,televisions,NA,NA,NA,NA,NA,NA,1,30,40,NA,100,90,NA,Screen size,Average lifespan,c
3,choice_trial,81,902341,0.0-4.0-1.38,1,"Mozilla/5.0 (Windows NT 10.0; Win64; x64) AppleWebKit/537.36 (KHTML, like Gecko) Chrome/135.0.0.0 Safari/537.36 Edg/135.0.0.0",WebKit,Edge,gqrv4hkxlwv1buf,Female,NA,No,999937.7000000476,NA,3.521,NA,A,choice,ctd,trinary,repulsion_A,1,laptops,NA,NA,NA,NA,NA,NA,2,100,90,100,30,40,20,Processing speed,Memory (RAM),c
3,choice_trial,83,907102,0.0-4.0-1.39,1,"Mozilla/5.0 (Windows NT 10.0; Win64; x64) AppleWebKit/537.36 (KHTML, like Gecko) Chrome/135.0.0.0 Safari/537.36 Edg/135.0.0.0",WebKit,Edge,gqrv4hkxlwv1buf,Female,NA,No,999937.7000000476,NA,4.454,NA,C,choice,tdc,trinary,repulsion_A,2,washing machines,NA,NA,NA,NA,NA,NA,1,30,40,20,100,90,100,Average lifespan,Energy savings,c
3,choice_trial,85,910989,0.0-4.0-1.40,1,"Mozilla/5.0 (Windows NT 10.0; Win64; x64) AppleWebKit/537.36 (KHTML, like Gecko) Chrome/135.0.0.0 Safari/537.36 Edg/135.0.0.0",WebKit,Edge,gqrv4hkxlwv1buf,Female,NA,No,999937.7000000476,NA,3.566,NA,B,choice,dtc,trinary,repulsion_A,1,microwave ovens,NA,NA,NA,NA,NA,NA,1,100,90,100,30,40,20,Warranty,Cooking power,t
3,choice_trial,87,915429,0.0-4.0-1.41,1,"Mozilla/5.0 (Windows NT 10.0; Win64; x64) AppleWebKit/537.36 (KHTML, like Gecko) Chrome/135.0.0.0 Safari/537.36 Edg/135.0.0.0",WebKit,Edge,gqrv4hkxlwv1buf,Female,NA,No,999937.7000000476,NA,4.119,NA,A,choice,bww,trinary,catch,NA,laptops,50,75,40,35,35,35,1,NA,NA,NA,NA,NA,NA,Processing speed,Memory (RAM),b
3,choice_trial,89,918204,0.0-4.0-1.42,1,"Mozilla/5.0 (Windows NT 10.0; Win64; x64) AppleWebKit/537.36 (KHTML, like Gecko) Chrome/135.0.0.0 Safari/537.36 Edg/135.0.0.0",WebKit,Edge,gqrv4hkxlwv1buf,Female,NA,No,999937.7000000476,NA,2.451,NA,B,choice,tc,binary,repulsion,2,laptops,NA,NA,NA,NA,NA,NA,1,30,40,NA,100,90,NA,Processing speed,Memory (RAM),c
3,choice_trial,91,922515,0.0-4.0-1.43,1,"Mozilla/5.0 (Windows NT 10.0; Win64; x64) AppleWebKit/537.36 (KHTML, like Gecko) Chrome/135.0.0.0 Safari/537.36 Edg/135.0.0.0",WebKit,Edge,gqrv4hkxlwv1buf,Female,NA,No,999937.7000000476,NA,3.998,NA,C,choice,dct,trinary,repulsion_B,1,televisions,NA,NA,NA,NA,NA,NA,2,90,100,80,40,30,40,Screen size,Average lifespan,t
4,choice_trial,5,34678,0.0-4.0-1.0,1,"Mozilla/5.0 (Macintosh; Intel Mac OS X 10_15_7) AppleWebKit/537.36 (KHTML, like Gecko) Chrome/135.0.0.0 Safari/537.36",Macintosh,Chrome,lqkqtyrlgxcnbqn,Male,NA,No,399507.9000005722,NA,6.932,NA,B,choice,wb,binary,catch,NA,laptops,95,65,5,50,NA,NA,1,NA,NA,NA,NA,NA,NA,Processing speed,Memory (RAM),b
4,choice_trial,7,47402,0.0-4.0-1.1,1,"Mozilla/5.0 (Macintosh; Intel Mac OS X 10_15_7) AppleWebKit/537.36 (KHTML, like Gecko) Chrome/135.0.0.0 Safari/537.36",Macintosh,Chrome,lqkqtyrlgxcnbqn,Male,NA,No,399507.9000005722,NA,12.418,NA,B,choice,tc,binary,repulsion,2,washing machines,NA,NA,NA,NA,NA,NA,1,30,40,NA,100,90,NA,Average lifespan,Energy savings,c
4,choice_trial,9,55255,0.0-4.0-1.2,1,"Mozilla/5.0 (Macintosh; Intel Mac OS X 10_15_7) AppleWebKit/537.36 (KHTML, like Gecko) Chrome/135.0.0.0 Safari/537.36",Macintosh,Chrome,lqkqtyrlgxcnbqn,Male,NA,No,399507.9000005722,NA,7.545,NA,C,choice,tdc,trinary,repulsion_A,1,televisions,NA,NA,NA,NA,NA,NA,1,100,90,100,30,40,20,Screen size,Average lifespan,c
4,choice_trial,11,63377,0.0-4.0-1.3,1,"Mozilla/5.0 (Macintosh; Intel Mac OS X 10_15_7) AppleWebKit/537.36 (KHTML, like Gecko) Chrome/135.0.0.0 Safari/537.36",Macintosh,Chrome,lqkqtyrlgxcnbqn,Male,NA,No,399507.9000005722,NA,7.815,NA,B,choice,tc,binary,repulsion,1,televisions,NA,NA,NA,NA,NA,NA,1,100,90,NA,30,40,NA,Screen size,Average lifespan,c
4,choice_trial,13,70568,0.0-4.0-1.4,1,"Mozilla/5.0 (Macintosh; Intel Mac OS X 10_15_7) AppleWebKit/537.36 (KHTML, like Gecko) Chrome/135.0.0.0 Safari/537.36",Macintosh,Chrome,lqkqtyrlgxcnbqn,Male,NA,No,399507.9000005722,NA,6.884,NA,C,choice,dtc,trinary,repulsion_B,1,laptops,NA,NA,NA,NA,NA,NA,1,90,100,80,40,30,40,Processing speed,Memory (RAM),c
4,choice_trial,15,78794,0.0-4.0-1.5,1,"Mozilla/5.0 (Macintosh; Intel Mac OS X 10_15_7) AppleWebKit/537.36 (KHTML, like Gecko) Chrome/135.0.0.0 Safari/537.36",Macintosh,Chrome,lqkqtyrlgxcnbqn,Male,NA,No,399507.9000005722,NA,7.92,NA,B,choice,dtc,trinary,repulsion_A,2,microwave ovens,NA,NA,NA,NA,NA,NA,1,30,40,20,100,90,100,Warranty,Cooking power,t
4,choice_trial,17,85563,0.0-4.0-1.6,1,"Mozilla/5.0 (Macintosh; Intel Mac OS X 10_15_7) AppleWebKit/537.36 (KHTML, like Gecko) Chrome/135.0.0.0 Safari/537.36",Macintosh,Chrome,lqkqtyrlgxcnbqn,Male,NA,No,399507.9000005722,NA,6.463,NA,A,choice,ct,binary,attraction,NA,microwave ovens,NA,NA,NA,NA,NA,NA,2,60,50,NA,50,60,NA,Warranty,Cooking power,c
4,choice_trial,19,93191,0.0-4.0-1.7,1,"Mozilla/5.0 (Macintosh; Intel Mac OS X 10_15_7) AppleWebKit/537.36 (KHTML, like Gecko) Chrome/135.0.0.0 Safari/537.36",Macintosh,Chrome,lqkqtyrlgxcnbqn,Male,NA,No,399507.9000005722,NA,7.321,NA,A,choice,bw,binary,catch,NA,washing machines,95,70,10,5,NA,NA,2,NA,NA,NA,NA,NA,NA,Average lifespan,Energy savings,b
4,choice_trial,21,98726,0.0-4.0-1.8,1,"Mozilla/5.0 (Macintosh; Intel Mac OS X 10_15_7) AppleWebKit/537.36 (KHTML, like Gecko) Chrome/135.0.0.0 Safari/537.36",Macintosh,Chrome,lqkqtyrlgxcnbqn,Male,NA,No,399507.9000005722,NA,5.23,NA,B,choice,tcd,trinary,attraction,1,microwave ovens,NA,NA,NA,NA,NA,NA,2,60,50,60,50,60,40,Warranty,Cooking power,c
4,choice_trial,23,107057,0.0-4.0-1.9,1,"Mozilla/5.0 (Macintosh; Intel Mac OS X 10_15_7) AppleWebKit/537.36 (KHTML, like Gecko) Chrome/135.0.0.0 Safari/537.36",Macintosh,Chrome,lqkqtyrlgxcnbqn,Male,NA,No,399507.9000005722,NA,8.023,NA,A,choice,tdc,trinary,attraction,1,laptops,NA,NA,NA,NA,NA,NA,2,60,50,60,50,60,40,Processing speed,Memory (RAM),t
4,choice_trial,25,111307,0.0-4.0-1.10,1,"Mozilla/5.0 (Macintosh; Intel Mac OS X 10_15_7) AppleWebKit/537.36 (KHTML, like Gecko) Chrome/135.0.0.0 Safari/537.36",Macintosh,Chrome,lqkqtyrlgxcnbqn,Male,NA,No,399507.9000005722,NA,3.945,NA,B,choice,tc,binary,repulsion,2,televisions,NA,NA,NA,NA,NA,NA,2,30,40,NA,100,90,NA,Screen size,Average lifespan,c
4,choice_trial,27,117631,0.0-4.0-1.11,1,"Mozilla/5.0 (Macintosh; Intel Mac OS X 10_15_7) AppleWebKit/537.36 (KHTML, like Gecko) Chrome/135.0.0.0 Safari/537.36",Macintosh,Chrome,lqkqtyrlgxcnbqn,Male,NA,No,399507.9000005722,NA,6.017,NA,B,choice,ctd,trinary,attraction,2,laptops,NA,NA,NA,NA,NA,NA,2,50,60,40,60,50,60,Processing speed,Memory (RAM),t
4,choice_trial,29,130126,0.0-4.0-1.12,1,"Mozilla/5.0 (Macintosh; Intel Mac OS X 10_15_7) AppleWebKit/537.36 (KHTML, like Gecko) Chrome/135.0.0.0 Safari/537.36",Macintosh,Chrome,lqkqtyrlgxcnbqn,Male,NA,No,399507.9000005722,NA,12.188,NA,B,choice,dct,trinary,attraction,1,washing machines,NA,NA,NA,NA,NA,NA,1,60,50,60,50,60,40,Average lifespan,Energy savings,c
4,choice_trial,31,150408,0.0-4.0-1.13,1,"Mozilla/5.0 (Macintosh; Intel Mac OS X 10_15_7) AppleWebKit/537.36 (KHTML, like Gecko) Chrome/135.0.0.0 Safari/537.36",Macintosh,Chrome,lqkqtyrlgxcnbqn,Male,NA,No,399507.9000005722,NA,19.974,NA,B,choice,tc,binary,repulsion,1,washing machines,NA,NA,NA,NA,NA,NA,1,100,90,NA,30,40,NA,Average lifespan,Energy savings,c
