participant,screen_id,trial_index,time_elapsed,internal_node_id,condition,user_agent,device,browser,ppt_id,gender,other_countries,prev_study,exp_duration,view_history,rt,stimulus,response,phase,order,set,effect,t_high,category,d1_best,d2_best,d1_worst1,d2_worst1,d1_worst2,d2_worst2,first_dim,d1_t,d1_c,d1_d,d2_t,d2_c,d2_d,d1_name,d2_name,choice
47,choice_trial,5,140630,0.0-4.0-1.0,1,"Mozilla/5.0 (Macintosh; Intel Mac OS X 10_15_7) AppleWebKit/605.1.15 (KHTML, like Gecko) Version/16.1 Safari/605.1.15",Macintosh,Safari,bvf665e21o5ypl7,Female,"India - 18 years 
US - 2 years",I'm not sure,434730,NA,9.823,NA,B,choice,dct,trinary,repulsion_A,1,laptops,NA,NA,NA,NA,NA,NA,2,100,90,100,30,40,20,Processing speed,Memory (RAM),c
47,choice_trial,7,147327,0.0-4.0-1.1,1,"Mozilla/5.0 (Macintosh; Intel Mac OS X 10_15_7) AppleWebKit/605.1.15 (KHTML, like Gecko) Version/16.1 Safari/605.1.15",Macintosh,Safari,bvf665e21o5ypl7,Female,"India - 18 years 
US - 2 years",I'm not sure,434730,NA,6.39,NA,C,choice,tdc,trinary,attraction,2,laptops,NA,NA,NA,NA,NA,NA,2,50,60,40,60,50,60,Processing speed,Memory (RAM),c
47,choice_trial,9,154068,0.0-4.0-1.2,1,"Mozilla/5.0 (Macintosh; Intel Mac OS X 10_15_7) AppleWebKit/605.1.15 (KHTML, like Gecko) Version/16.1 Safari/605.1.15",Macintosh,Safari,bvf665e21o5ypl7,Female,"India - 18 years 
US - 2 years",I'm not sure,434730,NA,6.432,NA,B,choice,tdc,trinary,repulsion_A,2,washing machines,NA,NA,NA,NA,NA,NA,2,30,40,20,100,90,100,Average lifespan,Energy savings,d
47,choice_trial,11,159883,0.0-4.0-1.3,1,"Mozilla/5.0 (Macintosh; Intel Mac OS X 10_15_7) AppleWebKit/605.1.15 (KHTML, like Gecko) Version/16.1 Safari/605.1.15",Macintosh,Safari,bvf665e21o5ypl7,Female,"India - 18 years 
US - 2 years",I'm not sure,434730,NA,5.508,NA,B,choice,ctd,trinary,repulsion_A,2,laptops,NA,NA,NA,NA,NA,NA,2,30,40,20,100,90,100,Processing speed,Memory (RAM),t
47,choice_trial,13,163894,0.0-4.0-1.4,1,"Mozilla/5.0 (Macintosh; Intel Mac OS X 10_15_7) AppleWebKit/605.1.15 (KHTML, like Gecko) Version/16.1 Safari/605.1.15",Macintosh,Safari,bvf665e21o5ypl7,Female,"India - 18 years 
US - 2 years",I'm not sure,434730,NA,3.703,NA,B,choice,wb,binary,catch,NA,televisions,65,75,25,40,NA,NA,2,NA,NA,NA,NA,NA,NA,Screen size,Average lifespan,b
47,choice_trial,15,171107,0.0-4.0-1.5,1,"Mozilla/5.0 (Macintosh; Intel Mac OS X 10_15_7) AppleWebKit/605.1.15 (KHTML, like Gecko) Version/16.1 Safari/605.1.15",Macintosh,Safari,bvf665e21o5ypl7,Female,"India - 18 years 
US - 2 years",I'm not sure,434730,NA,6.905,NA,C,choice,dct,trinary,attraction,1,washing machines,NA,NA,NA,NA,NA,NA,1,60,50,60,50,60,40,Average lifespan,Energy savings,t
47,choice_trial,17,175375,0.0-4.0-1.6,1,"Mozilla/5.0 (Macintosh; Intel Mac OS X 10_15_7) AppleWebKit/605.1.15 (KHTML, like Gecko) Version/16.1 Safari/605.1.15",Macintosh,Safari,bvf665e21o5ypl7,Female,"India - 18 years 
US - 2 years",I'm not sure,434730,NA,3.959,NA,A,choice,tcd,trinary,repulsion_B,2,washing machines,NA,NA,NA,NA,NA,NA,1,40,30,40,90,100,80,Average lifespan,Energy savings,t
47,choice_trial,19,184878,0.0-4.0-1.7,1,"Mozilla/5.0 (Macintosh; Intel Mac OS X 10_15_7) AppleWebKit/605.1.15 (KHTML, like Gecko) Version/16.1 Safari/605.1.15",Macintosh,Safari,bvf665e21o5ypl7,Female,"India - 18 years 
US - 2 years",I'm not sure,434730,NA,9.194,NA,C,choice,dct,trinary,repulsion_B,1,laptops,NA,NA,NA,NA,NA,NA,1,90,100,80,40,30,40,Processing speed,Memory (RAM),t
47,choice_trial,21,190198,0.0-4.0-1.8,1,"Mozilla/5.0 (Macintosh; Intel Mac OS X 10_15_7) AppleWebKit/605.1.15 (KHTML, like Gecko) Version/16.1 Safari/605.1.15",Macintosh,Safari,bvf665e21o5ypl7,Female,"India - 18 years 
US - 2 years",I'm not sure,434730,NA,5.011,NA,B,choice,tdc,trinary,repulsion_B,1,microwave ovens,NA,NA,NA,NA,NA,NA,1,90,100,80,40,30,40,Warranty,Cooking power,d
47,choice_trial,23,193553,0.0-4.0-1.9,1,"Mozilla/5.0 (Macintosh; Intel Mac OS X 10_15_7) AppleWebKit/605.1.15 (KHTML, like Gecko) Version/16.1 Safari/605.1.15",Macintosh,Safari,bvf665e21o5ypl7,Female,"India - 18 years 
US - 2 years",I'm not sure,434730,NA,3.046,NA,B,choice,wb,binary,catch,NA,laptops,90,65,40,15,NA,NA,2,NA,NA,NA,NA,NA,NA,Processing speed,Memory (RAM),b
47,choice_trial,25,201131,0.0-4.0-1.10,1,"Mozilla/5.0 (Macintosh; Intel Mac OS X 10_15_7) AppleWebKit/605.1.15 (KHTML, like Gecko) Version/16.1 Safari/605.1.15",Macintosh,Safari,bvf665e21o5ypl7,Female,"India - 18 years 
US - 2 years",I'm not sure,434730,NA,7.269,NA,B,choice,dtc,trinary,repulsion_B,2,microwave ovens,NA,NA,NA,NA,NA,NA,1,40,30,40,90,100,80,Warranty,Cooking power,t
47,choice_trial,27,207639,0.0-4.0-1.11,1,"Mozilla/5.0 (Macintosh; Intel Mac OS X 10_15_7) AppleWebKit/605.1.15 (KHTML, like Gecko) Version/16.1 Safari/605.1.15",Macintosh,Safari,bvf665e21o5ypl7,Female,"India - 18 years 
US - 2 years",I'm not sure,434730,NA,6.201,NA,C,choice,cdt,trinary,attraction,2,washing machines,NA,NA,NA,NA,NA,NA,1,50,60,40,60,50,60,Average lifespan,Energy savings,t
47,choice_trial,29,213390,0.0-4.0-1.12,1,"Mozilla/5.0 (Macintosh; Intel Mac OS X 10_15_7) AppleWebKit/605.1.15 (KHTML, like Gecko) Version/16.1 Safari/605.1.15",Macintosh,Safari,bvf665e21o5ypl7,Female,"India - 18 years 
US - 2 years",I'm not sure,434730,NA,5.445,NA,A,choice,ct,binary,repulsion,2,laptops,NA,NA,NA,NA,NA,NA,2,30,40,NA,100,90,NA,Processing speed,Memory (RAM),c
47,choice_trial,31,217836,0.0-4.0-1.13,1,"Mozilla/5.0 (Macintosh; Intel Mac OS X 10_15_7) AppleWebKit/605.1.15 (KHTML, like Gecko) Version/16.1 Safari/605.1.15",Macintosh,Safari,bvf665e21o5ypl7,Female,"India - 18 years 
US - 2 years",I'm not sure,434730,NA,4.137,NA,A,choice,ct,binary,repulsion,1,microwave ovens,NA,NA,NA,NA,NA,NA,1,100,90,NA,30,40,NA,Warranty,Cooking power,c
47,choice_trial,33,222265,0.0-4.0-1.14,1,"Mozilla/5.0 (Macintosh; Intel Mac OS X 10_15_7) AppleWebKit/605.1.15 (KHTML, like Gecko) Version/16.1 Safari/605.1.15",Macintosh,Safari,bvf665e21o5ypl7,Female,"India - 18 years 
US - 2 years",I'm not sure,434730,NA,4.121,NA,B,choice,tc,binary,repulsion,1,washing machines,NA,NA,NA,NA,NA,NA,2,100,90,NA,30,40,NA,Average lifespan,Energy savings,c
47,choice_trial,35,226569,0.0-4.0-1.15,1,"Mozilla/5.0 (Macintosh; Intel Mac OS X 10_15_7) AppleWebKit/605.1.15 (KHTML, like Gecko) Version/16.1 Safari/605.1.15",Macintosh,Safari,bvf665e21o5ypl7,Female,"India - 18 years 
US - 2 years",I'm not sure,434730,NA,3.997,NA,C,choice,dtc,trinary,repulsion_A,1,televisions,NA,NA,NA,NA,NA,NA,1,100,90,100,30,40,20,Screen size,Average lifespan,c
47,choice_trial,37,235066,0.0-4.0-1.16,1,"Mozilla/5.0 (Macintosh; Intel Mac OS X 10_15_7) AppleWebKit/605.1.15 (KHTML, like Gecko) Version/16.1 Safari/605.1.15",Macintosh,Safari,bvf665e21o5ypl7,Female,"India - 18 years 
US - 2 years",I'm not sure,434730,NA,8.188,NA,B,choice,ct,binary,attraction,NA,laptops,NA,NA,NA,NA,NA,NA,1,60,50,NA,50,60,NA,Processing speed,Memory (RAM),t
47,choice_trial,39,239921,0.0-4.0-1.17,1,"Mozilla/5.0 (Macintosh; Intel Mac OS X 10_15_7) AppleWebKit/605.1.15 (KHTML, like Gecko) Version/16.1 Safari/605.1.15",Macintosh,Safari,bvf665e21o5ypl7,Female,"India - 18 years 
US - 2 years",I'm not sure,434730,NA,4.546,NA,C,choice,dct,trinary,repulsion_B,1,televisions,NA,NA,NA,NA,NA,NA,2,90,100,80,40,30,40,Screen size,Average lifespan,t
47,choice_trial,41,245534,0.0-4.0-1.18,1,"Mozilla/5.0 (Macintosh; Intel Mac OS X 10_15_7) AppleWebKit/605.1.15 (KHTML, like Gecko) Version/16.1 Safari/605.1.15",Macintosh,Safari,bvf665e21o5ypl7,Female,"India - 18 years 
US - 2 years",I'm not sure,434730,NA,5.305,NA,A,choice,ct,binary,repulsion,1,televisions,NA,NA,NA,NA,NA,NA,1,100,90,NA,30,40,NA,Screen size,Average lifespan,c
47,choice_trial,43,249731,0.0-4.0-1.19,1,"Mozilla/5.0 (Macintosh; Intel Mac OS X 10_15_7) AppleWebKit/605.1.15 (KHTML, like Gecko) Version/16.1 Safari/605.1.15",Macintosh,Safari,bvf665e21o5ypl7,Female,"India - 18 years 
US - 2 years",I'm not sure,434730,NA,3.888,NA,A,choice,tc,binary,attraction,NA,televisions,NA,NA,NA,NA,NA,NA,2,60,50,NA,50,60,NA,Screen size,Average lifespan,t
47,choice_trial,45,255554,0.0-4.0-1.20,1,"Mozilla/5.0 (Macintosh; Intel Mac OS X 10_15_7) AppleWebKit/605.1.15 (KHTML, like Gecko) Version/16.1 Safari/605.1.15",Macintosh,Safari,bvf665e21o5ypl7,Female,"India - 18 years 
US - 2 years",I'm not sure,434730,NA,5.516,NA,B,choice,dtc,trinary,repulsion_A,2,televisions,NA,NA,NA,NA,NA,NA,2,30,40,20,100,90,100,Screen size,Average lifespan,t
47,choice_trial,47,262653,0.0-4.0-1.21,1,"Mozilla/5.0 (Macintosh; Intel Mac OS X 10_15_7) AppleWebKit/605.1.15 (KHTML, like Gecko) Version/16.1 Safari/605.1.15",Macintosh,Safari,bvf665e21o5ypl7,Female,"India - 18 years 
US - 2 years",I'm not sure,434730,NA,6.789,NA,A,choice,tcd,trinary,attraction,2,televisions,NA,NA,NA,NA,NA,NA,2,50,60,40,60,50,60,Screen size,Average lifespan,t
47,choice_trial,49,270269,0.0-4.0-1.22,1,"Mozilla/5.0 (Macintosh; Intel Mac OS X 10_15_7) AppleWebKit/605.1.15 (KHTML, like Gecko) Version/16.1 Safari/605.1.15",Macintosh,Safari,bvf665e21o5ypl7,Female,"India - 18 years 
US - 2 years",I'm not sure,434730,NA,7.307,NA,A,choice,tcd,trinary,repulsion_A,1,microwave ovens,NA,NA,NA,NA,NA,NA,1,100,90,100,30,40,20,Warranty,Cooking power,t
47,choice_trial,51,276441,0.0-4.0-1.23,1,"Mozilla/5.0 (Macintosh; Intel Mac OS X 10_15_7) AppleWebKit/605.1.15 (KHTML, like Gecko) Version/16.1 Safari/605.1.15",Macintosh,Safari,bvf665e21o5ypl7,Female,"India - 18 years 
US - 2 years",I'm not sure,434730,NA,5.857,NA,C,choice,dct,trinary,repulsion_A,2,microwave ovens,NA,NA,NA,NA,NA,NA,2,30,40,20,100,90,100,Warranty,Cooking power,t
47,choice_trial,53,281562,0.0-4.0-1.24,1,"Mozilla/5.0 (Macintosh; Intel Mac OS X 10_15_7) AppleWebKit/605.1.15 (KHTML, like Gecko) Version/16.1 Safari/605.1.15",Macintosh,Safari,bvf665e21o5ypl7,Female,"India - 18 years 
US - 2 years",I'm not sure,434730,NA,4.811,NA,B,choice,wbw,trinary,catch,NA,microwave ovens,95,70,5,20,5,10,1,NA,NA,NA,NA,NA,NA,Warranty,Cooking power,b
47,choice_trial,55,288115,0.0-4.0-1.25,1,"Mozilla/5.0 (Macintosh; Intel Mac OS X 10_15_7) AppleWebKit/605.1.15 (KHTML, like Gecko) Version/16.1 Safari/605.1.15",Macintosh,Safari,bvf665e21o5ypl7,Female,"India - 18 years 
US - 2 years",I'm not sure,434730,NA,6.243,NA,A,choice,tcd,trinary,attraction,1,televisions,NA,NA,NA,NA,NA,NA,2,60,50,60,50,60,40,Screen size,Average lifespan,t
47,choice_trial,57,293742,0.0-4.0-1.26,1,"Mozilla/5.0 (Macintosh; Intel Mac OS X 10_15_7) AppleWebKit/605.1.15 (KHTML, like Gecko) Version/16.1 Safari/605.1.15",Macintosh,Safari,bvf665e21o5ypl7,Female,"India - 18 years 
US - 2 years",I'm not sure,434730,NA,5.317,NA,B,choice,ctd,trinary,repulsion_A,1,washing machines,NA,NA,NA,NA,NA,NA,1,100,90,100,30,40,20,Average lifespan,Energy savings,t
47,choice_trial,59,297210,0.0-4.0-1.27,1,"Mozilla/5.0 (Macintosh; Intel Mac OS X 10_15_7) AppleWebKit/605.1.15 (KHTML, like Gecko) Version/16.1 Safari/605.1.15",Macintosh,Safari,bvf665e21o5ypl7,Female,"India - 18 years 
US - 2 years",I'm not sure,434730,NA,3.157,NA,A,choice,tcd,trinary,attraction,1,microwave ovens,NA,NA,NA,NA,NA,NA,1,60,50,60,50,60,40,Warranty,Cooking power,t
47,choice_trial,61,299927,0.0-4.0-1.28,1,"Mozilla/5.0 (Macintosh; Intel Mac OS X 10_15_7) AppleWebKit/605.1.15 (KHTML, like Gecko) Version/16.1 Safari/605.1.15",Macintosh,Safari,bvf665e21o5ypl7,Female,"India - 18 years 
US - 2 years",I'm not sure,434730,NA,2.406,NA,A,choice,tc,binary,attraction,NA,microwave ovens,NA,NA,NA,NA,NA,NA,1,60,50,NA,50,60,NA,Warranty,Cooking power,t
47,choice_trial,63,304581,0.0-4.0-1.29,1,"Mozilla/5.0 (Macintosh; Intel Mac OS X 10_15_7) AppleWebKit/605.1.15 (KHTML, like Gecko) Version/16.1 Safari/605.1.15",Macintosh,Safari,bvf665e21o5ypl7,Female,"India - 18 years 
US - 2 years",I'm not sure,434730,NA,4.341,NA,C,choice,cdt,trinary,repulsion_B,2,televisions,NA,NA,NA,NA,NA,NA,1,40,30,40,90,100,80,Screen size,Average lifespan,t
47,choice_trial,65,309571,0.0-4.0-1.30,1,"Mozilla/5.0 (Macintosh; Intel Mac OS X 10_15_7) AppleWebKit/605.1.15 (KHTML, like Gecko) Version/16.1 Safari/605.1.15",Macintosh,Safari,bvf665e21o5ypl7,Female,"India - 18 years 
US - 2 years",I'm not sure,434730,NA,4.679,NA,C,choice,wwb,trinary,catch,NA,washing machines,55,60,40,5,25,35,1,NA,NA,NA,NA,NA,NA,Average lifespan,Energy savings,b
47,choice_trial,67,312589,0.0-4.0-1.31,1,"Mozilla/5.0 (Macintosh; Intel Mac OS X 10_15_7) AppleWebKit/605.1.15 (KHTML, like Gecko) Version/16.1 Safari/605.1.15",Macintosh,Safari,bvf665e21o5ypl7,Female,"India - 18 years 
US - 2 years",I'm not sure,434730,NA,2.707,NA,A,choice,bw,binary,catch,NA,washing machines,90,85,15,50,NA,NA,1,NA,NA,NA,NA,NA,NA,Average lifespan,Energy savings,b
47,choice_trial,69,316638,0.0-4.0-1.32,1,"Mozilla/5.0 (Macintosh; Intel Mac OS X 10_15_7) AppleWebKit/605.1.15 (KHTML, like Gecko) Version/16.1 Safari/605.1.15",Macintosh,Safari,bvf665e21o5ypl7,Female,"India - 18 years 
US - 2 years",I'm not sure,434730,NA,3.738,NA,B,choice,ct,binary,attraction,NA,washing machines,NA,NA,NA,NA,NA,NA,1,60,50,NA,50,60,NA,Average lifespan,Energy savings,t
47,choice_trial,71,319833,0.0-4.0-1.33,1,"Mozilla/5.0 (Macintosh; Intel Mac OS X 10_15_7) AppleWebKit/605.1.15 (KHTML, like Gecko) Version/16.1 Safari/605.1.15",Macintosh,Safari,bvf665e21o5ypl7,Female,"India - 18 years 
US - 2 years",I'm not sure,434730,NA,2.884,NA,A,choice,cdt,trinary,repulsion_B,1,washing machines,NA,NA,NA,NA,NA,NA,1,90,100,80,40,30,40,Average lifespan,Energy savings,c
47,choice_trial,73,323714,0.0-4.0-1.34,1,"Mozilla/5.0 (Macintosh; Intel Mac OS X 10_15_7) AppleWebKit/605.1.15 (KHTML, like Gecko) Version/16.1 Safari/605.1.15",Macintosh,Safari,bvf665e21o5ypl7,Female,"India - 18 years 
US - 2 years",I'm not sure,434730,NA,3.571,NA,B,choice,wbw,trinary,catch,NA,televisions,80,95,30,10,50,5,1,NA,NA,NA,NA,NA,NA,Screen size,Average lifespan,b
47,choice_trial,75,328287,0.0-4.0-1.35,1,"Mozilla/5.0 (Macintosh; Intel Mac OS X 10_15_7) AppleWebKit/605.1.15 (KHTML, like Gecko) Version/16.1 Safari/605.1.15",Macintosh,Safari,bvf665e21o5ypl7,Female,"India - 18 years 
US - 2 years",I'm not sure,434730,NA,4.262,NA,A,choice,ct,binary,repulsion,1,laptops,NA,NA,NA,NA,NA,NA,2,100,90,NA,30,40,NA,Processing speed,Memory (RAM),c
47,choice_trial,77,331491,0.0-4.0-1.36,1,"Mozilla/5.0 (Macintosh; Intel Mac OS X 10_15_7) AppleWebKit/605.1.15 (KHTML, like Gecko) Version/16.1 Safari/605.1.15",Macintosh,Safari,bvf665e21o5ypl7,Female,"India - 18 years 
US - 2 years",I'm not sure,434730,NA,2.894,NA,B,choice,tc,binary,repulsion,2,microwave ovens,NA,NA,NA,NA,NA,NA,2,30,40,NA,100,90,NA,Warranty,Cooking power,c
47,choice_trial,79,335011,0.0-4.0-1.37,1,"Mozilla/5.0 (Macintosh; Intel Mac OS X 10_15_7) AppleWebKit/605.1.15 (KHTML, like Gecko) Version/16.1 Safari/605.1.15",Macintosh,Safari,bvf665e21o5ypl7,Female,"India - 18 years 
US - 2 years",I'm not sure,434730,NA,3.21,NA,B,choice,dtc,trinary,attraction,1,laptops,NA,NA,NA,NA,NA,NA,1,60,50,60,50,60,40,Processing speed,Memory (RAM),t
47,choice_trial,81,337901,0.0-4.0-1.38,1,"Mozilla/5.0 (Macintosh; Intel Mac OS X 10_15_7) AppleWebKit/605.1.15 (KHTML, like Gecko) Version/16.1 Safari/605.1.15",Macintosh,Safari,bvf665e21o5ypl7,Female,"India - 18 years 
US - 2 years",I'm not sure,434730,NA,2.576,NA,B,choice,ct,binary,repulsion,2,washing machines,NA,NA,NA,NA,NA,NA,2,30,40,NA,100,90,NA,Average lifespan,Energy savings,t
47,choice_trial,83,343107,0.0-4.0-1.39,1,"Mozilla/5.0 (Macintosh; Intel Mac OS X 10_15_7) AppleWebKit/605.1.15 (KHTML, like Gecko) Version/16.1 Safari/605.1.15",Macintosh,Safari,bvf665e21o5ypl7,Female,"India - 18 years 
US - 2 years",I'm not sure,434730,NA,4.893,NA,A,choice,ct,binary,repulsion,2,televisions,NA,NA,NA,NA,NA,NA,2,30,40,NA,100,90,NA,Screen size,Average lifespan,c
47,choice_trial,85,346385,0.0-4.0-1.40,1,"Mozilla/5.0 (Macintosh; Intel Mac OS X 10_15_7) AppleWebKit/605.1.15 (KHTML, like Gecko) Version/16.1 Safari/605.1.15",Macintosh,Safari,bvf665e21o5ypl7,Female,"India - 18 years 
US - 2 years",I'm not sure,434730,NA,2.967,NA,A,choice,tdc,trinary,repulsion_B,2,laptops,NA,NA,NA,NA,NA,NA,2,40,30,40,90,100,80,Processing speed,Memory (RAM),t
47,choice_trial,87,349359,0.0-4.0-1.41,1,"Mozilla/5.0 (Macintosh; Intel Mac OS X 10_15_7) AppleWebKit/605.1.15 (KHTML, like Gecko) Version/16.1 Safari/605.1.15",Macintosh,Safari,bvf665e21o5ypl7,Female,"India - 18 years 
US - 2 years",I'm not sure,434730,NA,2.665,NA,C,choice,wwb,trinary,catch,NA,laptops,75,50,5,35,15,45,2,NA,NA,NA,NA,NA,NA,Processing speed,Memory (RAM),b
47,choice_trial,89,354326,0.0-4.0-1.42,1,"Mozilla/5.0 (Macintosh; Intel Mac OS X 10_15_7) AppleWebKit/605.1.15 (KHTML, like Gecko) Version/16.1 Safari/605.1.15",Macintosh,Safari,bvf665e21o5ypl7,Female,"India - 18 years 
US - 2 years",I'm not sure,434730,NA,4.656,NA,A,choice,bw,binary,catch,NA,microwave ovens,70,75,45,45,NA,NA,1,NA,NA,NA,NA,NA,NA,Warranty,Cooking power,b
47,choice_trial,91,357798,0.0-4.0-1.43,1,"Mozilla/5.0 (Macintosh; Intel Mac OS X 10_15_7) AppleWebKit/605.1.15 (KHTML, like Gecko) Version/16.1 Safari/605.1.15",Macintosh,Safari,bvf665e21o5ypl7,Female,"India - 18 years 
US - 2 years",I'm not sure,434730,NA,3.159,NA,A,choice,tcd,trinary,attraction,2,microwave ovens,NA,NA,NA,NA,NA,NA,2,50,60,40,60,50,60,Warranty,Cooking power,t
48,choice_trial,5,72273,0.0-4.0-1.0,1,"Mozilla/5.0 (Macintosh; Intel Mac OS X 10_15_7) AppleWebKit/537.36 (KHTML, like Gecko) Chrome/134.0.0.0 Safari/537.36",Macintosh,Chrome,om0r7pllll9qdfs,Male,"Singapore, India, Canada",No,427331.59999996424,NA,8.956,NA,B,choice,tc,binary,attraction,NA,washing machines,NA,NA,NA,NA,NA,NA,1,60,50,NA,50,60,NA,Average lifespan,Energy savings,c
48,choice_trial,7,79014,0.0-4.0-1.1,1,"Mozilla/5.0 (Macintosh; Intel Mac OS X 10_15_7) AppleWebKit/537.36 (KHTML, like Gecko) Chrome/134.0.0.0 Safari/537.36",Macintosh,Chrome,om0r7pllll9qdfs,Male,"Singapore, India, Canada",No,427331.59999996424,NA,6.435,NA,C,choice,cdt,trinary,attraction,1,televisions,NA,NA,NA,NA,NA,NA,1,60,50,60,50,60,40,Screen size,Average lifespan,t
48,choice_trial,9,88307,0.0-4.0-1.2,1,"Mozilla/5.0 (Macintosh; Intel Mac OS X 10_15_7) AppleWebKit/537.36 (KHTML, like Gecko) Chrome/134.0.0.0 Safari/537.36",Macintosh,Chrome,om0r7pllll9qdfs,Male,"Singapore, India, Canada",No,427331.59999996424,NA,8.986,NA,B,choice,tc,binary,attraction,NA,microwave ovens,NA,NA,NA,NA,NA,NA,2,60,50,NA,50,60,NA,Warranty,Cooking power,c
48,choice_trial,11,96378,0.0-4.0-1.3,1,"Mozilla/5.0 (Macintosh; Intel Mac OS X 10_15_7) AppleWebKit/537.36 (KHTML, like Gecko) Chrome/134.0.0.0 Safari/537.36",Macintosh,Chrome,om0r7pllll9qdfs,Male,"Singapore, India, Canada",No,427331.59999996424,NA,7.763,NA,A,choice,tcd,trinary,attraction,2,televisions,NA,NA,NA,NA,NA,NA,2,50,60,40,60,50,60,Screen size,Average lifespan,t
48,choice_trial,13,104697,0.0-4.0-1.4,1,"Mozilla/5.0 (Macintosh; Intel Mac OS X 10_15_7) AppleWebKit/537.36 (KHTML, like Gecko) Chrome/134.0.0.0 Safari/537.36",Macintosh,Chrome,om0r7pllll9qdfs,Male,"Singapore, India, Canada",No,427331.59999996424,NA,8.013,NA,A,choice,bw,binary,catch,NA,televisions,95,70,20,20,NA,NA,1,NA,NA,NA,NA,NA,NA,Screen size,Average lifespan,b
48,choice_trial,15,112169,0.0-4.0-1.5,1,"Mozilla/5.0 (Macintosh; Intel Mac OS X 10_15_7) AppleWebKit/537.36 (KHTML, like Gecko) Chrome/134.0.0.0 Safari/537.36",Macintosh,Chrome,om0r7pllll9qdfs,Male,"Singapore, India, Canada",No,427331.59999996424,NA,7.164,NA,B,choice,tc,binary,repulsion,2,laptops,NA,NA,NA,NA,NA,NA,2,30,40,NA,100,90,NA,Processing speed,Memory (RAM),c
48,choice_trial,17,116782,0.0-4.0-1.6,1,"Mozilla/5.0 (Macintosh; Intel Mac OS X 10_15_7) AppleWebKit/537.36 (KHTML, like Gecko) Chrome/134.0.0.0 Safari/537.36",Macintosh,Chrome,om0r7pllll9qdfs,Male,"Singapore, India, Canada",No,427331.59999996424,NA,4.306,NA,A,choice,ct,binary,repulsion,2,washing machines,NA,NA,NA,NA,NA,NA,1,30,40,NA,100,90,NA,Average lifespan,Energy savings,c
48,choice_trial,19,120329,0.0-4.0-1.7,1,"Mozilla/5.0 (Macintosh; Intel Mac OS X 10_15_7) AppleWebKit/537.36 (KHTML, like Gecko) Chrome/134.0.0.0 Safari/537.36",Macintosh,Chrome,om0r7pllll9qdfs,Male,"Singapore, India, Canada",No,427331.59999996424,NA,3.239,NA,A,choice,bw,binary,catch,NA,laptops,60,95,40,10,NA,NA,2,NA,NA,NA,NA,NA,NA,Processing speed,Memory (RAM),b
48,choice_trial,21,125419,0.0-4.0-1.8,1,"Mozilla/5.0 (Macintosh; Intel Mac OS X 10_15_7) AppleWebKit/537.36 (KHTML, like Gecko) Chrome/134.0.0.0 Safari/537.36",Macintosh,Chrome,om0r7pllll9qdfs,Male,"Singapore, India, Canada",No,427331.59999996424,NA,4.783,NA,A,choice,tcd,trinary,repulsion_B,1,washing machines,NA,NA,NA,NA,NA,NA,2,90,100,80,40,30,40,Average lifespan,Energy savings,t
48,choice_trial,23,129263,0.0-4.0-1.9,1,"Mozilla/5.0 (Macintosh; Intel Mac OS X 10_15_7) AppleWebKit/537.36 (KHTML, like Gecko) Chrome/134.0.0.0 Safari/537.36",Macintosh,Chrome,om0r7pllll9qdfs,Male,"Singapore, India, Canada",No,427331.59999996424,NA,3.537,NA,C,choice,tdc,trinary,repulsion_A,2,televisions,NA,NA,NA,NA,NA,NA,1,30,40,20,100,90,100,Screen size,Average lifespan,c
48,choice_trial,25,132914,0.0-4.0-1.10,1,"Mozilla/5.0 (Macintosh; Intel Mac OS X 10_15_7) AppleWebKit/537.36 (KHTML, like Gecko) Chrome/134.0.0.0 Safari/537.36",Macintosh,Chrome,om0r7pllll9qdfs,Male,"Singapore, India, Canada",No,427331.59999996424,NA,3.343,NA,B,choice,wbw,trinary,catch,NA,washing machines,80,80,50,40,15,20,2,NA,NA,NA,NA,NA,NA,Average lifespan,Energy savings,b
48,choice_trial,27,136969,0.0-4.0-1.11,1,"Mozilla/5.0 (Macintosh; Intel Mac OS X 10_15_7) AppleWebKit/537.36 (KHTML, like Gecko) Chrome/134.0.0.0 Safari/537.36",Macintosh,Chrome,om0r7pllll9qdfs,Male,"Singapore, India, Canada",No,427331.59999996424,NA,3.747,NA,C,choice,dct,trinary,attraction,2,washing machines,NA,NA,NA,NA,NA,NA,2,50,60,40,60,50,60,Average lifespan,Energy savings,t
48,choice_trial,29,141057,0.0-4.0-1.12,1,"Mozilla/5.0 (Macintosh; Intel Mac OS X 10_15_7) AppleWebKit/537.36 (KHTML, like Gecko) Chrome/134.0.0.0 Safari/537.36",Macintosh,Chrome,om0r7pllll9qdfs,Male,"Singapore, India, Canada",No,427331.59999996424,NA,3.78,NA,A,choice,ct,binary,repulsion,2,microwave ovens,NA,NA,NA,NA,NA,NA,2,30,40,NA,100,90,NA,Warranty,Cooking power,c
48,choice_trial,31,149415,0.0-4.0-1.13,1,"Mozilla/5.0 (Macintosh; Intel Mac OS X 10_15_7) AppleWebKit/537.36 (KHTML, like Gecko) Chrome/134.0.0.0 Safari/537.36",Macintosh,Chrome,om0r7pllll9qdfs,Male,"Singapore, India, Canada",No,427331.59999996424,NA,8.051,NA,B,choice,tcd,trinary,repulsion_A,1,microwave ovens,NA,NA,NA,NA,NA,NA,1,100,90,100,30,40,20,Warranty,Cooking power,c
48,choice_trial,33,154151,0.0-4.0-1.14,1,"Mozilla/5.0 (Macintosh; Intel Mac OS X 10_15_7) AppleWebKit/537.36 (KHTML, like Gecko) Chrome/134.0.0.0 Safari/537.36",Macintosh,Chrome,om0r7pllll9qdfs,Male,"Singapore, India, Canada",No,427331.59999996424,NA,4.428,NA,C,choice,tdc,trinary,repulsion_A,2,laptops,NA,NA,NA,NA,NA,NA,1,30,40,20,100,90,100,Processing speed,Memory (RAM),c
48,choice_trial,35,162061,0.0-4.0-1.15,1,"Mozilla/5.0 (Macintosh; Intel Mac OS X 10_15_7) AppleWebKit/537.36 (KHTML, like Gecko) Chrome/134.0.0.0 Safari/537.36",Macintosh,Chrome,om0r7pllll9qdfs,Male,"Singapore, India, Canada",No,427331.59999996424,NA,7.601,NA,A,choice,tcd,trinary,repulsion_A,1,televisions,NA,NA,NA,NA,NA,NA,2,100,90,100,30,40,20,Screen size,Average lifespan,t
48,choice_trial,37,168987,0.0-4.0-1.16,1,"Mozilla/5.0 (Macintosh; Intel Mac OS X 10_15_7) AppleWebKit/537.36 (KHTML, like Gecko) Chrome/134.0.0.0 Safari/537.36",Macintosh,Chrome,om0r7pllll9qdfs,Male,"Singapore, India, Canada",No,427331.59999996424,NA,6.616,NA,C,choice,dtc,trinary,repulsion_A,1,laptops,NA,NA,NA,NA,NA,NA,2,100,90,100,30,40,20,Processing speed,Memory (RAM),c
48,choice_trial,39,178044,0.0-4.0-1.17,1,"Mozilla/5.0 (Macintosh; Intel Mac OS X 10_15_7) AppleWebKit/537.36 (KHTML, like Gecko) Chrome/134.0.0.0 Safari/537.36",Macintosh,Chrome,om0r7pllll9qdfs,Male,"Singapore, India, Canada",No,427331.59999996424,NA,8.748,NA,B,choice,ct,binary,attraction,NA,televisions,NA,NA,NA,NA,NA,NA,1,60,50,NA,50,60,NA,Screen size,Average lifespan,t
48,choice_trial,41,183726,0.0-4.0-1.18,1,"Mozilla/5.0 (Macintosh; Intel Mac OS X 10_15_7) AppleWebKit/537.36 (KHTML, like Gecko) Chrome/134.0.0.0 Safari/537.36",Macintosh,Chrome,om0r7pllll9qdfs,Male,"Singapore, India, Canada",No,427331.59999996424,NA,5.373,NA,C,choice,cdt,trinary,repulsion_B,2,laptops,NA,NA,NA,NA,NA,NA,1,40,30,40,90,100,80,Processing speed,Memory (RAM),t
48,choice_trial,43,187667,0.0-4.0-1.19,1,"Mozilla/5.0 (Macintosh; Intel Mac OS X 10_15_7) AppleWebKit/537.36 (KHTML, like Gecko) Chrome/134.0.0.0 Safari/537.36",Macintosh,Chrome,om0r7pllll9qdfs,Male,"Singapore, India, Canada",No,427331.59999996424,NA,3.632,NA,B,choice,wbw,trinary,catch,NA,microwave ovens,60,85,40,40,35,50,2,NA,NA,NA,NA,NA,NA,Warranty,Cooking power,b
48,choice_trial,45,192330,0.0-4.0-1.20,1,"Mozilla/5.0 (Macintosh; Intel Mac OS X 10_15_7) AppleWebKit/537.36 (KHTML, like Gecko) Chrome/134.0.0.0 Safari/537.36",Macintosh,Chrome,om0r7pllll9qdfs,Male,"Singapore, India, Canada",No,427331.59999996424,NA,4.353,NA,B,choice,tc,binary,repulsion,1,microwave ovens,NA,NA,NA,NA,NA,NA,1,100,90,NA,30,40,NA,Warranty,Cooking power,c
48,choice_trial,47,197307,0.0-4.0-1.21,1,"Mozilla/5.0 (Macintosh; Intel Mac OS X 10_15_7) AppleWebKit/537.36 (KHTML, like Gecko) Chrome/134.0.0.0 Safari/537.36",Macintosh,Chrome,om0r7pllll9qdfs,Male,"Singapore, India, Canada",No,427331.59999996424,NA,4.668,NA,C,choice,cdt,trinary,repulsion_B,2,washing machines,NA,NA,NA,NA,NA,NA,2,40,30,40,90,100,80,Average lifespan,Energy savings,t
48,choice_trial,49,202083,0.0-4.0-1.22,1,"Mozilla/5.0 (Macintosh; Intel Mac OS X 10_15_7) AppleWebKit/537.36 (KHTML, like Gecko) Chrome/134.0.0.0 Safari/537.36",Macintosh,Chrome,om0r7pllll9qdfs,Male,"Singapore, India, Canada",No,427331.59999996424,NA,4.468,NA,C,choice,dct,trinary,repulsion_B,1,televisions,NA,NA,NA,NA,NA,NA,1,90,100,80,40,30,40,Screen size,Average lifespan,t
48,choice_trial,51,207287,0.0-4.0-1.23,1,"Mozilla/5.0 (Macintosh; Intel Mac OS X 10_15_7) AppleWebKit/537.36 (KHTML, like Gecko) Chrome/134.0.0.0 Safari/537.36",Macintosh,Chrome,om0r7pllll9qdfs,Male,"Singapore, India, Canada",No,427331.59999996424,NA,4.895,NA,A,choice,ct,binary,repulsion,1,laptops,NA,NA,NA,NA,NA,NA,2,100,90,NA,30,40,NA,Processing speed,Memory (RAM),c
48,choice_trial,53,215664,0.0-4.0-1.24,1,"Mozilla/5.0 (Macintosh; Intel Mac OS X 10_15_7) AppleWebKit/537.36 (KHTML, like Gecko) Chrome/134.0.0.0 Safari/537.36",Macintosh,Chrome,om0r7pllll9qdfs,Male,"Singapore, India, Canada",No,427331.59999996424,NA,8.069,NA,C,choice,dct,trinary,attraction,2,microwave ovens,NA,NA,NA,NA,NA,NA,2,50,60,40,60,50,60,Warranty,Cooking power,t
48,choice_trial,55,220699,0.0-4.0-1.25,1,"Mozilla/5.0 (Macintosh; Intel Mac OS X 10_15_7) AppleWebKit/537.36 (KHTML, like Gecko) Chrome/134.0.0.0 Safari/537.36",Macintosh,Chrome,om0r7pllll9qdfs,Male,"Singapore, India, Canada",No,427331.59999996424,NA,4.727,NA,B,choice,wbw,trinary,catch,NA,televisions,60,65,40,25,15,25,1,NA,NA,NA,NA,NA,NA,Screen size,Average lifespan,b
48,choice_trial,57,225676,0.0-4.0-1.26,1,"Mozilla/5.0 (Macintosh; Intel Mac OS X 10_15_7) AppleWebKit/537.36 (KHTML, like Gecko) Chrome/134.0.0.0 Safari/537.36",Macintosh,Chrome,om0r7pllll9qdfs,Male,"Singapore, India, Canada",No,427331.59999996424,NA,4.668,NA,C,choice,dtc,trinary,repulsion_A,1,washing machines,NA,NA,NA,NA,NA,NA,1,100,90,100,30,40,20,Average lifespan,Energy savings,c
48,choice_trial,59,235098,0.0-4.0-1.27,1,"Mozilla/5.0 (Macintosh; Intel Mac OS X 10_15_7) AppleWebKit/537.36 (KHTML, like Gecko) Chrome/134.0.0.0 Safari/537.36",Macintosh,Chrome,om0r7pllll9qdfs,Male,"Singapore, India, Canada",No,427331.59999996424,NA,9.114,NA,C,choice,dct,trinary,attraction,1,washing machines,NA,NA,NA,NA,NA,NA,2,60,50,60,50,60,40,Average lifespan,Energy savings,t
48,choice_trial,61,242164,0.0-4.0-1.28,1,"Mozilla/5.0 (Macintosh; Intel Mac OS X 10_15_7) AppleWebKit/537.36 (KHTML, like Gecko) Chrome/134.0.0.0 Safari/537.36",Macintosh,Chrome,om0r7pllll9qdfs,Male,"Singapore, India, Canada",No,427331.59999996424,NA,6.754,NA,A,choice,tcd,trinary,repulsion_B,1,microwave ovens,NA,NA,NA,NA,NA,NA,2,90,100,80,40,30,40,Warranty,Cooking power,t
48,choice_trial,63,255122,0.0-4.0-1.29,1,"Mozilla/5.0 (Macintosh; Intel Mac OS X 10_15_7) AppleWebKit/537.36 (KHTML, like Gecko) Chrome/134.0.0.0 Safari/537.36",Macintosh,Chrome,om0r7pllll9qdfs,Male,"Singapore, India, Canada",No,427331.59999996424,NA,12.647,NA,B,choice,ctd,trinary,attraction,2,laptops,NA,NA,NA,NA,NA,NA,1,50,60,40,60,50,60,Processing speed,Memory (RAM),t
48,choice_trial,65,260325,0.0-4.0-1.30,1,"Mozilla/5.0 (Macintosh; Intel Mac OS X 10_15_7) AppleWebKit/537.36 (KHTML, like Gecko) Chrome/134.0.0.0 Safari/537.36",Macintosh,Chrome,om0r7pllll9qdfs,Male,"Singapore, India, Canada",No,427331.59999996424,NA,4.891,NA,B,choice,tc,binary,repulsion,1,washing machines,NA,NA,NA,NA,NA,NA,1,100,90,NA,30,40,NA,Average lifespan,Energy savings,c
48,choice_trial,67,264899,0.0-4.0-1.31,1,"Mozilla/5.0 (Macintosh; Intel Mac OS X 10_15_7) AppleWebKit/537.36 (KHTML, like Gecko) Chrome/134.0.0.0 Safari/537.36",Macintosh,Chrome,om0r7pllll9qdfs,Male,"Singapore, India, Canada",No,427331.59999996424,NA,4.26,NA,B,choice,dct,trinary,repulsion_A,2,washing machines,NA,NA,NA,NA,NA,NA,1,30,40,20,100,90,100,Average lifespan,Energy savings,c
48,choice_trial,69,268476,0.0-4.0-1.32,1,"Mozilla/5.0 (Macintosh; Intel Mac OS X 10_15_7) AppleWebKit/537.36 (KHTML, like Gecko) Chrome/134.0.0.0 Safari/537.36",Macintosh,Chrome,om0r7pllll9qdfs,Male,"Singapore, India, Canada",No,427331.59999996424,NA,3.265,NA,A,choice,tdc,trinary,attraction,1,microwave ovens,NA,NA,NA,NA,NA,NA,1,60,50,60,50,60,40,Warranty,Cooking power,t
48,choice_trial,71,272871,0.0-4.0-1.33,1,"Mozilla/5.0 (Macintosh; Intel Mac OS X 10_15_7) AppleWebKit/537.36 (KHTML, like Gecko) Chrome/134.0.0.0 Safari/537.36",Macintosh,Chrome,om0r7pllll9qdfs,Male,"Singapore, India, Canada",No,427331.59999996424,NA,4.085,NA,B,choice,dct,trinary,attraction,1,laptops,NA,NA,NA,NA,NA,NA,2,60,50,60,50,60,40,Processing speed,Memory (RAM),c
48,choice_trial,73,276877,0.0-4.0-1.34,1,"Mozilla/5.0 (Macintosh; Intel Mac OS X 10_15_7) AppleWebKit/537.36 (KHTML, like Gecko) Chrome/134.0.0.0 Safari/537.36",Macintosh,Chrome,om0r7pllll9qdfs,Male,"Singapore, India, Canada",No,427331.59999996424,NA,3.695,NA,B,choice,ctd,trinary,repulsion_B,2,televisions,NA,NA,NA,NA,NA,NA,2,40,30,40,90,100,80,Screen size,Average lifespan,t
48,choice_trial,75,284526,0.0-4.0-1.35,1,"Mozilla/5.0 (Macintosh; Intel Mac OS X 10_15_7) AppleWebKit/537.36 (KHTML, like Gecko) Chrome/134.0.0.0 Safari/537.36",Macintosh,Chrome,om0r7pllll9qdfs,Male,"Singapore, India, Canada",No,427331.59999996424,NA,7.335,NA,B,choice,ct,binary,attraction,NA,laptops,NA,NA,NA,NA,NA,NA,2,60,50,NA,50,60,NA,Processing speed,Memory (RAM),t
48,choice_trial,77,287723,0.0-4.0-1.36,1,"Mozilla/5.0 (Macintosh; Intel Mac OS X 10_15_7) AppleWebKit/537.36 (KHTML, like Gecko) Chrome/134.0.0.0 Safari/537.36",Macintosh,Chrome,om0r7pllll9qdfs,Male,"Singapore, India, Canada",No,427331.59999996424,NA,2.889,NA,A,choice,ct,binary,repulsion,2,televisions,NA,NA,NA,NA,NA,NA,2,30,40,NA,100,90,NA,Screen size,Average lifespan,c
48,choice_trial,79,292944,0.0-4.0-1.37,1,"Mozilla/5.0 (Macintosh; Intel Mac OS X 10_15_7) AppleWebKit/537.36 (KHTML, like Gecko) Chrome/134.0.0.0 Safari/537.36",Macintosh,Chrome,om0r7pllll9qdfs,Male,"Singapore, India, Canada",No,427331.59999996424,NA,4.906,NA,A,choice,tcd,trinary,repulsion_B,2,microwave ovens,NA,NA,NA,NA,NA,NA,1,40,30,40,90,100,80,Warranty,Cooking power,t
48,choice_trial,81,296512,0.0-4.0-1.38,1,"Mozilla/5.0 (Macintosh; Intel Mac OS X 10_15_7) AppleWebKit/537.36 (KHTML, like Gecko) Chrome/134.0.0.0 Safari/537.36",Macintosh,Chrome,om0r7pllll9qdfs,Male,"Singapore, India, Canada",No,427331.59999996424,NA,3.26,NA,C,choice,wwb,trinary,catch,NA,laptops,55,75,10,35,10,50,1,NA,NA,NA,NA,NA,NA,Processing speed,Memory (RAM),b
48,choice_trial,83,301603,0.0-4.0-1.39,1,"Mozilla/5.0 (Macintosh; Intel Mac OS X 10_15_7) AppleWebKit/537.36 (KHTML, like Gecko) Chrome/134.0.0.0 Safari/537.36",Macintosh,Chrome,om0r7pllll9qdfs,Male,"Singapore, India, Canada",No,427331.59999996424,NA,4.779,NA,B,choice,dtc,trinary,repulsion_B,1,laptops,NA,NA,NA,NA,NA,NA,2,90,100,80,40,30,40,Processing speed,Memory (RAM),t
48,choice_trial,85,307770,0.0-4.0-1.40,1,"Mozilla/5.0 (Macintosh; Intel Mac OS X 10_15_7) AppleWebKit/537.36 (KHTML, like Gecko) Chrome/134.0.0.0 Safari/537.36",Macintosh,Chrome,om0r7pllll9qdfs,Male,"Singapore, India, Canada",No,427331.59999996424,NA,5.859,NA,C,choice,tdc,trinary,repulsion_A,2,microwave ovens,NA,NA,NA,NA,NA,NA,2,30,40,20,100,90,100,Warranty,Cooking power,c
48,choice_trial,87,310726,0.0-4.0-1.41,1,"Mozilla/5.0 (Macintosh; Intel Mac OS X 10_15_7) AppleWebKit/537.36 (KHTML, like Gecko) Chrome/134.0.0.0 Safari/537.36",Macintosh,Chrome,om0r7pllll9qdfs,Male,"Singapore, India, Canada",No,427331.59999996424,NA,2.643,NA,B,choice,tc,binary,repulsion,1,televisions,NA,NA,NA,NA,NA,NA,2,100,90,NA,30,40,NA,Screen size,Average lifespan,c
48,choice_trial,89,313242,0.0-4.0-1.42,1,"Mozilla/5.0 (Macintosh; Intel Mac OS X 10_15_7) AppleWebKit/537.36 (KHTML, like Gecko) Chrome/134.0.0.0 Safari/537.36",Macintosh,Chrome,om0r7pllll9qdfs,Male,"Singapore, India, Canada",No,427331.59999996424,NA,2.204,NA,B,choice,wb,binary,catch,NA,microwave ovens,80,65,45,45,NA,NA,1,NA,NA,NA,NA,NA,NA,Warranty,Cooking power,b
48,choice_trial,91,316699,0.0-4.0-1.43,1,"Mozilla/5.0 (Macintosh; Intel Mac OS X 10_15_7) AppleWebKit/537.36 (KHTML, like Gecko) Chrome/134.0.0.0 Safari/537.36",Macintosh,Chrome,om0r7pllll9qdfs,Male,"Singapore, India, Canada",No,427331.59999996424,NA,3.146,NA,B,choice,wb,binary,catch,NA,washing machines,75,95,25,10,NA,NA,1,NA,NA,NA,NA,NA,NA,Average lifespan,Energy savings,b
49,choice_trial,5,46845,0.0-4.0-1.0,1,"Mozilla/5.0 (Macintosh; Intel Mac OS X 10_15_7) AppleWebKit/537.36 (KHTML, like Gecko) Chrome/135.0.0.0 Safari/537.36",Macintosh,Chrome,jo9yqd4wghosunj,Male,NA,I'm not sure,474680.30000019073,NA,16.804,NA,C,choice,dct,trinary,repulsion_B,2,televisions,NA,NA,NA,NA,NA,NA,1,40,30,40,90,100,80,Screen size,Average lifespan,t
49,choice_trial,7,54674,0.0-4.0-1.1,1,"Mozilla/5.0 (Macintosh; Intel Mac OS X 10_15_7) AppleWebKit/537.36 (KHTML, like Gecko) Chrome/135.0.0.0 Safari/537.36",Macintosh,Chrome,jo9yqd4wghosunj,Male,NA,I'm not sure,474680.30000019073,NA,7.522,NA,C,choice,wwb,trinary,catch,NA,washing machines,60,95,30,25,25,5,1,NA,NA,NA,NA,NA,NA,Average lifespan,Energy savings,b
49,choice_trial,9,58740,0.0-4.0-1.2,1,"Mozilla/5.0 (Macintosh; Intel Mac OS X 10_15_7) AppleWebKit/537.36 (KHTML, like Gecko) Chrome/135.0.0.0 Safari/537.36",Macintosh,Chrome,jo9yqd4wghosunj,Male,NA,I'm not sure,474680.30000019073,NA,3.76,NA,A,choice,bw,binary,catch,NA,washing machines,95,95,20,40,NA,NA,1,NA,NA,NA,NA,NA,NA,Average lifespan,Energy savings,b
49,choice_trial,11,65786,0.0-4.0-1.3,1,"Mozilla/5.0 (Macintosh; Intel Mac OS X 10_15_7) AppleWebKit/537.36 (KHTML, like Gecko) Chrome/135.0.0.0 Safari/537.36",Macintosh,Chrome,jo9yqd4wghosunj,Male,NA,I'm not sure,474680.30000019073,NA,6.741,NA,A,choice,ct,binary,repulsion,2,televisions,NA,NA,NA,NA,NA,NA,2,30,40,NA,100,90,NA,Screen size,Average lifespan,c
49,choice_trial,13,75317,0.0-4.0-1.4,1,"Mozilla/5.0 (Macintosh; Intel Mac OS X 10_15_7) AppleWebKit/537.36 (KHTML, like Gecko) Chrome/135.0.0.0 Safari/537.36",Macintosh,Chrome,jo9yqd4wghosunj,Male,NA,I'm not sure,474680.30000019073,NA,9.225,NA,A,choice,tcd,trinary,repulsion_A,1,laptops,NA,NA,NA,NA,NA,NA,2,100,90,100,30,40,20,Processing speed,Memory (RAM),t
49,choice_trial,15,85344,0.0-4.0-1.5,1,"Mozilla/5.0 (Macintosh; Intel Mac OS X 10_15_7) AppleWebKit/537.36 (KHTML, like Gecko) Chrome/135.0.0.0 Safari/537.36",Macintosh,Chrome,jo9yqd4wghosunj,Male,NA,I'm not sure,474680.30000019073,NA,9.722,NA,A,choice,tcd,trinary,attraction,1,televisions,NA,NA,NA,NA,NA,NA,2,60,50,60,50,60,40,Screen size,Average lifespan,t
49,choice_trial,17,97426,0.0-4.0-1.6,1,"Mozilla/5.0 (Macintosh; Intel Mac OS X 10_15_7) AppleWebKit/537.36 (KHTML, like Gecko) Chrome/135.0.0.0 Safari/537.36",Macintosh,Chrome,jo9yqd4wghosunj,Male,NA,I'm not sure,474680.30000019073,NA,11.777,NA,C,choice,tdc,trinary,repulsion_A,2,laptops,NA,NA,NA,NA,NA,NA,1,30,40,20,100,90,100,Processing speed,Memory (RAM),c
49,choice_trial,19,110385,0.0-4.0-1.7,1,"Mozilla/5.0 (Macintosh; Intel Mac OS X 10_15_7) AppleWebKit/537.36 (KHTML, like Gecko) Chrome/135.0.0.0 Safari/537.36",Macintosh,Chrome,jo9yqd4wghosunj,Male,NA,I'm not sure,474680.30000019073,NA,12.653,NA,C,choice,wwb,trinary,catch,NA,laptops,50,60,20,20,35,35,1,NA,NA,NA,NA,NA,NA,Processing speed,Memory (RAM),b
49,choice_trial,21,116409,0.0-4.0-1.8,1,"Mozilla/5.0 (Macintosh; Intel Mac OS X 10_15_7) AppleWebKit/537.36 (KHTML, like Gecko) Chrome/135.0.0.0 Safari/537.36",Macintosh,Chrome,jo9yqd4wghosunj,Male,NA,I'm not sure,474680.30000019073,NA,5.719,NA,A,choice,tc,binary,attraction,NA,televisions,NA,NA,NA,NA,NA,NA,1,60,50,NA,50,60,NA,Screen size,Average lifespan,t
49,choice_trial,23,124031,0.0-4.0-1.9,1,"Mozilla/5.0 (Macintosh; Intel Mac OS X 10_15_7) AppleWebKit/537.36 (KHTML, like Gecko) Chrome/135.0.0.0 Safari/537.36",Macintosh,Chrome,jo9yqd4wghosunj,Male,NA,I'm not sure,474680.30000019073,NA,7.316,NA,A,choice,tdc,trinary,repulsion_A,2,televisions,NA,NA,NA,NA,NA,NA,2,30,40,20,100,90,100,Screen size,Average lifespan,t
49,choice_trial,25,127395,0.0-4.0-1.10,1,"Mozilla/5.0 (Macintosh; Intel Mac OS X 10_15_7) AppleWebKit/537.36 (KHTML, like Gecko) Chrome/135.0.0.0 Safari/537.36",Macintosh,Chrome,jo9yqd4wghosunj,Male,NA,I'm not sure,474680.30000019073,NA,3.057,NA,A,choice,bw,binary,catch,NA,laptops,85,65,45,25,NA,NA,1,NA,NA,NA,NA,NA,NA,Processing speed,Memory (RAM),b
49,choice_trial,27,130222,0.0-4.0-1.11,1,"Mozilla/5.0 (Macintosh; Intel Mac OS X 10_15_7) AppleWebKit/537.36 (KHTML, like Gecko) Chrome/135.0.0.0 Safari/537.36",Macintosh,Chrome,jo9yqd4wghosunj,Male,NA,I'm not sure,474680.30000019073,NA,2.521,NA,A,choice,bw,binary,catch,NA,televisions,50,90,25,10,NA,NA,1,NA,NA,NA,NA,NA,NA,Screen size,Average lifespan,b
49,choice_trial,29,137692,0.0-4.0-1.12,1,"Mozilla/5.0 (Macintosh; Intel Mac OS X 10_15_7) AppleWebKit/537.36 (KHTML, like Gecko) Chrome/135.0.0.0 Safari/537.36",Macintosh,Chrome,jo9yqd4wghosunj,Male,NA,I'm not sure,474680.30000019073,NA,7.164,NA,C,choice,dtc,trinary,repulsion_A,1,televisions,NA,NA,NA,NA,NA,NA,2,100,90,100,30,40,20,Screen size,Average lifespan,c
49,choice_trial,31,143110,0.0-4.0-1.13,1,"Mozilla/5.0 (Macintosh; Intel Mac OS X 10_15_7) AppleWebKit/537.36 (KHTML, like Gecko) Chrome/135.0.0.0 Safari/537.36",Macintosh,Chrome,jo9yqd4wghosunj,Male,NA,I'm not sure,474680.30000019073,NA,5.111,NA,C,choice,cdt,trinary,attraction,2,microwave ovens,NA,NA,NA,NA,NA,NA,2,50,60,40,60,50,60,Warranty,Cooking power,t
49,choice_trial,33,150412,0.0-4.0-1.14,1,"Mozilla/5.0 (Macintosh; Intel Mac OS X 10_15_7) AppleWebKit/537.36 (KHTML, like Gecko) Chrome/135.0.0.0 Safari/537.36",Macintosh,Chrome,jo9yqd4wghosunj,Male,NA,I'm not sure,474680.30000019073,NA,6.995,NA,B,choice,ctd,trinary,attraction,1,laptops,NA,NA,NA,NA,NA,NA,1,60,50,60,50,60,40,Processing speed,Memory (RAM),t
49,choice_trial,35,156644,0.0-4.0-1.15,1,"Mozilla/5.0 (Macintosh; Intel Mac OS X 10_15_7) AppleWebKit/537.36 (KHTML, like Gecko) Chrome/135.0.0.0 Safari/537.36",Macintosh,Chrome,jo9yqd4wghosunj,Male,NA,I'm not sure,474680.30000019073,NA,5.926,NA,C,choice,dtc,trinary,attraction,1,washing machines,NA,NA,NA,NA,NA,NA,2,60,50,60,50,60,40,Average lifespan,Energy savings,c
49,choice_trial,37,162548,0.0-4.0-1.16,1,"Mozilla/5.0 (Macintosh; Intel Mac OS X 10_15_7) AppleWebKit/537.36 (KHTML, like Gecko) Chrome/135.0.0.0 Safari/537.36",Macintosh,Chrome,jo9yqd4wghosunj,Male,NA,I'm not sure,474680.30000019073,NA,5.596,NA,A,choice,ct,binary,repulsion,2,washing machines,NA,NA,NA,NA,NA,NA,1,30,40,NA,100,90,NA,Average lifespan,Energy savings,c
49,choice_trial,39,170298,0.0-4.0-1.17,1,"Mozilla/5.0 (Macintosh; Intel Mac OS X 10_15_7) AppleWebKit/537.36 (KHTML, like Gecko) Chrome/135.0.0.0 Safari/537.36",Macintosh,Chrome,jo9yqd4wghosunj,Male,NA,I'm not sure,474680.30000019073,NA,7.443,NA,B,choice,ctd,trinary,repulsion_B,1,microwave ovens,NA,NA,NA,NA,NA,NA,2,90,100,80,40,30,40,Warranty,Cooking power,t
49,choice_trial,41,179925,0.0-4.0-1.18,1,"Mozilla/5.0 (Macintosh; Intel Mac OS X 10_15_7) AppleWebKit/537.36 (KHTML, like Gecko) Chrome/135.0.0.0 Safari/537.36",Macintosh,Chrome,jo9yqd4wghosunj,Male,NA,I'm not sure,474680.30000019073,NA,9.32,NA,A,choice,tc,binary,repulsion,2,microwave ovens,NA,NA,NA,NA,NA,NA,2,30,40,NA,100,90,NA,Warranty,Cooking power,t
49,choice_trial,43,185534,0.0-4.0-1.19,1,"Mozilla/5.0 (Macintosh; Intel Mac OS X 10_15_7) AppleWebKit/537.36 (KHTML, like Gecko) Chrome/135.0.0.0 Safari/537.36",Macintosh,Chrome,jo9yqd4wghosunj,Male,NA,I'm not sure,474680.30000019073,NA,5.301,NA,C,choice,tdc,trinary,repulsion_A,1,washing machines,NA,NA,NA,NA,NA,NA,1,100,90,100,30,40,20,Average lifespan,Energy savings,c
49,choice_trial,45,190814,0.0-4.0-1.20,1,"Mozilla/5.0 (Macintosh; Intel Mac OS X 10_15_7) AppleWebKit/537.36 (KHTML, like Gecko) Chrome/135.0.0.0 Safari/537.36",Macintosh,Chrome,jo9yqd4wghosunj,Male,NA,I'm not sure,474680.30000019073,NA,4.972,NA,B,choice,dct,trinary,repulsion_A,2,washing machines,NA,NA,NA,NA,NA,NA,2,30,40,20,100,90,100,Average lifespan,Energy savings,c
49,choice_trial,47,195761,0.0-4.0-1.21,1,"Mozilla/5.0 (Macintosh; Intel Mac OS X 10_15_7) AppleWebKit/537.36 (KHTML, like Gecko) Chrome/135.0.0.0 Safari/537.36",Macintosh,Chrome,jo9yqd4wghosunj,Male,NA,I'm not sure,474680.30000019073,NA,4.639,NA,A,choice,tc,binary,attraction,NA,laptops,NA,NA,NA,NA,NA,NA,2,60,50,NA,50,60,NA,Processing speed,Memory (RAM),t
49,choice_trial,49,199890,0.0-4.0-1.22,1,"Mozilla/5.0 (Macintosh; Intel Mac OS X 10_15_7) AppleWebKit/537.36 (KHTML, like Gecko) Chrome/135.0.0.0 Safari/537.36",Macintosh,Chrome,jo9yqd4wghosunj,Male,NA,I'm not sure,474680.30000019073,NA,3.822,NA,B,choice,tcd,trinary,repulsion_B,2,microwave ovens,NA,NA,NA,NA,NA,NA,2,40,30,40,90,100,80,Warranty,Cooking power,c
49,choice_trial,51,204836,0.0-4.0-1.23,1,"Mozilla/5.0 (Macintosh; Intel Mac OS X 10_15_7) AppleWebKit/537.36 (KHTML, like Gecko) Chrome/135.0.0.0 Safari/537.36",Macintosh,Chrome,jo9yqd4wghosunj,Male,NA,I'm not sure,474680.30000019073,NA,4.639,NA,B,choice,ct,binary,attraction,NA,washing machines,NA,NA,NA,NA,NA,NA,1,60,50,NA,50,60,NA,Average lifespan,Energy savings,t
49,choice_trial,53,209989,0.0-4.0-1.24,1,"Mozilla/5.0 (Macintosh; Intel Mac OS X 10_15_7) AppleWebKit/537.36 (KHTML, like Gecko) Chrome/135.0.0.0 Safari/537.36",Macintosh,Chrome,jo9yqd4wghosunj,Male,NA,I'm not sure,474680.30000019073,NA,4.844,NA,B,choice,tc,binary,repulsion,1,televisions,NA,NA,NA,NA,NA,NA,1,100,90,NA,30,40,NA,Screen size,Average lifespan,c
49,choice_trial,55,215581,0.0-4.0-1.25,1,"Mozilla/5.0 (Macintosh; Intel Mac OS X 10_15_7) AppleWebKit/537.36 (KHTML, like Gecko) Chrome/135.0.0.0 Safari/537.36",Macintosh,Chrome,jo9yqd4wghosunj,Male,NA,I'm not sure,474680.30000019073,NA,5.284,NA,B,choice,ctd,trinary,repulsion_B,2,laptops,NA,NA,NA,NA,NA,NA,1,40,30,40,90,100,80,Processing speed,Memory (RAM),t
49,choice_trial,57,227528,0.0-4.0-1.26,1,"Mozilla/5.0 (Macintosh; Intel Mac OS X 10_15_7) AppleWebKit/537.36 (KHTML, like Gecko) Chrome/135.0.0.0 Safari/537.36",Macintosh,Chrome,jo9yqd4wghosunj,Male,NA,I'm not sure,474680.30000019073,NA,11.639,NA,B,choice,dtc,trinary,attraction,2,televisions,NA,NA,NA,NA,NA,NA,2,50,60,40,60,50,60,Screen size,Average lifespan,t
49,choice_trial,59,231611,0.0-4.0-1.27,1,"Mozilla/5.0 (Macintosh; Intel Mac OS X 10_15_7) AppleWebKit/537.36 (KHTML, like Gecko) Chrome/135.0.0.0 Safari/537.36",Macintosh,Chrome,jo9yqd4wghosunj,Male,NA,I'm not sure,474680.30000019073,NA,3.774,NA,C,choice,dtc,trinary,attraction,2,laptops,NA,NA,NA,NA,NA,NA,1,50,60,40,60,50,60,Processing speed,Memory (RAM),c
49,choice_trial,61,235054,0.0-4.0-1.28,1,"Mozilla/5.0 (Macintosh; Intel Mac OS X 10_15_7) AppleWebKit/537.36 (KHTML, like Gecko) Chrome/135.0.0.0 Safari/537.36",Macintosh,Chrome,jo9yqd4wghosunj,Male,NA,I'm not sure,474680.30000019073,NA,3.134,NA,B,choice,wb,binary,catch,NA,microwave ovens,85,70,5,30,NA,NA,2,NA,NA,NA,NA,NA,NA,Warranty,Cooking power,b
49,choice_trial,63,246257,0.0-4.0-1.29,1,"Mozilla/5.0 (Macintosh; Intel Mac OS X 10_15_7) AppleWebKit/537.36 (KHTML, like Gecko) Chrome/135.0.0.0 Safari/537.36",Macintosh,Chrome,jo9yqd4wghosunj,Male,NA,I'm not sure,474680.30000019073,NA,10.894,NA,A,choice,tc,binary,repulsion,1,laptops,NA,NA,NA,NA,NA,NA,2,100,90,NA,30,40,NA,Processing speed,Memory (RAM),t
49,choice_trial,65,253886,0.0-4.0-1.30,1,"Mozilla/5.0 (Macintosh; Intel Mac OS X 10_15_7) AppleWebKit/537.36 (KHTML, like Gecko) Chrome/135.0.0.0 Safari/537.36",Macintosh,Chrome,jo9yqd4wghosunj,Male,NA,I'm not sure,474680.30000019073,NA,7.321,NA,C,choice,cdt,trinary,repulsion_B,1,televisions,NA,NA,NA,NA,NA,NA,2,90,100,80,40,30,40,Screen size,Average lifespan,t
49,choice_trial,67,257921,0.0-4.0-1.31,1,"Mozilla/5.0 (Macintosh; Intel Mac OS X 10_15_7) AppleWebKit/537.36 (KHTML, like Gecko) Chrome/135.0.0.0 Safari/537.36",Macintosh,Chrome,jo9yqd4wghosunj,Male,NA,I'm not sure,474680.30000019073,NA,3.727,NA,C,choice,dct,trinary,attraction,2,washing machines,NA,NA,NA,NA,NA,NA,2,50,60,40,60,50,60,Average lifespan,Energy savings,t
49,choice_trial,69,265382,0.0-4.0-1.32,1,"Mozilla/5.0 (Macintosh; Intel Mac OS X 10_15_7) AppleWebKit/537.36 (KHTML, like Gecko) Chrome/135.0.0.0 Safari/537.36",Macintosh,Chrome,jo9yqd4wghosunj,Male,NA,I'm not sure,474680.30000019073,NA,7.155,NA,A,choice,bww,trinary,catch,NA,televisions,65,70,30,10,25,20,1,NA,NA,NA,NA,NA,NA,Screen size,Average lifespan,b
49,choice_trial,71,270599,0.0-4.0-1.33,1,"Mozilla/5.0 (Macintosh; Intel Mac OS X 10_15_7) AppleWebKit/537.36 (KHTML, like Gecko) Chrome/135.0.0.0 Safari/537.36",Macintosh,Chrome,jo9yqd4wghosunj,Male,NA,I'm not sure,474680.30000019073,NA,4.909,NA,C,choice,dct,trinary,repulsion_A,2,microwave ovens,NA,NA,NA,NA,NA,NA,1,30,40,20,100,90,100,Warranty,Cooking power,t
49,choice_trial,73,274953,0.0-4.0-1.34,1,"Mozilla/5.0 (Macintosh; Intel Mac OS X 10_15_7) AppleWebKit/537.36 (KHTML, like Gecko) Chrome/135.0.0.0 Safari/537.36",Macintosh,Chrome,jo9yqd4wghosunj,Male,NA,I'm not sure,474680.30000019073,NA,4.043,NA,C,choice,wwb,trinary,catch,NA,microwave ovens,80,60,50,45,25,35,2,NA,NA,NA,NA,NA,NA,Warranty,Cooking power,b
49,choice_trial,75,282902,0.0-4.0-1.35,1,"Mozilla/5.0 (Macintosh; Intel Mac OS X 10_15_7) AppleWebKit/537.36 (KHTML, like Gecko) Chrome/135.0.0.0 Safari/537.36",Macintosh,Chrome,jo9yqd4wghosunj,Male,NA,I'm not sure,474680.30000019073,NA,7.639,NA,B,choice,tc,binary,repulsion,2,laptops,NA,NA,NA,NA,NA,NA,2,30,40,NA,100,90,NA,Processing speed,Memory (RAM),c
49,choice_trial,77,294441,0.0-4.0-1.36,1,"Mozilla/5.0 (Macintosh; Intel Mac OS X 10_15_7) AppleWebKit/537.36 (KHTML, like Gecko) Chrome/135.0.0.0 Safari/537.36",Macintosh,Chrome,jo9yqd4wghosunj,Male,NA,I'm not sure,474680.30000019073,NA,11.228,NA,B,choice,tc,binary,repulsion,1,microwave ovens,NA,NA,NA,NA,NA,NA,2,100,90,NA,30,40,NA,Warranty,Cooking power,c
49,choice_trial,79,298612,0.0-4.0-1.37,1,"Mozilla/5.0 (Macintosh; Intel Mac OS X 10_15_7) AppleWebKit/537.36 (KHTML, like Gecko) Chrome/135.0.0.0 Safari/537.36",Macintosh,Chrome,jo9yqd4wghosunj,Male,NA,I'm not sure,474680.30000019073,NA,3.861,NA,C,choice,dtc,trinary,repulsion_A,1,microwave ovens,NA,NA,NA,NA,NA,NA,2,100,90,100,30,40,20,Warranty,Cooking power,c
49,choice_trial,81,302966,0.0-4.0-1.38,1,"Mozilla/5.0 (Macintosh; Intel Mac OS X 10_15_7) AppleWebKit/537.36 (KHTML, like Gecko) Chrome/135.0.0.0 Safari/537.36",Macintosh,Chrome,jo9yqd4wghosunj,Male,NA,I'm not sure,474680.30000019073,NA,4.044,NA,C,choice,ctd,trinary,repulsion_B,1,washing machines,NA,NA,NA,NA,NA,NA,1,90,100,80,40,30,40,Average lifespan,Energy savings,d
49,choice_trial,83,306753,0.0-4.0-1.39,1,"Mozilla/5.0 (Macintosh; Intel Mac OS X 10_15_7) AppleWebKit/537.36 (KHTML, like Gecko) Chrome/135.0.0.0 Safari/537.36",Macintosh,Chrome,jo9yqd4wghosunj,Male,NA,I'm not sure,474680.30000019073,NA,3.477,NA,A,choice,ct,binary,attraction,NA,microwave ovens,NA,NA,NA,NA,NA,NA,1,60,50,NA,50,60,NA,Warranty,Cooking power,c
49,choice_trial,85,310355,0.0-4.0-1.40,1,"Mozilla/5.0 (Macintosh; Intel Mac OS X 10_15_7) AppleWebKit/537.36 (KHTML, like Gecko) Chrome/135.0.0.0 Safari/537.36",Macintosh,Chrome,jo9yqd4wghosunj,Male,NA,I'm not sure,474680.30000019073,NA,3.292,NA,A,choice,cdt,trinary,attraction,1,microwave ovens,NA,NA,NA,NA,NA,NA,2,60,50,60,50,60,40,Warranty,Cooking power,c
49,choice_trial,87,315556,0.0-4.0-1.41,1,"Mozilla/5.0 (Macintosh; Intel Mac OS X 10_15_7) AppleWebKit/537.36 (KHTML, like Gecko) Chrome/135.0.0.0 Safari/537.36",Macintosh,Chrome,jo9yqd4wghosunj,Male,NA,I'm not sure,474680.30000019073,NA,4.892,NA,A,choice,dtc,trinary,repulsion_B,2,washing machines,NA,NA,NA,NA,NA,NA,2,40,30,40,90,100,80,Average lifespan,Energy savings,d
49,choice_trial,89,321963,0.0-4.0-1.42,1,"Mozilla/5.0 (Macintosh; Intel Mac OS X 10_15_7) AppleWebKit/537.36 (KHTML, like Gecko) Chrome/135.0.0.0 Safari/537.36",Macintosh,Chrome,jo9yqd4wghosunj,Male,NA,I'm not sure,474680.30000019073,NA,6.098,NA,A,choice,ct,binary,repulsion,1,washing machines,NA,NA,NA,NA,NA,NA,1,100,90,NA,30,40,NA,Average lifespan,Energy savings,c
49,choice_trial,91,326238,0.0-4.0-1.43,1,"Mozilla/5.0 (Macintosh; Intel Mac OS X 10_15_7) AppleWebKit/537.36 (KHTML, like Gecko) Chrome/135.0.0.0 Safari/537.36",Macintosh,Chrome,jo9yqd4wghosunj,Male,NA,I'm not sure,474680.30000019073,NA,3.965,NA,B,choice,tcd,trinary,repulsion_B,1,laptops,NA,NA,NA,NA,NA,NA,1,90,100,80,40,30,40,Processing speed,Memory (RAM),c
50,choice_trial,5,80436,0.0-4.0-1.0,1,"Mozilla/5.0 (Windows NT 10.0; Win64; x64) AppleWebKit/537.36 (KHTML, like Gecko) Chrome/135.0.0.0 Safari/537.36 Edg/135.0.0.0",WebKit,Edge,wn3qg9l5rp2c26l,Male,NA,No,704081.5,NA,19.434,NA,A,choice,tdc,trinary,attraction,2,televisions,NA,NA,NA,NA,NA,NA,1,50,60,40,60,50,60,Screen size,Average lifespan,t
50,choice_trial,7,90787,0.0-4.0-1.1,1,"Mozilla/5.0 (Windows NT 10.0; Win64; x64) AppleWebKit/537.36 (KHTML, like Gecko) Chrome/135.0.0.0 Safari/537.36 Edg/135.0.0.0",WebKit,Edge,wn3qg9l5rp2c26l,Male,NA,No,704081.5,NA,10.047,NA,B,choice,tc,binary,repulsion,1,microwave ovens,NA,NA,NA,NA,NA,NA,1,100,90,NA,30,40,NA,Warranty,Cooking power,c
50,choice_trial,9,103670,0.0-4.0-1.2,1,"Mozilla/5.0 (Windows NT 10.0; Win64; x64) AppleWebKit/537.36 (KHTML, like Gecko) Chrome/135.0.0.0 Safari/537.36 Edg/135.0.0.0",WebKit,Edge,wn3qg9l5rp2c26l,Male,NA,No,704081.5,NA,12.58,NA,B,choice,ctd,trinary,repulsion_B,2,laptops,NA,NA,NA,NA,NA,NA,2,40,30,40,90,100,80,Processing speed,Memory (RAM),t
50,choice_trial,11,112064,0.0-4.0-1.3,1,"Mozilla/5.0 (Windows NT 10.0; Win64; x64) AppleWebKit/537.36 (KHTML, like Gecko) Chrome/135.0.0.0 Safari/537.36 Edg/135.0.0.0",WebKit,Edge,wn3qg9l5rp2c26l,Male,NA,No,704081.5,NA,8.089,NA,B,choice,wb,binary,catch,NA,televisions,65,75,10,5,NA,NA,2,NA,NA,NA,NA,NA,NA,Screen size,Average lifespan,b
50,choice_trial,13,128510,0.0-4.0-1.4,1,"Mozilla/5.0 (Windows NT 10.0; Win64; x64) AppleWebKit/537.36 (KHTML, like Gecko) Chrome/135.0.0.0 Safari/537.36 Edg/135.0.0.0",WebKit,Edge,wn3qg9l5rp2c26l,Male,NA,No,704081.5,NA,16.141,NA,A,choice,tcd,trinary,repulsion_B,2,washing machines,NA,NA,NA,NA,NA,NA,2,40,30,40,90,100,80,Average lifespan,Energy savings,t
50,choice_trial,15,140572,0.0-4.0-1.5,1,"Mozilla/5.0 (Windows NT 10.0; Win64; x64) AppleWebKit/537.36 (KHTML, like Gecko) Chrome/135.0.0.0 Safari/537.36 Edg/135.0.0.0",WebKit,Edge,wn3qg9l5rp2c26l,Male,NA,No,704081.5,NA,11.756,NA,A,choice,tdc,trinary,attraction,2,washing machines,NA,NA,NA,NA,NA,NA,1,50,60,40,60,50,60,Average lifespan,Energy savings,t
50,choice_trial,17,146038,0.0-4.0-1.6,1,"Mozilla/5.0 (Windows NT 10.0; Win64; x64) AppleWebKit/537.36 (KHTML, like Gecko) Chrome/135.0.0.0 Safari/537.36 Edg/135.0.0.0",WebKit,Edge,wn3qg9l5rp2c26l,Male,NA,No,704081.5,NA,5.162,NA,B,choice,wb,binary,catch,NA,washing machines,50,95,45,40,NA,NA,2,NA,NA,NA,NA,NA,NA,Average lifespan,Energy savings,b
50,choice_trial,19,160795,0.0-4.0-1.7,1,"Mozilla/5.0 (Windows NT 10.0; Win64; x64) AppleWebKit/537.36 (KHTML, like Gecko) Chrome/135.0.0.0 Safari/537.36 Edg/135.0.0.0",WebKit,Edge,wn3qg9l5rp2c26l,Male,NA,No,704081.5,NA,14.452,NA,C,choice,dct,trinary,repulsion_B,2,televisions,NA,NA,NA,NA,NA,NA,1,40,30,40,90,100,80,Screen size,Average lifespan,t
50,choice_trial,21,182773,0.0-4.0-1.8,1,"Mozilla/5.0 (Windows NT 10.0; Win64; x64) AppleWebKit/537.36 (KHTML, like Gecko) Chrome/135.0.0.0 Safari/537.36 Edg/135.0.0.0",WebKit,Edge,wn3qg9l5rp2c26l,Male,NA,No,704081.5,NA,21.673,NA,B,choice,wbw,trinary,catch,NA,washing machines,85,65,25,25,10,20,2,NA,NA,NA,NA,NA,NA,Average lifespan,Energy savings,b
50,choice_trial,23,194407,0.0-4.0-1.9,1,"Mozilla/5.0 (Windows NT 10.0; Win64; x64) AppleWebKit/537.36 (KHTML, like Gecko) Chrome/135.0.0.0 Safari/537.36 Edg/135.0.0.0",WebKit,Edge,wn3qg9l5rp2c26l,Male,NA,No,704081.5,NA,11.328,NA,B,choice,wb,binary,catch,NA,laptops,80,60,45,10,NA,NA,1,NA,NA,NA,NA,NA,NA,Processing speed,Memory (RAM),b
50,choice_trial,25,204692,0.0-4.0-1.10,1,"Mozilla/5.0 (Windows NT 10.0; Win64; x64) AppleWebKit/537.36 (KHTML, like Gecko) Chrome/135.0.0.0 Safari/537.36 Edg/135.0.0.0",WebKit,Edge,wn3qg9l5rp2c26l,Male,NA,No,704081.5,NA,9.98,NA,B,choice,ct,binary,repulsion,2,microwave ovens,NA,NA,NA,NA,NA,NA,2,30,40,NA,100,90,NA,Warranty,Cooking power,t
50,choice_trial,27,213383,0.0-4.0-1.11,1,"Mozilla/5.0 (Windows NT 10.0; Win64; x64) AppleWebKit/537.36 (KHTML, like Gecko) Chrome/135.0.0.0 Safari/537.36 Edg/135.0.0.0",WebKit,Edge,wn3qg9l5rp2c26l,Male,NA,No,704081.5,NA,8.387,NA,B,choice,tc,binary,repulsion,1,laptops,NA,NA,NA,NA,NA,NA,1,100,90,NA,30,40,NA,Processing speed,Memory (RAM),c
50,choice_trial,29,229234,0.0-4.0-1.12,1,"Mozilla/5.0 (Windows NT 10.0; Win64; x64) AppleWebKit/537.36 (KHTML, like Gecko) Chrome/135.0.0.0 Safari/537.36 Edg/135.0.0.0",WebKit,Edge,wn3qg9l5rp2c26l,Male,NA,No,704081.5,NA,15.546,NA,B,choice,tcd,trinary,repulsion_A,1,washing machines,NA,NA,NA,NA,NA,NA,1,100,90,100,30,40,20,Average lifespan,Energy savings,c
50,choice_trial,31,237340,0.0-4.0-1.13,1,"Mozilla/5.0 (Windows NT 10.0; Win64; x64) AppleWebKit/537.36 (KHTML, like Gecko) Chrome/135.0.0.0 Safari/537.36 Edg/135.0.0.0",WebKit,Edge,wn3qg9l5rp2c26l,Male,NA,No,704081.5,NA,7.8,NA,A,choice,bww,trinary,catch,NA,microwave ovens,50,85,30,45,30,15,2,NA,NA,NA,NA,NA,NA,Warranty,Cooking power,b
50,choice_trial,33,249773,0.0-4.0-1.14,1,"Mozilla/5.0 (Windows NT 10.0; Win64; x64) AppleWebKit/537.36 (KHTML, like Gecko) Chrome/135.0.0.0 Safari/537.36 Edg/135.0.0.0",WebKit,Edge,wn3qg9l5rp2c26l,Male,NA,No,704081.5,NA,12.129,NA,A,choice,tdc,trinary,attraction,2,microwave ovens,NA,NA,NA,NA,NA,NA,2,50,60,40,60,50,60,Warranty,Cooking power,t
50,choice_trial,35,271796,0.0-4.0-1.15,1,"Mozilla/5.0 (Windows NT 10.0; Win64; x64) AppleWebKit/537.36 (KHTML, like Gecko) Chrome/135.0.0.0 Safari/537.36 Edg/135.0.0.0",WebKit,Edge,wn3qg9l5rp2c26l,Male,NA,No,704081.5,NA,21.718,NA,B,choice,ct,binary,repulsion,2,washing machines,NA,NA,NA,NA,NA,NA,2,30,40,NA,100,90,NA,Average lifespan,Energy savings,t
50,choice_trial,37,289765,0.0-4.0-1.16,1,"Mozilla/5.0 (Windows NT 10.0; Win64; x64) AppleWebKit/537.36 (KHTML, like Gecko) Chrome/135.0.0.0 Safari/537.36 Edg/135.0.0.0",WebKit,Edge,wn3qg9l5rp2c26l,Male,NA,No,704081.5,NA,17.665,NA,C,choice,dct,trinary,repulsion_B,1,washing machines,NA,NA,NA,NA,NA,NA,2,90,100,80,40,30,40,Average lifespan,Energy savings,t
50,choice_trial,39,306004,0.0-4.0-1.17,1,"Mozilla/5.0 (Windows NT 10.0; Win64; x64) AppleWebKit/537.36 (KHTML, like Gecko) Chrome/135.0.0.0 Safari/537.36 Edg/135.0.0.0",WebKit,Edge,wn3qg9l5rp2c26l,Male,NA,No,704081.5,NA,15.933,NA,A,choice,ctd,trinary,repulsion_A,2,televisions,NA,NA,NA,NA,NA,NA,1,30,40,20,100,90,100,Screen size,Average lifespan,c
50,choice_trial,41,318377,0.0-4.0-1.18,1,"Mozilla/5.0 (Windows NT 10.0; Win64; x64) AppleWebKit/537.36 (KHTML, like Gecko) Chrome/135.0.0.0 Safari/537.36 Edg/135.0.0.0",WebKit,Edge,wn3qg9l5rp2c26l,Male,NA,No,704081.5,NA,12.069,NA,B,choice,dct,trinary,repulsion_A,1,microwave ovens,NA,NA,NA,NA,NA,NA,1,100,90,100,30,40,20,Warranty,Cooking power,c
50,choice_trial,43,324898,0.0-4.0-1.19,1,"Mozilla/5.0 (Windows NT 10.0; Win64; x64) AppleWebKit/537.36 (KHTML, like Gecko) Chrome/135.0.0.0 Safari/537.36 Edg/135.0.0.0",WebKit,Edge,wn3qg9l5rp2c26l,Male,NA,No,704081.5,NA,6.215,NA,A,choice,ct,binary,attraction,NA,microwave ovens,NA,NA,NA,NA,NA,NA,2,60,50,NA,50,60,NA,Warranty,Cooking power,c
50,choice_trial,45,343032,0.0-4.0-1.20,1,"Mozilla/5.0 (Windows NT 10.0; Win64; x64) AppleWebKit/537.36 (KHTML, like Gecko) Chrome/135.0.0.0 Safari/537.36 Edg/135.0.0.0",WebKit,Edge,wn3qg9l5rp2c26l,Male,NA,No,704081.5,NA,17.828,NA,B,choice,dtc,trinary,repulsion_B,1,televisions,NA,NA,NA,NA,NA,NA,1,90,100,80,40,30,40,Screen size,Average lifespan,t
50,choice_trial,47,353353,0.0-4.0-1.21,1,"Mozilla/5.0 (Windows NT 10.0; Win64; x64) AppleWebKit/537.36 (KHTML, like Gecko) Chrome/135.0.0.0 Safari/537.36 Edg/135.0.0.0",WebKit,Edge,wn3qg9l5rp2c26l,Male,NA,No,704081.5,NA,10.015,NA,B,choice,tc,binary,repulsion,2,laptops,NA,NA,NA,NA,NA,NA,1,30,40,NA,100,90,NA,Processing speed,Memory (RAM),c
50,choice_trial,49,363475,0.0-4.0-1.22,1,"Mozilla/5.0 (Windows NT 10.0; Win64; x64) AppleWebKit/537.36 (KHTML, like Gecko) Chrome/135.0.0.0 Safari/537.36 Edg/135.0.0.0",WebKit,Edge,wn3qg9l5rp2c26l,Male,NA,No,704081.5,NA,9.817,NA,A,choice,bww,trinary,catch,NA,laptops,55,55,10,5,35,10,1,NA,NA,NA,NA,NA,NA,Processing speed,Memory (RAM),b
50,choice_trial,51,373685,0.0-4.0-1.23,1,"Mozilla/5.0 (Windows NT 10.0; Win64; x64) AppleWebKit/537.36 (KHTML, like Gecko) Chrome/135.0.0.0 Safari/537.36 Edg/135.0.0.0",WebKit,Edge,wn3qg9l5rp2c26l,Male,NA,No,704081.5,NA,9.904,NA,A,choice,tcd,trinary,attraction,2,laptops,NA,NA,NA,NA,NA,NA,1,50,60,40,60,50,60,Processing speed,Memory (RAM),t
50,choice_trial,53,392557,0.0-4.0-1.24,1,"Mozilla/5.0 (Windows NT 10.0; Win64; x64) AppleWebKit/537.36 (KHTML, like Gecko) Chrome/135.0.0.0 Safari/537.36 Edg/135.0.0.0",WebKit,Edge,wn3qg9l5rp2c26l,Male,NA,No,704081.5,NA,18.567,NA,B,choice,tc,binary,repulsion,1,washing machines,NA,NA,NA,NA,NA,NA,2,100,90,NA,30,40,NA,Average lifespan,Energy savings,c
50,choice_trial,55,415751,0.0-4.0-1.25,1,"Mozilla/5.0 (Windows NT 10.0; Win64; x64) AppleWebKit/537.36 (KHTML, like Gecko) Chrome/135.0.0.0 Safari/537.36 Edg/135.0.0.0",WebKit,Edge,wn3qg9l5rp2c26l,Male,NA,No,704081.5,NA,22.889,NA,B,choice,ctd,trinary,attraction,1,televisions,NA,NA,NA,NA,NA,NA,2,60,50,60,50,60,40,Screen size,Average lifespan,t
50,choice_trial,57,430370,0.0-4.0-1.26,1,"Mozilla/5.0 (Windows NT 10.0; Win64; x64) AppleWebKit/537.36 (KHTML, like Gecko) Chrome/135.0.0.0 Safari/537.36 Edg/135.0.0.0",WebKit,Edge,wn3qg9l5rp2c26l,Male,NA,No,704081.5,NA,14.313,NA,B,choice,tcd,trinary,attraction,1,laptops,NA,NA,NA,NA,NA,NA,1,60,50,60,50,60,40,Processing speed,Memory (RAM),c
50,choice_trial,59,440313,0.0-4.0-1.27,1,"Mozilla/5.0 (Windows NT 10.0; Win64; x64) AppleWebKit/537.36 (KHTML, like Gecko) Chrome/135.0.0.0 Safari/537.36 Edg/135.0.0.0",WebKit,Edge,wn3qg9l5rp2c26l,Male,NA,No,704081.5,NA,9.637,NA,C,choice,dtc,trinary,repulsion_A,2,laptops,NA,NA,NA,NA,NA,NA,1,30,40,20,100,90,100,Processing speed,Memory (RAM),c
50,choice_trial,61,449715,0.0-4.0-1.28,1,"Mozilla/5.0 (Windows NT 10.0; Win64; x64) AppleWebKit/537.36 (KHTML, like Gecko) Chrome/135.0.0.0 Safari/537.36 Edg/135.0.0.0",WebKit,Edge,wn3qg9l5rp2c26l,Male,NA,No,704081.5,NA,9.096,NA,A,choice,ct,binary,repulsion,1,televisions,NA,NA,NA,NA,NA,NA,2,100,90,NA,30,40,NA,Screen size,Average lifespan,c
50,choice_trial,63,455005,0.0-4.0-1.29,1,"Mozilla/5.0 (Windows NT 10.0; Win64; x64) AppleWebKit/537.36 (KHTML, like Gecko) Chrome/135.0.0.0 Safari/537.36 Edg/135.0.0.0",WebKit,Edge,wn3qg9l5rp2c26l,Male,NA,No,704081.5,NA,4.985,NA,C,choice,dtc,trinary,repulsion_A,1,televisions,NA,NA,NA,NA,NA,NA,2,100,90,100,30,40,20,Screen size,Average lifespan,c
50,choice_trial,65,465435,0.0-4.0-1.30,1,"Mozilla/5.0 (Windows NT 10.0; Win64; x64) AppleWebKit/537.36 (KHTML, like Gecko) Chrome/135.0.0.0 Safari/537.36 Edg/135.0.0.0",WebKit,Edge,wn3qg9l5rp2c26l,Male,NA,No,704081.5,NA,10.124,NA,B,choice,tcd,trinary,attraction,1,microwave ovens,NA,NA,NA,NA,NA,NA,2,60,50,60,50,60,40,Warranty,Cooking power,c
50,choice_trial,67,484767,0.0-4.0-1.31,1,"Mozilla/5.0 (Windows NT 10.0; Win64; x64) AppleWebKit/537.36 (KHTML, like Gecko) Chrome/135.0.0.0 Safari/537.36 Edg/135.0.0.0",WebKit,Edge,wn3qg9l5rp2c26l,Male,NA,No,704081.5,NA,19.026,NA,B,choice,dct,trinary,attraction,1,washing machines,NA,NA,NA,NA,NA,NA,1,60,50,60,50,60,40,Average lifespan,Energy savings,c
50,choice_trial,69,492066,0.0-4.0-1.32,1,"Mozilla/5.0 (Windows NT 10.0; Win64; x64) AppleWebKit/537.36 (KHTML, like Gecko) Chrome/135.0.0.0 Safari/537.36 Edg/135.0.0.0",WebKit,Edge,wn3qg9l5rp2c26l,Male,NA,No,704081.5,NA,6.991,NA,B,choice,tc,binary,attraction,NA,laptops,NA,NA,NA,NA,NA,NA,2,60,50,NA,50,60,NA,Processing speed,Memory (RAM),c
50,choice_trial,71,495745,0.0-4.0-1.33,1,"Mozilla/5.0 (Windows NT 10.0; Win64; x64) AppleWebKit/537.36 (KHTML, like Gecko) Chrome/135.0.0.0 Safari/537.36 Edg/135.0.0.0",WebKit,Edge,wn3qg9l5rp2c26l,Male,NA,No,704081.5,NA,3.372,NA,B,choice,wbw,trinary,catch,NA,televisions,55,55,5,5,25,50,1,NA,NA,NA,NA,NA,NA,Screen size,Average lifespan,b
50,choice_trial,73,506884,0.0-4.0-1.34,1,"Mozilla/5.0 (Windows NT 10.0; Win64; x64) AppleWebKit/537.36 (KHTML, like Gecko) Chrome/135.0.0.0 Safari/537.36 Edg/135.0.0.0",WebKit,Edge,wn3qg9l5rp2c26l,Male,NA,No,704081.5,NA,10.833,NA,B,choice,ctd,trinary,repulsion_B,1,laptops,NA,NA,NA,NA,NA,NA,1,90,100,80,40,30,40,Processing speed,Memory (RAM),t
50,choice_trial,75,518208,0.0-4.0-1.35,1,"Mozilla/5.0 (Windows NT 10.0; Win64; x64) AppleWebKit/537.36 (KHTML, like Gecko) Chrome/135.0.0.0 Safari/537.36 Edg/135.0.0.0",WebKit,Edge,wn3qg9l5rp2c26l,Male,NA,No,704081.5,NA,11.017,NA,C,choice,cdt,trinary,repulsion_B,2,microwave ovens,NA,NA,NA,NA,NA,NA,2,40,30,40,90,100,80,Warranty,Cooking power,t
50,choice_trial,77,522246,0.0-4.0-1.36,1,"Mozilla/5.0 (Windows NT 10.0; Win64; x64) AppleWebKit/537.36 (KHTML, like Gecko) Chrome/135.0.0.0 Safari/537.36 Edg/135.0.0.0",WebKit,Edge,wn3qg9l5rp2c26l,Male,NA,No,704081.5,NA,3.731,NA,A,choice,tcd,trinary,repulsion_B,1,microwave ovens,NA,NA,NA,NA,NA,NA,1,90,100,80,40,30,40,Warranty,Cooking power,t
50,choice_trial,79,534351,0.0-4.0-1.37,1,"Mozilla/5.0 (Windows NT 10.0; Win64; x64) AppleWebKit/537.36 (KHTML, like Gecko) Chrome/135.0.0.0 Safari/537.36 Edg/135.0.0.0",WebKit,Edge,wn3qg9l5rp2c26l,Male,NA,No,704081.5,NA,11.797,NA,B,choice,ct,binary,attraction,NA,washing machines,NA,NA,NA,NA,NA,NA,2,60,50,NA,50,60,NA,Average lifespan,Energy savings,t
50,choice_trial,81,537763,0.0-4.0-1.38,1,"Mozilla/5.0 (Windows NT 10.0; Win64; x64) AppleWebKit/537.36 (KHTML, like Gecko) Chrome/135.0.0.0 Safari/537.36 Edg/135.0.0.0",WebKit,Edge,wn3qg9l5rp2c26l,Male,NA,No,704081.5,NA,3.106,NA,B,choice,wb,binary,catch,NA,microwave ovens,85,75,40,10,NA,NA,1,NA,NA,NA,NA,NA,NA,Warranty,Cooking power,b
50,choice_trial,83,546077,0.0-4.0-1.39,1,"Mozilla/5.0 (Windows NT 10.0; Win64; x64) AppleWebKit/537.36 (KHTML, like Gecko) Chrome/135.0.0.0 Safari/537.36 Edg/135.0.0.0",WebKit,Edge,wn3qg9l5rp2c26l,Male,NA,No,704081.5,NA,8.008,NA,A,choice,cdt,trinary,repulsion_A,2,microwave ovens,NA,NA,NA,NA,NA,NA,1,30,40,20,100,90,100,Warranty,Cooking power,c
50,choice_trial,85,555129,0.0-4.0-1.40,1,"Mozilla/5.0 (Windows NT 10.0; Win64; x64) AppleWebKit/537.36 (KHTML, like Gecko) Chrome/135.0.0.0 Safari/537.36 Edg/135.0.0.0",WebKit,Edge,wn3qg9l5rp2c26l,Male,NA,No,704081.5,NA,8.744,NA,A,choice,cdt,trinary,repulsion_A,2,washing machines,NA,NA,NA,NA,NA,NA,1,30,40,20,100,90,100,Average lifespan,Energy savings,c
50,choice_trial,87,560272,0.0-4.0-1.41,1,"Mozilla/5.0 (Windows NT 10.0; Win64; x64) AppleWebKit/537.36 (KHTML, like Gecko) Chrome/135.0.0.0 Safari/537.36 Edg/135.0.0.0",WebKit,Edge,wn3qg9l5rp2c26l,Male,NA,No,704081.5,NA,4.835,NA,C,choice,dtc,trinary,repulsion_A,1,laptops,NA,NA,NA,NA,NA,NA,2,100,90,100,30,40,20,Processing speed,Memory (RAM),c
50,choice_trial,89,564504,0.0-4.0-1.42,1,"Mozilla/5.0 (Windows NT 10.0; Win64; x64) AppleWebKit/537.36 (KHTML, like Gecko) Chrome/135.0.0.0 Safari/537.36 Edg/135.0.0.0",WebKit,Edge,wn3qg9l5rp2c26l,Male,NA,No,704081.5,NA,3.926,NA,B,choice,tc,binary,repulsion,2,televisions,NA,NA,NA,NA,NA,NA,2,30,40,NA,100,90,NA,Screen size,Average lifespan,c
50,choice_trial,91,570690,0.0-4.0-1.43,1,"Mozilla/5.0 (Windows NT 10.0; Win64; x64) AppleWebKit/537.36 (KHTML, like Gecko) Chrome/135.0.0.0 Safari/537.36 Edg/135.0.0.0",WebKit,Edge,wn3qg9l5rp2c26l,Male,NA,No,704081.5,NA,5.879,NA,A,choice,tc,binary,attraction,NA,televisions,NA,NA,NA,NA,NA,NA,2,60,50,NA,50,60,NA,Screen size,Average lifespan,t
51,choice_trial,5,40259,0.0-4.0-1.0,1,"Mozilla/5.0 (Windows NT 10.0; Win64; x64) AppleWebKit/537.36 (KHTML, like Gecko) Chrome/135.0.0.0 Safari/537.36",WebKit,Chrome,w7dktqv721958bh,Male,NA,No,311003.8000000119,NA,9.657,NA,B,choice,tc,binary,repulsion,1,laptops,NA,NA,NA,NA,NA,NA,2,100,90,NA,30,40,NA,Processing speed,Memory (RAM),c
51,choice_trial,7,47357,0.0-4.0-1.1,1,"Mozilla/5.0 (Windows NT 10.0; Win64; x64) AppleWebKit/537.36 (KHTML, like Gecko) Chrome/135.0.0.0 Safari/537.36",WebKit,Chrome,w7dktqv721958bh,Male,NA,No,311003.8000000119,NA,6.791,NA,B,choice,tc,binary,repulsion,1,washing machines,NA,NA,NA,NA,NA,NA,2,100,90,NA,30,40,NA,Average lifespan,Energy savings,c
51,choice_trial,9,55635,0.0-4.0-1.2,1,"Mozilla/5.0 (Windows NT 10.0; Win64; x64) AppleWebKit/537.36 (KHTML, like Gecko) Chrome/135.0.0.0 Safari/537.36",WebKit,Chrome,w7dktqv721958bh,Male,NA,No,311003.8000000119,NA,7.969,NA,C,choice,dct,trinary,repulsion_A,2,televisions,NA,NA,NA,NA,NA,NA,2,30,40,20,100,90,100,Screen size,Average lifespan,t
51,choice_trial,11,60193,0.0-4.0-1.3,1,"Mozilla/5.0 (Windows NT 10.0; Win64; x64) AppleWebKit/537.36 (KHTML, like Gecko) Chrome/135.0.0.0 Safari/537.36",WebKit,Chrome,w7dktqv721958bh,Male,NA,No,311003.8000000119,NA,4.241,NA,B,choice,dtc,trinary,repulsion_A,2,washing machines,NA,NA,NA,NA,NA,NA,2,30,40,20,100,90,100,Average lifespan,Energy savings,t
51,choice_trial,13,70251,0.0-4.0-1.4,1,"Mozilla/5.0 (Windows NT 10.0; Win64; x64) AppleWebKit/537.36 (KHTML, like Gecko) Chrome/135.0.0.0 Safari/537.36",WebKit,Chrome,w7dktqv721958bh,Male,NA,No,311003.8000000119,NA,9.752,NA,B,choice,tc,binary,repulsion,2,laptops,NA,NA,NA,NA,NA,NA,2,30,40,NA,100,90,NA,Processing speed,Memory (RAM),c
51,choice_trial,15,74907,0.0-4.0-1.5,1,"Mozilla/5.0 (Windows NT 10.0; Win64; x64) AppleWebKit/537.36 (KHTML, like Gecko) Chrome/135.0.0.0 Safari/537.36",WebKit,Chrome,w7dktqv721958bh,Male,NA,No,311003.8000000119,NA,4.348,NA,A,choice,bw,binary,catch,NA,washing machines,95,85,15,15,NA,NA,1,NA,NA,NA,NA,NA,NA,Average lifespan,Energy savings,b
51,choice_trial,17,85411,0.0-4.0-1.6,1,"Mozilla/5.0 (Windows NT 10.0; Win64; x64) AppleWebKit/537.36 (KHTML, like Gecko) Chrome/135.0.0.0 Safari/537.36",WebKit,Chrome,w7dktqv721958bh,Male,NA,No,311003.8000000119,NA,10.186,NA,A,choice,cdt,trinary,attraction,1,televisions,NA,NA,NA,NA,NA,NA,2,60,50,60,50,60,40,Screen size,Average lifespan,c
51,choice_trial,19,89378,0.0-4.0-1.7,1,"Mozilla/5.0 (Windows NT 10.0; Win64; x64) AppleWebKit/537.36 (KHTML, like Gecko) Chrome/135.0.0.0 Safari/537.36",WebKit,Chrome,w7dktqv721958bh,Male,NA,No,311003.8000000119,NA,3.66,NA,A,choice,bww,trinary,catch,NA,microwave ovens,55,90,30,30,20,25,1,NA,NA,NA,NA,NA,NA,Warranty,Cooking power,b
51,choice_trial,21,91947,0.0-4.0-1.8,1,"Mozilla/5.0 (Windows NT 10.0; Win64; x64) AppleWebKit/537.36 (KHTML, like Gecko) Chrome/135.0.0.0 Safari/537.36",WebKit,Chrome,w7dktqv721958bh,Male,NA,No,311003.8000000119,NA,2.264,NA,B,choice,wb,binary,catch,NA,microwave ovens,85,95,50,45,NA,NA,2,NA,NA,NA,NA,NA,NA,Warranty,Cooking power,b
51,choice_trial,23,99941,0.0-4.0-1.9,1,"Mozilla/5.0 (Windows NT 10.0; Win64; x64) AppleWebKit/537.36 (KHTML, like Gecko) Chrome/135.0.0.0 Safari/537.36",WebKit,Chrome,w7dktqv721958bh,Male,NA,No,311003.8000000119,NA,7.682,NA,C,choice,dct,trinary,attraction,2,washing machines,NA,NA,NA,NA,NA,NA,2,50,60,40,60,50,60,Average lifespan,Energy savings,t
51,choice_trial,25,111363,0.0-4.0-1.10,1,"Mozilla/5.0 (Windows NT 10.0; Win64; x64) AppleWebKit/537.36 (KHTML, like Gecko) Chrome/135.0.0.0 Safari/537.36",WebKit,Chrome,w7dktqv721958bh,Male,NA,No,311003.8000000119,NA,11.116,NA,B,choice,ctd,trinary,repulsion_A,2,microwave ovens,NA,NA,NA,NA,NA,NA,2,30,40,20,100,90,100,Warranty,Cooking power,t
51,choice_trial,27,117068,0.0-4.0-1.11,1,"Mozilla/5.0 (Windows NT 10.0; Win64; x64) AppleWebKit/537.36 (KHTML, like Gecko) Chrome/135.0.0.0 Safari/537.36",WebKit,Chrome,w7dktqv721958bh,Male,NA,No,311003.8000000119,NA,5.387,NA,B,choice,ctd,trinary,repulsion_B,1,washing machines,NA,NA,NA,NA,NA,NA,1,90,100,80,40,30,40,Average lifespan,Energy savings,t
51,choice_trial,29,123984,0.0-4.0-1.12,1,"Mozilla/5.0 (Windows NT 10.0; Win64; x64) AppleWebKit/537.36 (KHTML, like Gecko) Chrome/135.0.0.0 Safari/537.36",WebKit,Chrome,w7dktqv721958bh,Male,NA,No,311003.8000000119,NA,6.612,NA,C,choice,dtc,trinary,attraction,1,washing machines,NA,NA,NA,NA,NA,NA,1,60,50,60,50,60,40,Average lifespan,Energy savings,c
51,choice_trial,31,130973,0.0-4.0-1.13,1,"Mozilla/5.0 (Windows NT 10.0; Win64; x64) AppleWebKit/537.36 (KHTML, like Gecko) Chrome/135.0.0.0 Safari/537.36",WebKit,Chrome,w7dktqv721958bh,Male,NA,No,311003.8000000119,NA,6.676,NA,B,choice,wwb,trinary,catch,NA,laptops,50,80,35,5,50,50,1,NA,NA,NA,NA,NA,NA,Processing speed,Memory (RAM),w
51,choice_trial,33,134748,0.0-4.0-1.14,1,"Mozilla/5.0 (Windows NT 10.0; Win64; x64) AppleWebKit/537.36 (KHTML, like Gecko) Chrome/135.0.0.0 Safari/537.36",WebKit,Chrome,w7dktqv721958bh,Male,NA,No,311003.8000000119,NA,3.463,NA,B,choice,tc,binary,repulsion,1,microwave ovens,NA,NA,NA,NA,NA,NA,1,100,90,NA,30,40,NA,Warranty,Cooking power,c
51,choice_trial,35,141316,0.0-4.0-1.15,1,"Mozilla/5.0 (Windows NT 10.0; Win64; x64) AppleWebKit/537.36 (KHTML, like Gecko) Chrome/135.0.0.0 Safari/537.36",WebKit,Chrome,w7dktqv721958bh,Male,NA,No,311003.8000000119,NA,6.26,NA,C,choice,tdc,trinary,attraction,2,laptops,NA,NA,NA,NA,NA,NA,1,50,60,40,60,50,60,Processing speed,Memory (RAM),c
51,choice_trial,37,146444,0.0-4.0-1.16,1,"Mozilla/5.0 (Windows NT 10.0; Win64; x64) AppleWebKit/537.36 (KHTML, like Gecko) Chrome/135.0.0.0 Safari/537.36",WebKit,Chrome,w7dktqv721958bh,Male,NA,No,311003.8000000119,NA,4.812,NA,A,choice,bw,binary,catch,NA,laptops,70,90,15,20,NA,NA,1,NA,NA,NA,NA,NA,NA,Processing speed,Memory (RAM),b
51,choice_trial,39,152509,0.0-4.0-1.17,1,"Mozilla/5.0 (Windows NT 10.0; Win64; x64) AppleWebKit/537.36 (KHTML, like Gecko) Chrome/135.0.0.0 Safari/537.36",WebKit,Chrome,w7dktqv721958bh,Male,NA,No,311003.8000000119,NA,5.753,NA,B,choice,tcd,trinary,attraction,2,microwave ovens,NA,NA,NA,NA,NA,NA,1,50,60,40,60,50,60,Warranty,Cooking power,c
51,choice_trial,41,155709,0.0-4.0-1.18,1,"Mozilla/5.0 (Windows NT 10.0; Win64; x64) AppleWebKit/537.36 (KHTML, like Gecko) Chrome/135.0.0.0 Safari/537.36",WebKit,Chrome,w7dktqv721958bh,Male,NA,No,311003.8000000119,NA,2.891,NA,A,choice,ct,binary,attraction,NA,microwave ovens,NA,NA,NA,NA,NA,NA,2,60,50,NA,50,60,NA,Warranty,Cooking power,c
51,choice_trial,43,160141,0.0-4.0-1.19,1,"Mozilla/5.0 (Windows NT 10.0; Win64; x64) AppleWebKit/537.36 (KHTML, like Gecko) Chrome/135.0.0.0 Safari/537.36",WebKit,Chrome,w7dktqv721958bh,Male,NA,No,311003.8000000119,NA,4.128,NA,C,choice,dct,trinary,attraction,2,televisions,NA,NA,NA,NA,NA,NA,2,50,60,40,60,50,60,Screen size,Average lifespan,t
51,choice_trial,45,164232,0.0-4.0-1.20,1,"Mozilla/5.0 (Windows NT 10.0; Win64; x64) AppleWebKit/537.36 (KHTML, like Gecko) Chrome/135.0.0.0 Safari/537.36",WebKit,Chrome,w7dktqv721958bh,Male,NA,No,311003.8000000119,NA,3.787,NA,B,choice,ctd,trinary,repulsion_B,2,laptops,NA,NA,NA,NA,NA,NA,1,40,30,40,90,100,80,Processing speed,Memory (RAM),t
51,choice_trial,47,170630,0.0-4.0-1.21,1,"Mozilla/5.0 (Windows NT 10.0; Win64; x64) AppleWebKit/537.36 (KHTML, like Gecko) Chrome/135.0.0.0 Safari/537.36",WebKit,Chrome,w7dktqv721958bh,Male,NA,No,311003.8000000119,NA,6.094,NA,A,choice,bww,trinary,catch,NA,televisions,85,50,40,40,30,5,1,NA,NA,NA,NA,NA,NA,Screen size,Average lifespan,b
51,choice_trial,49,173661,0.0-4.0-1.22,1,"Mozilla/5.0 (Windows NT 10.0; Win64; x64) AppleWebKit/537.36 (KHTML, like Gecko) Chrome/135.0.0.0 Safari/537.36",WebKit,Chrome,w7dktqv721958bh,Male,NA,No,311003.8000000119,NA,2.723,NA,A,choice,bw,binary,catch,NA,televisions,60,65,40,5,NA,NA,2,NA,NA,NA,NA,NA,NA,Screen size,Average lifespan,b
51,choice_trial,51,177239,0.0-4.0-1.23,1,"Mozilla/5.0 (Windows NT 10.0; Win64; x64) AppleWebKit/537.36 (KHTML, like Gecko) Chrome/135.0.0.0 Safari/537.36",WebKit,Chrome,w7dktqv721958bh,Male,NA,No,311003.8000000119,NA,3.261,NA,C,choice,cdt,trinary,repulsion_B,2,microwave ovens,NA,NA,NA,NA,NA,NA,1,40,30,40,90,100,80,Warranty,Cooking power,t
51,choice_trial,53,180814,0.0-4.0-1.24,1,"Mozilla/5.0 (Windows NT 10.0; Win64; x64) AppleWebKit/537.36 (KHTML, like Gecko) Chrome/135.0.0.0 Safari/537.36",WebKit,Chrome,w7dktqv721958bh,Male,NA,No,311003.8000000119,NA,3.266,NA,C,choice,dtc,trinary,attraction,1,laptops,NA,NA,NA,NA,NA,NA,2,60,50,60,50,60,40,Processing speed,Memory (RAM),c
51,choice_trial,55,185029,0.0-4.0-1.25,1,"Mozilla/5.0 (Windows NT 10.0; Win64; x64) AppleWebKit/537.36 (KHTML, like Gecko) Chrome/135.0.0.0 Safari/537.36",WebKit,Chrome,w7dktqv721958bh,Male,NA,No,311003.8000000119,NA,3.901,NA,C,choice,tdc,trinary,repulsion_A,1,microwave ovens,NA,NA,NA,NA,NA,NA,2,100,90,100,30,40,20,Warranty,Cooking power,c
51,choice_trial,57,192543,0.0-4.0-1.26,1,"Mozilla/5.0 (Windows NT 10.0; Win64; x64) AppleWebKit/537.36 (KHTML, like Gecko) Chrome/135.0.0.0 Safari/537.36",WebKit,Chrome,w7dktqv721958bh,Male,NA,No,311003.8000000119,NA,7.208,NA,B,choice,tc,binary,repulsion,2,microwave ovens,NA,NA,NA,NA,NA,NA,1,30,40,NA,100,90,NA,Warranty,Cooking power,c
51,choice_trial,59,198671,0.0-4.0-1.27,1,"Mozilla/5.0 (Windows NT 10.0; Win64; x64) AppleWebKit/537.36 (KHTML, like Gecko) Chrome/135.0.0.0 Safari/537.36",WebKit,Chrome,w7dktqv721958bh,Male,NA,No,311003.8000000119,NA,5.817,NA,A,choice,tdc,trinary,repulsion_B,1,microwave ovens,NA,NA,NA,NA,NA,NA,1,90,100,80,40,30,40,Warranty,Cooking power,t
51,choice_trial,61,204438,0.0-4.0-1.28,1,"Mozilla/5.0 (Windows NT 10.0; Win64; x64) AppleWebKit/537.36 (KHTML, like Gecko) Chrome/135.0.0.0 Safari/537.36",WebKit,Chrome,w7dktqv721958bh,Male,NA,No,311003.8000000119,NA,5.454,NA,A,choice,ct,binary,repulsion,1,televisions,NA,NA,NA,NA,NA,NA,1,100,90,NA,30,40,NA,Screen size,Average lifespan,c
51,choice_trial,63,208294,0.0-4.0-1.29,1,"Mozilla/5.0 (Windows NT 10.0; Win64; x64) AppleWebKit/537.36 (KHTML, like Gecko) Chrome/135.0.0.0 Safari/537.36",WebKit,Chrome,w7dktqv721958bh,Male,NA,No,311003.8000000119,NA,3.543,NA,A,choice,tc,binary,repulsion,2,televisions,NA,NA,NA,NA,NA,NA,2,30,40,NA,100,90,NA,Screen size,Average lifespan,t
51,choice_trial,65,213246,0.0-4.0-1.30,1,"Mozilla/5.0 (Windows NT 10.0; Win64; x64) AppleWebKit/537.36 (KHTML, like Gecko) Chrome/135.0.0.0 Safari/537.36",WebKit,Chrome,w7dktqv721958bh,Male,NA,No,311003.8000000119,NA,4.64,NA,B,choice,ctd,trinary,repulsion_B,2,washing machines,NA,NA,NA,NA,NA,NA,1,40,30,40,90,100,80,Average lifespan,Energy savings,t
51,choice_trial,67,218622,0.0-4.0-1.31,1,"Mozilla/5.0 (Windows NT 10.0; Win64; x64) AppleWebKit/537.36 (KHTML, like Gecko) Chrome/135.0.0.0 Safari/537.36",WebKit,Chrome,w7dktqv721958bh,Male,NA,No,311003.8000000119,NA,5.062,NA,C,choice,cdt,trinary,repulsion_A,1,washing machines,NA,NA,NA,NA,NA,NA,2,100,90,100,30,40,20,Average lifespan,Energy savings,t
51,choice_trial,69,226952,0.0-4.0-1.32,1,"Mozilla/5.0 (Windows NT 10.0; Win64; x64) AppleWebKit/537.36 (KHTML, like Gecko) Chrome/135.0.0.0 Safari/537.36",WebKit,Chrome,w7dktqv721958bh,Male,NA,No,311003.8000000119,NA,8.02,NA,C,choice,cdt,trinary,repulsion_A,1,televisions,NA,NA,NA,NA,NA,NA,2,100,90,100,30,40,20,Screen size,Average lifespan,t
51,choice_trial,71,231262,0.0-4.0-1.33,1,"Mozilla/5.0 (Windows NT 10.0; Win64; x64) AppleWebKit/537.36 (KHTML, like Gecko) Chrome/135.0.0.0 Safari/537.36",WebKit,Chrome,w7dktqv721958bh,Male,NA,No,311003.8000000119,NA,3.999,NA,B,choice,dct,trinary,repulsion_B,1,televisions,NA,NA,NA,NA,NA,NA,1,90,100,80,40,30,40,Screen size,Average lifespan,c
51,choice_trial,73,236626,0.0-4.0-1.34,1,"Mozilla/5.0 (Windows NT 10.0; Win64; x64) AppleWebKit/537.36 (KHTML, like Gecko) Chrome/135.0.0.0 Safari/537.36",WebKit,Chrome,w7dktqv721958bh,Male,NA,No,311003.8000000119,NA,5.055,NA,A,choice,tc,binary,repulsion,2,washing machines,NA,NA,NA,NA,NA,NA,1,30,40,NA,100,90,NA,Average lifespan,Energy savings,t
51,choice_trial,75,239621,0.0-4.0-1.35,1,"Mozilla/5.0 (Windows NT 10.0; Win64; x64) AppleWebKit/537.36 (KHTML, like Gecko) Chrome/135.0.0.0 Safari/537.36",WebKit,Chrome,w7dktqv721958bh,Male,NA,No,311003.8000000119,NA,2.683,NA,B,choice,wbw,trinary,catch,NA,washing machines,80,65,5,20,25,5,1,NA,NA,NA,NA,NA,NA,Average lifespan,Energy savings,b
51,choice_trial,77,243616,0.0-4.0-1.36,1,"Mozilla/5.0 (Windows NT 10.0; Win64; x64) AppleWebKit/537.36 (KHTML, like Gecko) Chrome/135.0.0.0 Safari/537.36",WebKit,Chrome,w7dktqv721958bh,Male,NA,No,311003.8000000119,NA,3.689,NA,A,choice,tdc,trinary,repulsion_B,2,televisions,NA,NA,NA,NA,NA,NA,2,40,30,40,90,100,80,Screen size,Average lifespan,t
51,choice_trial,79,245795,0.0-4.0-1.37,1,"Mozilla/5.0 (Windows NT 10.0; Win64; x64) AppleWebKit/537.36 (KHTML, like Gecko) Chrome/135.0.0.0 Safari/537.36",WebKit,Chrome,w7dktqv721958bh,Male,NA,No,311003.8000000119,NA,1.874,NA,B,choice,ct,binary,attraction,NA,laptops,NA,NA,NA,NA,NA,NA,2,60,50,NA,50,60,NA,Processing speed,Memory (RAM),t
51,choice_trial,81,247284,0.0-4.0-1.38,1,"Mozilla/5.0 (Windows NT 10.0; Win64; x64) AppleWebKit/537.36 (KHTML, like Gecko) Chrome/135.0.0.0 Safari/537.36",WebKit,Chrome,w7dktqv721958bh,Male,NA,No,311003.8000000119,NA,1.18,NA,A,choice,ct,binary,attraction,NA,televisions,NA,NA,NA,NA,NA,NA,2,60,50,NA,50,60,NA,Screen size,Average lifespan,c
51,choice_trial,83,248858,0.0-4.0-1.39,1,"Mozilla/5.0 (Windows NT 10.0; Win64; x64) AppleWebKit/537.36 (KHTML, like Gecko) Chrome/135.0.0.0 Safari/537.36",WebKit,Chrome,w7dktqv721958bh,Male,NA,No,311003.8000000119,NA,1.257,NA,B,choice,tcd,trinary,attraction,1,microwave ovens,NA,NA,NA,NA,NA,NA,2,60,50,60,50,60,40,Warranty,Cooking power,c
51,choice_trial,85,251761,0.0-4.0-1.40,1,"Mozilla/5.0 (Windows NT 10.0; Win64; x64) AppleWebKit/537.36 (KHTML, like Gecko) Chrome/135.0.0.0 Safari/537.36",WebKit,Chrome,w7dktqv721958bh,Male,NA,No,311003.8000000119,NA,2.585,NA,B,choice,tc,binary,attraction,NA,washing machines,NA,NA,NA,NA,NA,NA,1,60,50,NA,50,60,NA,Average lifespan,Energy savings,c
51,choice_trial,87,254931,0.0-4.0-1.41,1,"Mozilla/5.0 (Windows NT 10.0; Win64; x64) AppleWebKit/537.36 (KHTML, like Gecko) Chrome/135.0.0.0 Safari/537.36",WebKit,Chrome,w7dktqv721958bh,Male,NA,No,311003.8000000119,NA,2.855,NA,C,choice,dct,trinary,repulsion_B,1,laptops,NA,NA,NA,NA,NA,NA,1,90,100,80,40,30,40,Processing speed,Memory (RAM),t
51,choice_trial,89,258336,0.0-4.0-1.42,1,"Mozilla/5.0 (Windows NT 10.0; Win64; x64) AppleWebKit/537.36 (KHTML, like Gecko) Chrome/135.0.0.0 Safari/537.36",WebKit,Chrome,w7dktqv721958bh,Male,NA,No,311003.8000000119,NA,3.085,NA,B,choice,tcd,trinary,repulsion_A,1,laptops,NA,NA,NA,NA,NA,NA,2,100,90,100,30,40,20,Processing speed,Memory (RAM),c
51,choice_trial,91,261613,0.0-4.0-1.43,1,"Mozilla/5.0 (Windows NT 10.0; Win64; x64) AppleWebKit/537.36 (KHTML, like Gecko) Chrome/135.0.0.0 Safari/537.36",WebKit,Chrome,w7dktqv721958bh,Male,NA,No,311003.8000000119,NA,2.971,NA,B,choice,tcd,trinary,repulsion_A,2,laptops,NA,NA,NA,NA,NA,NA,2,30,40,20,100,90,100,Processing speed,Memory (RAM),c
52,choice_trial,5,32503,0.0-4.0-1.0,1,"Mozilla/5.0 (Windows NT 10.0; Win64; x64) AppleWebKit/537.36 (KHTML, like Gecko) Chrome/135.0.0.0 Safari/537.36",WebKit,Chrome,yykenlvdjywclb0,Male,NA,No,198180.79999995232,NA,10.208,NA,C,choice,tdc,trinary,repulsion_A,1,microwave ovens,NA,NA,NA,NA,NA,NA,1,100,90,100,30,40,20,Warranty,Cooking power,c
52,choice_trial,7,37805,0.0-4.0-1.1,1,"Mozilla/5.0 (Windows NT 10.0; Win64; x64) AppleWebKit/537.36 (KHTML, like Gecko) Chrome/135.0.0.0 Safari/537.36",WebKit,Chrome,yykenlvdjywclb0,Male,NA,No,198180.79999995232,NA,4.995,NA,C,choice,dtc,trinary,attraction,2,washing machines,NA,NA,NA,NA,NA,NA,2,50,60,40,60,50,60,Average lifespan,Energy savings,c
52,choice_trial,9,40167,0.0-4.0-1.2,1,"Mozilla/5.0 (Windows NT 10.0; Win64; x64) AppleWebKit/537.36 (KHTML, like Gecko) Chrome/135.0.0.0 Safari/537.36",WebKit,Chrome,yykenlvdjywclb0,Male,NA,No,198180.79999995232,NA,2.051,NA,A,choice,bw,binary,catch,NA,microwave ovens,80,65,20,45,NA,NA,2,NA,NA,NA,NA,NA,NA,Warranty,Cooking power,b
52,choice_trial,11,41963,0.0-4.0-1.3,1,"Mozilla/5.0 (Windows NT 10.0; Win64; x64) AppleWebKit/537.36 (KHTML, like Gecko) Chrome/135.0.0.0 Safari/537.36",WebKit,Chrome,yykenlvdjywclb0,Male,NA,No,198180.79999995232,NA,1.489,NA,B,choice,tc,binary,attraction,NA,laptops,NA,NA,NA,NA,NA,NA,2,60,50,NA,50,60,NA,Processing speed,Memory (RAM),c
52,choice_trial,13,43942,0.0-4.0-1.4,1,"Mozilla/5.0 (Windows NT 10.0; Win64; x64) AppleWebKit/537.36 (KHTML, like Gecko) Chrome/135.0.0.0 Safari/537.36",WebKit,Chrome,yykenlvdjywclb0,Male,NA,No,198180.79999995232,NA,1.674,NA,B,choice,ct,binary,repulsion,1,laptops,NA,NA,NA,NA,NA,NA,1,100,90,NA,30,40,NA,Processing speed,Memory (RAM),t
52,choice_trial,15,45940,0.0-4.0-1.5,1,"Mozilla/5.0 (Windows NT 10.0; Win64; x64) AppleWebKit/537.36 (KHTML, like Gecko) Chrome/135.0.0.0 Safari/537.36",WebKit,Chrome,yykenlvdjywclb0,Male,NA,No,198180.79999995232,NA,1.693,NA,B,choice,ctd,trinary,repulsion_B,1,microwave ovens,NA,NA,NA,NA,NA,NA,1,90,100,80,40,30,40,Warranty,Cooking power,t
52,choice_trial,17,48314,0.0-4.0-1.6,1,"Mozilla/5.0 (Windows NT 10.0; Win64; x64) AppleWebKit/537.36 (KHTML, like Gecko) Chrome/135.0.0.0 Safari/537.36",WebKit,Chrome,yykenlvdjywclb0,Male,NA,No,198180.79999995232,NA,2.068,NA,B,choice,bww,trinary,catch,NA,washing machines,80,65,15,50,5,5,1,NA,NA,NA,NA,NA,NA,Average lifespan,Energy savings,w
52,choice_trial,19,50577,0.0-4.0-1.7,1,"Mozilla/5.0 (Windows NT 10.0; Win64; x64) AppleWebKit/537.36 (KHTML, like Gecko) Chrome/135.0.0.0 Safari/537.36",WebKit,Chrome,yykenlvdjywclb0,Male,NA,No,198180.79999995232,NA,1.958,NA,B,choice,ct,binary,attraction,NA,televisions,NA,NA,NA,NA,NA,NA,2,60,50,NA,50,60,NA,Screen size,Average lifespan,t
52,choice_trial,21,52781,0.0-4.0-1.8,1,"Mozilla/5.0 (Windows NT 10.0; Win64; x64) AppleWebKit/537.36 (KHTML, like Gecko) Chrome/135.0.0.0 Safari/537.36",WebKit,Chrome,yykenlvdjywclb0,Male,NA,No,198180.79999995232,NA,1.897,NA,B,choice,tcd,trinary,repulsion_B,2,laptops,NA,NA,NA,NA,NA,NA,1,40,30,40,90,100,80,Processing speed,Memory (RAM),c
52,choice_trial,23,56584,0.0-4.0-1.9,1,"Mozilla/5.0 (Windows NT 10.0; Win64; x64) AppleWebKit/537.36 (KHTML, like Gecko) Chrome/135.0.0.0 Safari/537.36",WebKit,Chrome,yykenlvdjywclb0,Male,NA,No,198180.79999995232,NA,3.491,NA,C,choice,cdt,trinary,repulsion_B,2,televisions,NA,NA,NA,NA,NA,NA,1,40,30,40,90,100,80,Screen size,Average lifespan,t
52,choice_trial,25,58954,0.0-4.0-1.10,1,"Mozilla/5.0 (Windows NT 10.0; Win64; x64) AppleWebKit/537.36 (KHTML, like Gecko) Chrome/135.0.0.0 Safari/537.36",WebKit,Chrome,yykenlvdjywclb0,Male,NA,No,198180.79999995232,NA,2.064,NA,C,choice,ctd,trinary,repulsion_A,2,washing machines,NA,NA,NA,NA,NA,NA,2,30,40,20,100,90,100,Average lifespan,Energy savings,d
52,choice_trial,27,61583,0.0-4.0-1.11,1,"Mozilla/5.0 (Windows NT 10.0; Win64; x64) AppleWebKit/537.36 (KHTML, like Gecko) Chrome/135.0.0.0 Safari/537.36",WebKit,Chrome,yykenlvdjywclb0,Male,NA,No,198180.79999995232,NA,2.323,NA,C,choice,tdc,trinary,attraction,1,laptops,NA,NA,NA,NA,NA,NA,2,60,50,60,50,60,40,Processing speed,Memory (RAM),c
52,choice_trial,29,63562,0.0-4.0-1.12,1,"Mozilla/5.0 (Windows NT 10.0; Win64; x64) AppleWebKit/537.36 (KHTML, like Gecko) Chrome/135.0.0.0 Safari/537.36",WebKit,Chrome,yykenlvdjywclb0,Male,NA,No,198180.79999995232,NA,1.673,NA,B,choice,wb,binary,catch,NA,washing machines,90,60,30,15,NA,NA,2,NA,NA,NA,NA,NA,NA,Average lifespan,Energy savings,b
52,choice_trial,31,66074,0.0-4.0-1.13,1,"Mozilla/5.0 (Windows NT 10.0; Win64; x64) AppleWebKit/537.36 (KHTML, like Gecko) Chrome/135.0.0.0 Safari/537.36",WebKit,Chrome,yykenlvdjywclb0,Male,NA,No,198180.79999995232,NA,2.206,NA,C,choice,ctd,trinary,repulsion_A,1,laptops,NA,NA,NA,NA,NA,NA,1,100,90,100,30,40,20,Processing speed,Memory (RAM),d
52,choice_trial,33,68388,0.0-4.0-1.14,1,"Mozilla/5.0 (Windows NT 10.0; Win64; x64) AppleWebKit/537.36 (KHTML, like Gecko) Chrome/135.0.0.0 Safari/537.36",WebKit,Chrome,yykenlvdjywclb0,Male,NA,No,198180.79999995232,NA,2.006,NA,C,choice,wwb,trinary,catch,NA,laptops,50,90,15,40,35,50,2,NA,NA,NA,NA,NA,NA,Processing speed,Memory (RAM),b
52,choice_trial,35,71417,0.0-4.0-1.15,1,"Mozilla/5.0 (Windows NT 10.0; Win64; x64) AppleWebKit/537.36 (KHTML, like Gecko) Chrome/135.0.0.0 Safari/537.36",WebKit,Chrome,yykenlvdjywclb0,Male,NA,No,198180.79999995232,NA,2.722,NA,C,choice,ctd,trinary,repulsion_A,1,televisions,NA,NA,NA,NA,NA,NA,1,100,90,100,30,40,20,Screen size,Average lifespan,d
52,choice_trial,37,75259,0.0-4.0-1.16,1,"Mozilla/5.0 (Windows NT 10.0; Win64; x64) AppleWebKit/537.36 (KHTML, like Gecko) Chrome/135.0.0.0 Safari/537.36",WebKit,Chrome,yykenlvdjywclb0,Male,NA,No,198180.79999995232,NA,3.536,NA,B,choice,tc,binary,repulsion,2,televisions,NA,NA,NA,NA,NA,NA,2,30,40,NA,100,90,NA,Screen size,Average lifespan,c
52,choice_trial,39,77745,0.0-4.0-1.17,1,"Mozilla/5.0 (Windows NT 10.0; Win64; x64) AppleWebKit/537.36 (KHTML, like Gecko) Chrome/135.0.0.0 Safari/537.36",WebKit,Chrome,yykenlvdjywclb0,Male,NA,No,198180.79999995232,NA,2.171,NA,B,choice,wb,binary,catch,NA,laptops,80,65,25,45,NA,NA,2,NA,NA,NA,NA,NA,NA,Processing speed,Memory (RAM),b
52,choice_trial,41,79814,0.0-4.0-1.18,1,"Mozilla/5.0 (Windows NT 10.0; Win64; x64) AppleWebKit/537.36 (KHTML, like Gecko) Chrome/135.0.0.0 Safari/537.36",WebKit,Chrome,yykenlvdjywclb0,Male,NA,No,198180.79999995232,NA,1.762,NA,C,choice,tcd,trinary,repulsion_A,2,televisions,NA,NA,NA,NA,NA,NA,1,30,40,20,100,90,100,Screen size,Average lifespan,d
52,choice_trial,43,81708,0.0-4.0-1.19,1,"Mozilla/5.0 (Windows NT 10.0; Win64; x64) AppleWebKit/537.36 (KHTML, like Gecko) Chrome/135.0.0.0 Safari/537.36",WebKit,Chrome,yykenlvdjywclb0,Male,NA,No,198180.79999995232,NA,1.586,NA,B,choice,tc,binary,attraction,NA,washing machines,NA,NA,NA,NA,NA,NA,1,60,50,NA,50,60,NA,Average lifespan,Energy savings,c
52,choice_trial,45,84018,0.0-4.0-1.20,1,"Mozilla/5.0 (Windows NT 10.0; Win64; x64) AppleWebKit/537.36 (KHTML, like Gecko) Chrome/135.0.0.0 Safari/537.36",WebKit,Chrome,yykenlvdjywclb0,Male,NA,No,198180.79999995232,NA,2.003,NA,B,choice,tc,binary,attraction,NA,microwave ovens,NA,NA,NA,NA,NA,NA,1,60,50,NA,50,60,NA,Warranty,Cooking power,c
52,choice_trial,47,85819,0.0-4.0-1.21,1,"Mozilla/5.0 (Windows NT 10.0; Win64; x64) AppleWebKit/537.36 (KHTML, like Gecko) Chrome/135.0.0.0 Safari/537.36",WebKit,Chrome,yykenlvdjywclb0,Male,NA,No,198180.79999995232,NA,1.495,NA,C,choice,tcd,trinary,repulsion_B,1,washing machines,NA,NA,NA,NA,NA,NA,1,90,100,80,40,30,40,Average lifespan,Energy savings,d
52,choice_trial,49,87756,0.0-4.0-1.22,1,"Mozilla/5.0 (Windows NT 10.0; Win64; x64) AppleWebKit/537.36 (KHTML, like Gecko) Chrome/135.0.0.0 Safari/537.36",WebKit,Chrome,yykenlvdjywclb0,Male,NA,No,198180.79999995232,NA,1.633,NA,A,choice,tc,binary,repulsion,1,washing machines,NA,NA,NA,NA,NA,NA,1,100,90,NA,30,40,NA,Average lifespan,Energy savings,t
52,choice_trial,51,89775,0.0-4.0-1.23,1,"Mozilla/5.0 (Windows NT 10.0; Win64; x64) AppleWebKit/537.36 (KHTML, like Gecko) Chrome/135.0.0.0 Safari/537.36",WebKit,Chrome,yykenlvdjywclb0,Male,NA,No,198180.79999995232,NA,1.711,NA,A,choice,tc,binary,repulsion,1,microwave ovens,NA,NA,NA,NA,NA,NA,2,100,90,NA,30,40,NA,Warranty,Cooking power,t
52,choice_trial,53,91669,0.0-4.0-1.24,1,"Mozilla/5.0 (Windows NT 10.0; Win64; x64) AppleWebKit/537.36 (KHTML, like Gecko) Chrome/135.0.0.0 Safari/537.36",WebKit,Chrome,yykenlvdjywclb0,Male,NA,No,198180.79999995232,NA,1.585,NA,B,choice,ct,binary,repulsion,1,televisions,NA,NA,NA,NA,NA,NA,2,100,90,NA,30,40,NA,Screen size,Average lifespan,t
52,choice_trial,55,93641,0.0-4.0-1.25,1,"Mozilla/5.0 (Windows NT 10.0; Win64; x64) AppleWebKit/537.36 (KHTML, like Gecko) Chrome/135.0.0.0 Safari/537.36",WebKit,Chrome,yykenlvdjywclb0,Male,NA,No,198180.79999995232,NA,1.661,NA,C,choice,dct,trinary,repulsion_A,2,microwave ovens,NA,NA,NA,NA,NA,NA,2,30,40,20,100,90,100,Warranty,Cooking power,t
52,choice_trial,57,96041,0.0-4.0-1.26,1,"Mozilla/5.0 (Windows NT 10.0; Win64; x64) AppleWebKit/537.36 (KHTML, like Gecko) Chrome/135.0.0.0 Safari/537.36",WebKit,Chrome,yykenlvdjywclb0,Male,NA,No,198180.79999995232,NA,2.094,NA,B,choice,wb,binary,catch,NA,televisions,70,75,45,15,NA,NA,2,NA,NA,NA,NA,NA,NA,Screen size,Average lifespan,b
52,choice_trial,59,98757,0.0-4.0-1.27,1,"Mozilla/5.0 (Windows NT 10.0; Win64; x64) AppleWebKit/537.36 (KHTML, like Gecko) Chrome/135.0.0.0 Safari/537.36",WebKit,Chrome,yykenlvdjywclb0,Male,NA,No,198180.79999995232,NA,2.408,NA,C,choice,cdt,trinary,attraction,1,washing machines,NA,NA,NA,NA,NA,NA,1,60,50,60,50,60,40,Average lifespan,Energy savings,t
52,choice_trial,61,100627,0.0-4.0-1.28,1,"Mozilla/5.0 (Windows NT 10.0; Win64; x64) AppleWebKit/537.36 (KHTML, like Gecko) Chrome/135.0.0.0 Safari/537.36",WebKit,Chrome,yykenlvdjywclb0,Male,NA,No,198180.79999995232,NA,1.562,NA,C,choice,tcd,trinary,repulsion_A,2,laptops,NA,NA,NA,NA,NA,NA,2,30,40,20,100,90,100,Processing speed,Memory (RAM),d
52,choice_trial,63,102437,0.0-4.0-1.29,1,"Mozilla/5.0 (Windows NT 10.0; Win64; x64) AppleWebKit/537.36 (KHTML, like Gecko) Chrome/135.0.0.0 Safari/537.36",WebKit,Chrome,yykenlvdjywclb0,Male,NA,No,198180.79999995232,NA,1.502,NA,B,choice,dtc,trinary,attraction,2,laptops,NA,NA,NA,NA,NA,NA,1,50,60,40,60,50,60,Processing speed,Memory (RAM),t
52,choice_trial,65,104228,0.0-4.0-1.30,1,"Mozilla/5.0 (Windows NT 10.0; Win64; x64) AppleWebKit/537.36 (KHTML, like Gecko) Chrome/135.0.0.0 Safari/537.36",WebKit,Chrome,yykenlvdjywclb0,Male,NA,No,198180.79999995232,NA,1.479,NA,B,choice,ct,binary,repulsion,2,laptops,NA,NA,NA,NA,NA,NA,1,30,40,NA,100,90,NA,Processing speed,Memory (RAM),t
52,choice_trial,67,108127,0.0-4.0-1.31,1,"Mozilla/5.0 (Windows NT 10.0; Win64; x64) AppleWebKit/537.36 (KHTML, like Gecko) Chrome/135.0.0.0 Safari/537.36",WebKit,Chrome,yykenlvdjywclb0,Male,NA,No,198180.79999995232,NA,3.589,NA,C,choice,ctd,trinary,attraction,2,microwave ovens,NA,NA,NA,NA,NA,NA,2,50,60,40,60,50,60,Warranty,Cooking power,d
52,choice_trial,69,111619,0.0-4.0-1.32,1,"Mozilla/5.0 (Windows NT 10.0; Win64; x64) AppleWebKit/537.36 (KHTML, like Gecko) Chrome/135.0.0.0 Safari/537.36",WebKit,Chrome,yykenlvdjywclb0,Male,NA,No,198180.79999995232,NA,3.179,NA,C,choice,ctd,trinary,repulsion_B,1,laptops,NA,NA,NA,NA,NA,NA,1,90,100,80,40,30,40,Processing speed,Memory (RAM),d
52,choice_trial,71,113432,0.0-4.0-1.33,1,"Mozilla/5.0 (Windows NT 10.0; Win64; x64) AppleWebKit/537.36 (KHTML, like Gecko) Chrome/135.0.0.0 Safari/537.36",WebKit,Chrome,yykenlvdjywclb0,Male,NA,No,198180.79999995232,NA,1.505,NA,B,choice,wwb,trinary,catch,NA,microwave ovens,75,75,10,10,35,10,2,NA,NA,NA,NA,NA,NA,Warranty,Cooking power,w
52,choice_trial,73,115330,0.0-4.0-1.34,1,"Mozilla/5.0 (Windows NT 10.0; Win64; x64) AppleWebKit/537.36 (KHTML, like Gecko) Chrome/135.0.0.0 Safari/537.36",WebKit,Chrome,yykenlvdjywclb0,Male,NA,No,198180.79999995232,NA,1.589,NA,C,choice,tcd,trinary,attraction,2,televisions,NA,NA,NA,NA,NA,NA,2,50,60,40,60,50,60,Screen size,Average lifespan,d
52,choice_trial,75,116883,0.0-4.0-1.35,1,"Mozilla/5.0 (Windows NT 10.0; Win64; x64) AppleWebKit/537.36 (KHTML, like Gecko) Chrome/135.0.0.0 Safari/537.36",WebKit,Chrome,yykenlvdjywclb0,Male,NA,No,198180.79999995232,NA,1.246,NA,B,choice,bww,trinary,catch,NA,televisions,85,65,10,10,20,10,1,NA,NA,NA,NA,NA,NA,Screen size,Average lifespan,w
52,choice_trial,77,119117,0.0-4.0-1.36,1,"Mozilla/5.0 (Windows NT 10.0; Win64; x64) AppleWebKit/537.36 (KHTML, like Gecko) Chrome/135.0.0.0 Safari/537.36",WebKit,Chrome,yykenlvdjywclb0,Male,NA,No,198180.79999995232,NA,1.922,NA,A,choice,ctd,trinary,repulsion_B,2,washing machines,NA,NA,NA,NA,NA,NA,2,40,30,40,90,100,80,Average lifespan,Energy savings,c
52,choice_trial,79,121219,0.0-4.0-1.37,1,"Mozilla/5.0 (Windows NT 10.0; Win64; x64) AppleWebKit/537.36 (KHTML, like Gecko) Chrome/135.0.0.0 Safari/537.36",WebKit,Chrome,yykenlvdjywclb0,Male,NA,No,198180.79999995232,NA,1.784,NA,C,choice,cdt,trinary,repulsion_B,2,microwave ovens,NA,NA,NA,NA,NA,NA,1,40,30,40,90,100,80,Warranty,Cooking power,t
52,choice_trial,81,125080,0.0-4.0-1.38,1,"Mozilla/5.0 (Windows NT 10.0; Win64; x64) AppleWebKit/537.36 (KHTML, like Gecko) Chrome/135.0.0.0 Safari/537.36",WebKit,Chrome,yykenlvdjywclb0,Male,NA,No,198180.79999995232,NA,3.552,NA,B,choice,ctd,trinary,attraction,1,televisions,NA,NA,NA,NA,NA,NA,1,60,50,60,50,60,40,Screen size,Average lifespan,t
52,choice_trial,83,127988,0.0-4.0-1.39,1,"Mozilla/5.0 (Windows NT 10.0; Win64; x64) AppleWebKit/537.36 (KHTML, like Gecko) Chrome/135.0.0.0 Safari/537.36",WebKit,Chrome,yykenlvdjywclb0,Male,NA,No,198180.79999995232,NA,2.598,NA,A,choice,tc,binary,repulsion,2,washing machines,NA,NA,NA,NA,NA,NA,2,30,40,NA,100,90,NA,Average lifespan,Energy savings,t
52,choice_trial,85,133218,0.0-4.0-1.40,1,"Mozilla/5.0 (Windows NT 10.0; Win64; x64) AppleWebKit/537.36 (KHTML, like Gecko) Chrome/135.0.0.0 Safari/537.36",WebKit,Chrome,yykenlvdjywclb0,Male,NA,No,198180.79999995232,NA,4.915,NA,C,choice,tdc,trinary,attraction,1,microwave ovens,NA,NA,NA,NA,NA,NA,1,60,50,60,50,60,40,Warranty,Cooking power,c
52,choice_trial,87,135547,0.0-4.0-1.41,1,"Mozilla/5.0 (Windows NT 10.0; Win64; x64) AppleWebKit/537.36 (KHTML, like Gecko) Chrome/135.0.0.0 Safari/537.36",WebKit,Chrome,yykenlvdjywclb0,Male,NA,No,198180.79999995232,NA,2.017,NA,B,choice,tc,binary,repulsion,2,microwave ovens,NA,NA,NA,NA,NA,NA,1,30,40,NA,100,90,NA,Warranty,Cooking power,c
52,choice_trial,89,139083,0.0-4.0-1.42,1,"Mozilla/5.0 (Windows NT 10.0; Win64; x64) AppleWebKit/537.36 (KHTML, like Gecko) Chrome/135.0.0.0 Safari/537.36",WebKit,Chrome,yykenlvdjywclb0,Male,NA,No,198180.79999995232,NA,3.224,NA,B,choice,ctd,trinary,repulsion_A,1,washing machines,NA,NA,NA,NA,NA,NA,1,100,90,100,30,40,20,Average lifespan,Energy savings,t
52,choice_trial,91,142036,0.0-4.0-1.43,1,"Mozilla/5.0 (Windows NT 10.0; Win64; x64) AppleWebKit/537.36 (KHTML, like Gecko) Chrome/135.0.0.0 Safari/537.36",WebKit,Chrome,yykenlvdjywclb0,Male,NA,No,198180.79999995232,NA,2.624,NA,B,choice,ctd,trinary,repulsion_B,1,televisions,NA,NA,NA,NA,NA,NA,2,90,100,80,40,30,40,Screen size,Average lifespan,t
54,choice_trial,5,55794,0.0-4.0-1.0,1,"Mozilla/5.0 (Windows NT 10.0; Win64; x64) AppleWebKit/537.36 (KHTML, like Gecko) Chrome/135.0.0.0 Safari/537.36",WebKit,Chrome,51kag1qkq6nnmdl,Female,NA,I'm not sure,421935.60000014305,NA,11.435,NA,C,choice,dct,trinary,repulsion_B,2,microwave ovens,NA,NA,NA,NA,NA,NA,2,40,30,40,90,100,80,Warranty,Cooking power,t
54,choice_trial,7,73594,0.0-4.0-1.1,1,"Mozilla/5.0 (Windows NT 10.0; Win64; x64) AppleWebKit/537.36 (KHTML, like Gecko) Chrome/135.0.0.0 Safari/537.36",WebKit,Chrome,51kag1qkq6nnmdl,Female,NA,I'm not sure,421935.60000014305,NA,17.482,NA,B,choice,ctd,trinary,attraction,2,laptops,NA,NA,NA,NA,NA,NA,2,50,60,40,60,50,60,Processing speed,Memory (RAM),t
54,choice_trial,9,92117,0.0-4.0-1.2,1,"Mozilla/5.0 (Windows NT 10.0; Win64; x64) AppleWebKit/537.36 (KHTML, like Gecko) Chrome/135.0.0.0 Safari/537.36",WebKit,Chrome,51kag1qkq6nnmdl,Female,NA,I'm not sure,421935.60000014305,NA,18.202,NA,A,choice,tdc,trinary,attraction,2,televisions,NA,NA,NA,NA,NA,NA,1,50,60,40,60,50,60,Screen size,Average lifespan,t
54,choice_trial,11,98941,0.0-4.0-1.3,1,"Mozilla/5.0 (Windows NT 10.0; Win64; x64) AppleWebKit/537.36 (KHTML, like Gecko) Chrome/135.0.0.0 Safari/537.36",WebKit,Chrome,51kag1qkq6nnmdl,Female,NA,I'm not sure,421935.60000014305,NA,6.516,NA,A,choice,bw,binary,catch,NA,laptops,70,70,30,50,NA,NA,1,NA,NA,NA,NA,NA,NA,Processing speed,Memory (RAM),b
54,choice_trial,13,107544,0.0-4.0-1.4,1,"Mozilla/5.0 (Windows NT 10.0; Win64; x64) AppleWebKit/537.36 (KHTML, like Gecko) Chrome/135.0.0.0 Safari/537.36",WebKit,Chrome,51kag1qkq6nnmdl,Female,NA,I'm not sure,421935.60000014305,NA,8.291,NA,A,choice,ctd,trinary,repulsion_A,2,laptops,NA,NA,NA,NA,NA,NA,2,30,40,20,100,90,100,Processing speed,Memory (RAM),c
54,choice_trial,15,115820,0.0-4.0-1.5,1,"Mozilla/5.0 (Windows NT 10.0; Win64; x64) AppleWebKit/537.36 (KHTML, like Gecko) Chrome/135.0.0.0 Safari/537.36",WebKit,Chrome,51kag1qkq6nnmdl,Female,NA,I'm not sure,421935.60000014305,NA,7.967,NA,B,choice,ctd,trinary,attraction,1,washing machines,NA,NA,NA,NA,NA,NA,1,60,50,60,50,60,40,Average lifespan,Energy savings,t
54,choice_trial,17,187794,0.0-4.0-1.6,1,"Mozilla/5.0 (Windows NT 10.0; Win64; x64) AppleWebKit/537.36 (KHTML, like Gecko) Chrome/135.0.0.0 Safari/537.36",WebKit,Chrome,51kag1qkq6nnmdl,Female,NA,I'm not sure,421935.60000014305,NA,71.665,NA,B,choice,tc,binary,repulsion,2,microwave ovens,NA,NA,NA,NA,NA,NA,1,30,40,NA,100,90,NA,Warranty,Cooking power,c
54,choice_trial,19,193551,0.0-4.0-1.7,1,"Mozilla/5.0 (Windows NT 10.0; Win64; x64) AppleWebKit/537.36 (KHTML, like Gecko) Chrome/135.0.0.0 Safari/537.36",WebKit,Chrome,51kag1qkq6nnmdl,Female,NA,I'm not sure,421935.60000014305,NA,5.448,NA,A,choice,tc,binary,attraction,NA,washing machines,NA,NA,NA,NA,NA,NA,1,60,50,NA,50,60,NA,Average lifespan,Energy savings,t
54,choice_trial,21,196602,0.0-4.0-1.8,1,"Mozilla/5.0 (Windows NT 10.0; Win64; x64) AppleWebKit/537.36 (KHTML, like Gecko) Chrome/135.0.0.0 Safari/537.36",WebKit,Chrome,51kag1qkq6nnmdl,Female,NA,I'm not sure,421935.60000014305,NA,2.737,NA,A,choice,bw,binary,catch,NA,washing machines,90,90,15,20,NA,NA,1,NA,NA,NA,NA,NA,NA,Average lifespan,Energy savings,b
54,choice_trial,23,202504,0.0-4.0-1.9,1,"Mozilla/5.0 (Windows NT 10.0; Win64; x64) AppleWebKit/537.36 (KHTML, like Gecko) Chrome/135.0.0.0 Safari/537.36",WebKit,Chrome,51kag1qkq6nnmdl,Female,NA,I'm not sure,421935.60000014305,NA,5.587,NA,C,choice,cdt,trinary,repulsion_B,1,washing machines,NA,NA,NA,NA,NA,NA,1,90,100,80,40,30,40,Average lifespan,Energy savings,t
54,choice_trial,25,208809,0.0-4.0-1.10,1,"Mozilla/5.0 (Windows NT 10.0; Win64; x64) AppleWebKit/537.36 (KHTML, like Gecko) Chrome/135.0.0.0 Safari/537.36",WebKit,Chrome,51kag1qkq6nnmdl,Female,NA,I'm not sure,421935.60000014305,NA,5.992,NA,B,choice,ctd,trinary,repulsion_B,1,laptops,NA,NA,NA,NA,NA,NA,2,90,100,80,40,30,40,Processing speed,Memory (RAM),t
54,choice_trial,27,212796,0.0-4.0-1.11,1,"Mozilla/5.0 (Windows NT 10.0; Win64; x64) AppleWebKit/537.36 (KHTML, like Gecko) Chrome/135.0.0.0 Safari/537.36",WebKit,Chrome,51kag1qkq6nnmdl,Female,NA,I'm not sure,421935.60000014305,NA,3.674,NA,A,choice,bww,trinary,catch,NA,televisions,95,80,25,25,10,50,2,NA,NA,NA,NA,NA,NA,Screen size,Average lifespan,b
54,choice_trial,29,216592,0.0-4.0-1.12,1,"Mozilla/5.0 (Windows NT 10.0; Win64; x64) AppleWebKit/537.36 (KHTML, like Gecko) Chrome/135.0.0.0 Safari/537.36",WebKit,Chrome,51kag1qkq6nnmdl,Female,NA,I'm not sure,421935.60000014305,NA,3.487,NA,B,choice,tc,binary,repulsion,1,televisions,NA,NA,NA,NA,NA,NA,1,100,90,NA,30,40,NA,Screen size,Average lifespan,c
54,choice_trial,31,221133,0.0-4.0-1.13,1,"Mozilla/5.0 (Windows NT 10.0; Win64; x64) AppleWebKit/537.36 (KHTML, like Gecko) Chrome/135.0.0.0 Safari/537.36",WebKit,Chrome,51kag1qkq6nnmdl,Female,NA,I'm not sure,421935.60000014305,NA,4.233,NA,A,choice,tcd,trinary,repulsion_B,2,laptops,NA,NA,NA,NA,NA,NA,1,40,30,40,90,100,80,Processing speed,Memory (RAM),t
54,choice_trial,33,227255,0.0-4.0-1.14,1,"Mozilla/5.0 (Windows NT 10.0; Win64; x64) AppleWebKit/537.36 (KHTML, like Gecko) Chrome/135.0.0.0 Safari/537.36",WebKit,Chrome,51kag1qkq6nnmdl,Female,NA,I'm not sure,421935.60000014305,NA,5.802,NA,A,choice,tdc,trinary,attraction,2,microwave ovens,NA,NA,NA,NA,NA,NA,2,50,60,40,60,50,60,Warranty,Cooking power,t
