"success","timeout","failed_images","failed_audio","failed_video","screen_id","trial_type","trial_index","time_elapsed","internal_node_id","run_id","condition","recorded_at","source_code_version","ip","user_agent","device","browser","browser_version","platform","platform_version","referer","accept_language","ppt_id","final_score","age","race","ethnicity","gender","exp_duration","rt","view_history","stimulus","response","phase","order","effect","t_high","category","d1_best","d2_best","d1_worst1","d2_worst1","d1_worst2","d2_worst2","first_dim","d1_t","d1_c","d1_d","d2_t","d2_c","d2_d","d1_name","d2_name","strategy_response","trialType","question_order"
"true","false","[]","[]","[]","img preload","preload","0","213","0.0-0.0","16","1","2025-04-10 18:47:00","7bd189e8e4882776c700e1dae255cdf5","","Mozilla/5.0 (Macintosh; Intel Mac OS X 10_15_7) AppleWebKit/605.1.15 (KHTML, like Gecko) Version/18.3.1 Safari/605.1.15","Macintosh","Safari","18.3.1","OS X","10_15_7","https://hz8g1ckzuq.cognition.run/","en-US,en;q=0.9","c11eg8xcv4fvry8","","55","[""Black or African-American""]","No","Female","2077401","","","","","","","","","","","","","","","","","","","","","","","","","","",""
"true","","","","","","fullscreen","1","5064","0.0-1.0","16","1","2025-04-10 18:47:00","7bd189e8e4882776c700e1dae255cdf5","","Mozilla/5.0 (Macintosh; Intel Mac OS X 10_15_7) AppleWebKit/605.1.15 (KHTML, like Gecko) Version/18.3.1 Safari/605.1.15","Macintosh","Safari","18.3.1","OS X","10_15_7","https://hz8g1ckzuq.cognition.run/","en-US,en;q=0.9","c11eg8xcv4fvry8","","55","[""Black or African-American""]","No","Female","2077401","3844","","","","","","","","","","","","","","","","","","","","","","","","","",""
"","","","","","","instructions","2","241964","0.0-2.0","16","1","2025-04-10 18:47:00","7bd189e8e4882776c700e1dae255cdf5","","Mozilla/5.0 (Macintosh; Intel Mac OS X 10_15_7) AppleWebKit/605.1.15 (KHTML, like Gecko) Version/18.3.1 Safari/605.1.15","Macintosh","Safari","18.3.1","OS X","10_15_7","https://hz8g1ckzuq.cognition.run/","en-US,en;q=0.9","c11eg8xcv4fvry8","","55","[""Black or African-American""]","No","Female","2077401","236900","[{""page_index"":0,""viewing_time"":11131},{""page_index"":1,""viewing_time"":7198},{""page_index"":2,""viewing_time"":7632},{""page_index"":3,""viewing_time"":15744},{""page_index"":4,""viewing_time"":30895},{""page_index"":5,""viewing_time"":8756},{""page_index"":6,""viewing_time"":13030},{""page_index"":7,""viewing_time"":118673},{""page_index"":8,""viewing_time"":15663},{""page_index"":9,""viewing_time"":8175}]","","","","","","","","","","","","","","","","","","","","","","","","",""
"","","","","","rating_trial_setup","html-keyboard-response","3","242279","0.0-3.0-0.0","16","1","2025-04-10 18:47:00","7bd189e8e4882776c700e1dae255cdf5","","Mozilla/5.0 (Macintosh; Intel Mac OS X 10_15_7) AppleWebKit/605.1.15 (KHTML, like Gecko) Version/18.3.1 Safari/605.1.15","Macintosh","Safari","18.3.1","OS X","10_15_7","https://hz8g1ckzuq.cognition.run/","en-US,en;q=0.9","c11eg8xcv4fvry8","","55","[""Black or African-American""]","No","Female","2077401","null","","<p></p>","null","rating","dtc","attraction_2","1","televisions","null","null","null","null","null","null","2","","","","","","","","","","",""
"","","","","","rating_trial","survey-html-form","4","300464","0.0-3.0-1.0","16","1","2025-04-10 18:47:00","7bd189e8e4882776c700e1dae255cdf5","","Mozilla/5.0 (Macintosh; Intel Mac OS X 10_15_7) AppleWebKit/605.1.15 (KHTML, like Gecko) Version/18.3.1 Safari/605.1.15","Macintosh","Safari","18.3.1","OS X","10_15_7","https://hz8g1ckzuq.cognition.run/","en-US,en;q=0.9","c11eg8xcv4fvry8","","55","[""Black or African-American""]","No","Female","2077401","58163","","","{""price_1"":""159"",""price_2"":""199"",""price_3"":""179""}","rating","dtc","attraction_2","1","televisions","null","null","null","null","null","null","2","60","50","60","50","60","40","Screen size","Average lifespan","","",""
"","","","","","rating_trial_setup","html-keyboard-response","5","300769","0.0-3.0-0.1","16","1","2025-04-10 18:47:00","7bd189e8e4882776c700e1dae255cdf5","","Mozilla/5.0 (Macintosh; Intel Mac OS X 10_15_7) AppleWebKit/605.1.15 (KHTML, like Gecko) Version/18.3.1 Safari/605.1.15","Macintosh","Safari","18.3.1","OS X","10_15_7","https://hz8g1ckzuq.cognition.run/","en-US,en;q=0.9","c11eg8xcv4fvry8","","55","[""Black or African-American""]","No","Female","2077401","null","","<p></p>","null","rating","bww","catch","null","televisions","70","60","20","45","5","10","2","","","","","","","","","","",""
"","","","","","rating_trial","survey-html-form","6","363486","0.0-3.0-1.1","16","1","2025-04-10 18:47:00","7bd189e8e4882776c700e1dae255cdf5","","Mozilla/5.0 (Macintosh; Intel Mac OS X 10_15_7) AppleWebKit/605.1.15 (KHTML, like Gecko) Version/18.3.1 Safari/605.1.15","Macintosh","Safari","18.3.1","OS X","10_15_7","https://hz8g1ckzuq.cognition.run/","en-US,en;q=0.9","c11eg8xcv4fvry8","","55","[""Black or African-American""]","No","Female","2077401","62711","","","{""price_1"":""175"",""price_2"":""69"",""price_3"":""39""}","rating","bww","catch","null","televisions","70","60","20","45","5","10","2","null","null","null","null","null","null","Screen size","Average lifespan","","",""
"","","","","","rating_trial_setup","html-keyboard-response","7","363793","0.0-3.0-0.2","16","1","2025-04-10 18:47:00","7bd189e8e4882776c700e1dae255cdf5","","Mozilla/5.0 (Macintosh; Intel Mac OS X 10_15_7) AppleWebKit/605.1.15 (KHTML, like Gecko) Version/18.3.1 Safari/605.1.15","Macintosh","Safari","18.3.1","OS X","10_15_7","https://hz8g1ckzuq.cognition.run/","en-US,en;q=0.9","c11eg8xcv4fvry8","","55","[""Black or African-American""]","No","Female","2077401","null","","<p></p>","null","rating","wbw","catch","null","washing machines","75","80","5","15","40","40","2","","","","","","","","","","",""
"","","","","","rating_trial","survey-html-form","8","398191","0.0-3.0-1.2","16","1","2025-04-10 18:47:00","7bd189e8e4882776c700e1dae255cdf5","","Mozilla/5.0 (Macintosh; Intel Mac OS X 10_15_7) AppleWebKit/605.1.15 (KHTML, like Gecko) Version/18.3.1 Safari/605.1.15","Macintosh","Safari","18.3.1","OS X","10_15_7","https://hz8g1ckzuq.cognition.run/","en-US,en;q=0.9","c11eg8xcv4fvry8","","55","[""Black or African-American""]","No","Female","2077401","34388","","","{""price_1"":""29"",""price_2"":""259"",""price_3"":""69""}","rating","wbw","catch","null","washing machines","75","80","5","15","40","40","2","null","null","null","null","null","null","Average lifespan","Energy savings","","",""
"","","","","","rating_trial_setup","html-keyboard-response","9","398494","0.0-3.0-0.3","16","1","2025-04-10 18:47:00","7bd189e8e4882776c700e1dae255cdf5","","Mozilla/5.0 (Macintosh; Intel Mac OS X 10_15_7) AppleWebKit/605.1.15 (KHTML, like Gecko) Version/18.3.1 Safari/605.1.15","Macintosh","Safari","18.3.1","OS X","10_15_7","https://hz8g1ckzuq.cognition.run/","en-US,en;q=0.9","c11eg8xcv4fvry8","","55","[""Black or African-American""]","No","Female","2077401","null","","<p></p>","null","rating","dct","repulsion_1","2","laptops","null","null","null","null","null","null","1","","","","","","","","","","",""
"","","","","","rating_trial","survey-html-form","10","444100","0.0-3.0-1.3","16","1","2025-04-10 18:47:00","7bd189e8e4882776c700e1dae255cdf5","","Mozilla/5.0 (Macintosh; Intel Mac OS X 10_15_7) AppleWebKit/605.1.15 (KHTML, like Gecko) Version/18.3.1 Safari/605.1.15","Macintosh","Safari","18.3.1","OS X","10_15_7","https://hz8g1ckzuq.cognition.run/","en-US,en;q=0.9","c11eg8xcv4fvry8","","55","[""Black or African-American""]","No","Female","2077401","45602","","","{""price_1"":""229"",""price_2"":""219"",""price_3"":""200""}","rating","dct","repulsion_1","2","laptops","null","null","null","null","null","null","1","30","40","25","100","90","100","Processing speed","Memory (RAM)","","",""
"","","","","","rating_trial_setup","html-keyboard-response","11","444403","0.0-3.0-0.4","16","1","2025-04-10 18:47:00","7bd189e8e4882776c700e1dae255cdf5","","Mozilla/5.0 (Macintosh; Intel Mac OS X 10_15_7) AppleWebKit/605.1.15 (KHTML, like Gecko) Version/18.3.1 Safari/605.1.15","Macintosh","Safari","18.3.1","OS X","10_15_7","https://hz8g1ckzuq.cognition.run/","en-US,en;q=0.9","c11eg8xcv4fvry8","","55","[""Black or African-American""]","No","Female","2077401","null","","<p></p>","null","rating","tdc","repulsion_1","1","laptops","null","null","null","null","null","null","1","","","","","","","","","","",""
"","","","","","rating_trial","survey-html-form","12","490518","0.0-3.0-1.4","16","1","2025-04-10 18:47:00","7bd189e8e4882776c700e1dae255cdf5","","Mozilla/5.0 (Macintosh; Intel Mac OS X 10_15_7) AppleWebKit/605.1.15 (KHTML, like Gecko) Version/18.3.1 Safari/605.1.15","Macintosh","Safari","18.3.1","OS X","10_15_7","https://hz8g1ckzuq.cognition.run/","en-US,en;q=0.9","c11eg8xcv4fvry8","","55","[""Black or African-American""]","No","Female","2077401","46114","","","{""price_1"":""179"",""price_2"":""169"",""price_3"":""149""}","rating","tdc","repulsion_1","1","laptops","null","null","null","null","null","null","1","100","90","100","30","40","25","Processing speed","Memory (RAM)","","",""
"","","","","","rating_trial_setup","html-keyboard-response","13","490822","0.0-3.0-0.5","16","1","2025-04-10 18:47:00","7bd189e8e4882776c700e1dae255cdf5","","Mozilla/5.0 (Macintosh; Intel Mac OS X 10_15_7) AppleWebKit/605.1.15 (KHTML, like Gecko) Version/18.3.1 Safari/605.1.15","Macintosh","Safari","18.3.1","OS X","10_15_7","https://hz8g1ckzuq.cognition.run/","en-US,en;q=0.9","c11eg8xcv4fvry8","","55","[""Black or African-American""]","No","Female","2077401","null","","<p></p>","null","rating","dtc","repulsion_2","1","televisions","null","null","null","null","null","null","2","","","","","","","","","","",""
"","","","","","rating_trial","survey-html-form","14","517194","0.0-3.0-1.5","16","1","2025-04-10 18:47:00","7bd189e8e4882776c700e1dae255cdf5","","Mozilla/5.0 (Macintosh; Intel Mac OS X 10_15_7) AppleWebKit/605.1.15 (KHTML, like Gecko) Version/18.3.1 Safari/605.1.15","Macintosh","Safari","18.3.1","OS X","10_15_7","https://hz8g1ckzuq.cognition.run/","en-US,en;q=0.9","c11eg8xcv4fvry8","","55","[""Black or African-American""]","No","Female","2077401","26370","","","{""price_1"":""59"",""price_2"":""49"",""price_3"":""44""}","rating","dtc","repulsion_2","1","televisions","null","null","null","null","null","null","2","100","90","100","30","40","20","Screen size","Average lifespan","","",""
"","","","","","rating_trial_setup","html-keyboard-response","15","517500","0.0-3.0-0.6","16","1","2025-04-10 18:47:00","7bd189e8e4882776c700e1dae255cdf5","","Mozilla/5.0 (Macintosh; Intel Mac OS X 10_15_7) AppleWebKit/605.1.15 (KHTML, like Gecko) Version/18.3.1 Safari/605.1.15","Macintosh","Safari","18.3.1","OS X","10_15_7","https://hz8g1ckzuq.cognition.run/","en-US,en;q=0.9","c11eg8xcv4fvry8","","55","[""Black or African-American""]","No","Female","2077401","null","","<p></p>","null","rating","tdc","repulsion_1","2","televisions","null","null","null","null","null","null","1","","","","","","","","","","",""
"","","","","","rating_trial","survey-html-form","16","557629","0.0-3.0-1.6","16","1","2025-04-10 18:47:00","7bd189e8e4882776c700e1dae255cdf5","","Mozilla/5.0 (Macintosh; Intel Mac OS X 10_15_7) AppleWebKit/605.1.15 (KHTML, like Gecko) Version/18.3.1 Safari/605.1.15","Macintosh","Safari","18.3.1","OS X","10_15_7","https://hz8g1ckzuq.cognition.run/","en-US,en;q=0.9","c11eg8xcv4fvry8","","55","[""Black or African-American""]","No","Female","2077401","40126","","","{""price_1"":""49"",""price_2"":""44"",""price_3"":""40""}","rating","tdc","repulsion_1","2","televisions","null","null","null","null","null","null","1","30","40","25","100","90","100","Screen size","Average lifespan","","",""
"","","","","","rating_trial_setup","html-keyboard-response","17","557932","0.0-3.0-0.7","16","1","2025-04-10 18:47:00","7bd189e8e4882776c700e1dae255cdf5","","Mozilla/5.0 (Macintosh; Intel Mac OS X 10_15_7) AppleWebKit/605.1.15 (KHTML, like Gecko) Version/18.3.1 Safari/605.1.15","Macintosh","Safari","18.3.1","OS X","10_15_7","https://hz8g1ckzuq.cognition.run/","en-US,en;q=0.9","c11eg8xcv4fvry8","","55","[""Black or African-American""]","No","Female","2077401","null","","<p></p>","null","rating","ctd","repulsion_1","1","microwave ovens","null","null","null","null","null","null","1","","","","","","","","","","",""
"","","","","","rating_trial","survey-html-form","18","595787","0.0-3.0-1.7","16","1","2025-04-10 18:47:00","7bd189e8e4882776c700e1dae255cdf5","","Mozilla/5.0 (Macintosh; Intel Mac OS X 10_15_7) AppleWebKit/605.1.15 (KHTML, like Gecko) Version/18.3.1 Safari/605.1.15","Macintosh","Safari","18.3.1","OS X","10_15_7","https://hz8g1ckzuq.cognition.run/","en-US,en;q=0.9","c11eg8xcv4fvry8","","55","[""Black or African-American""]","No","Female","2077401","37853","","","{""price_1"":""59"",""price_2"":""49"",""price_3"":""39""}","rating","ctd","repulsion_1","1","microwave ovens","null","null","null","null","null","null","1","100","90","100","30","40","25","Warranty","Cooking power","","",""
"","","","","","rating_trial_setup","html-keyboard-response","19","596091","0.0-3.0-0.8","16","1","2025-04-10 18:47:00","7bd189e8e4882776c700e1dae255cdf5","","Mozilla/5.0 (Macintosh; Intel Mac OS X 10_15_7) AppleWebKit/605.1.15 (KHTML, like Gecko) Version/18.3.1 Safari/605.1.15","Macintosh","Safari","18.3.1","OS X","10_15_7","https://hz8g1ckzuq.cognition.run/","en-US,en;q=0.9","c11eg8xcv4fvry8","","55","[""Black or African-American""]","No","Female","2077401","null","","<p></p>","null","rating","tdc","attraction_2","1","microwave ovens","null","null","null","null","null","null","2","","","","","","","","","","",""
"","","","","","rating_trial","survey-html-form","20","615008","0.0-3.0-1.8","16","1","2025-04-10 18:47:00","7bd189e8e4882776c700e1dae255cdf5","","Mozilla/5.0 (Macintosh; Intel Mac OS X 10_15_7) AppleWebKit/605.1.15 (KHTML, like Gecko) Version/18.3.1 Safari/605.1.15","Macintosh","Safari","18.3.1","OS X","10_15_7","https://hz8g1ckzuq.cognition.run/","en-US,en;q=0.9","c11eg8xcv4fvry8","","55","[""Black or African-American""]","No","Female","2077401","18908","","","{""price_1"":""40"",""price_2"":""30"",""price_3"":""28""}","rating","tdc","attraction_2","1","microwave ovens","null","null","null","null","null","null","2","60","50","60","50","60","40","Warranty","Cooking power","","",""
"","","","","","rating_trial_setup","html-keyboard-response","21","615311","0.0-3.0-0.9","16","1","2025-04-10 18:47:00","7bd189e8e4882776c700e1dae255cdf5","","Mozilla/5.0 (Macintosh; Intel Mac OS X 10_15_7) AppleWebKit/605.1.15 (KHTML, like Gecko) Version/18.3.1 Safari/605.1.15","Macintosh","Safari","18.3.1","OS X","10_15_7","https://hz8g1ckzuq.cognition.run/","en-US,en;q=0.9","c11eg8xcv4fvry8","","55","[""Black or African-American""]","No","Female","2077401","null","","<p></p>","null","rating","dct","repulsion_2","2","televisions","null","null","null","null","null","null","2","","","","","","","","","","",""
"","","","","","rating_trial","survey-html-form","22","670466","0.0-3.0-1.9","16","1","2025-04-10 18:47:00","7bd189e8e4882776c700e1dae255cdf5","","Mozilla/5.0 (Macintosh; Intel Mac OS X 10_15_7) AppleWebKit/605.1.15 (KHTML, like Gecko) Version/18.3.1 Safari/605.1.15","Macintosh","Safari","18.3.1","OS X","10_15_7","https://hz8g1ckzuq.cognition.run/","en-US,en;q=0.9","c11eg8xcv4fvry8","","55","[""Black or African-American""]","No","Female","2077401","55153","","","{""price_1"":""30"",""price_2"":""35"",""price_3"":""40""}","rating","dct","repulsion_2","2","televisions","null","null","null","null","null","null","2","30","40","20","100","90","100","Screen size","Average lifespan","","",""
"","","","","","rating_trial_setup","html-keyboard-response","23","670770","0.0-3.0-0.10","16","1","2025-04-10 18:47:00","7bd189e8e4882776c700e1dae255cdf5","","Mozilla/5.0 (Macintosh; Intel Mac OS X 10_15_7) AppleWebKit/605.1.15 (KHTML, like Gecko) Version/18.3.1 Safari/605.1.15","Macintosh","Safari","18.3.1","OS X","10_15_7","https://hz8g1ckzuq.cognition.run/","en-US,en;q=0.9","c11eg8xcv4fvry8","","55","[""Black or African-American""]","No","Female","2077401","null","","<p></p>","null","rating","cdt","repulsion_2","1","washing machines","null","null","null","null","null","null","2","","","","","","","","","","",""
"","","","","","rating_trial","survey-html-form","24","697594","0.0-3.0-1.10","16","1","2025-04-10 18:47:00","7bd189e8e4882776c700e1dae255cdf5","","Mozilla/5.0 (Macintosh; Intel Mac OS X 10_15_7) AppleWebKit/605.1.15 (KHTML, like Gecko) Version/18.3.1 Safari/605.1.15","Macintosh","Safari","18.3.1","OS X","10_15_7","https://hz8g1ckzuq.cognition.run/","en-US,en;q=0.9","c11eg8xcv4fvry8","","55","[""Black or African-American""]","No","Female","2077401","26821","","","{""price_1"":""230"",""price_2"":""180"",""price_3"":""165""}","rating","cdt","repulsion_2","1","washing machines","null","null","null","null","null","null","2","100","90","100","30","40","20","Average lifespan","Energy savings","","",""
"","","","","","rating_trial_setup","html-keyboard-response","25","697898","0.0-3.0-0.11","16","1","2025-04-10 18:47:00","7bd189e8e4882776c700e1dae255cdf5","","Mozilla/5.0 (Macintosh; Intel Mac OS X 10_15_7) AppleWebKit/605.1.15 (KHTML, like Gecko) Version/18.3.1 Safari/605.1.15","Macintosh","Safari","18.3.1","OS X","10_15_7","https://hz8g1ckzuq.cognition.run/","en-US,en;q=0.9","c11eg8xcv4fvry8","","55","[""Black or African-American""]","No","Female","2077401","null","","<p></p>","null","rating","tdc","attraction_1","2","laptops","null","null","null","null","null","null","2","","","","","","","","","","",""
"","","","","","rating_trial","survey-html-form","26","725600","0.0-3.0-1.11","16","1","2025-04-10 18:47:00","7bd189e8e4882776c700e1dae255cdf5","","Mozilla/5.0 (Macintosh; Intel Mac OS X 10_15_7) AppleWebKit/605.1.15 (KHTML, like Gecko) Version/18.3.1 Safari/605.1.15","Macintosh","Safari","18.3.1","OS X","10_15_7","https://hz8g1ckzuq.cognition.run/","en-US,en;q=0.9","c11eg8xcv4fvry8","","55","[""Black or African-American""]","No","Female","2077401","27698","","","{""price_1"":""150"",""price_2"":""140"",""price_3"":""155""}","rating","tdc","attraction_1","2","laptops","null","null","null","null","null","null","2","50","60","45","60","50","60","Processing speed","Memory (RAM)","","",""
"","","","","","rating_trial_setup","html-keyboard-response","27","725903","0.0-3.0-0.12","16","1","2025-04-10 18:47:00","7bd189e8e4882776c700e1dae255cdf5","","Mozilla/5.0 (Macintosh; Intel Mac OS X 10_15_7) AppleWebKit/605.1.15 (KHTML, like Gecko) Version/18.3.1 Safari/605.1.15","Macintosh","Safari","18.3.1","OS X","10_15_7","https://hz8g1ckzuq.cognition.run/","en-US,en;q=0.9","c11eg8xcv4fvry8","","55","[""Black or African-American""]","No","Female","2077401","null","","<p></p>","null","rating","tcd","attraction_1","1","televisions","null","null","null","null","null","null","1","","","","","","","","","","",""
"","","","","","rating_trial","survey-html-form","28","807107","0.0-3.0-1.12","16","1","2025-04-10 18:47:00","7bd189e8e4882776c700e1dae255cdf5","","Mozilla/5.0 (Macintosh; Intel Mac OS X 10_15_7) AppleWebKit/605.1.15 (KHTML, like Gecko) Version/18.3.1 Safari/605.1.15","Macintosh","Safari","18.3.1","OS X","10_15_7","https://hz8g1ckzuq.cognition.run/","en-US,en;q=0.9","c11eg8xcv4fvry8","","55","[""Black or African-American""]","No","Female","2077401","81202","","","{""price_1"":""135"",""price_2"":""130"",""price_3"":""125""}","rating","tcd","attraction_1","1","televisions","null","null","null","null","null","null","1","60","50","60","50","60","45","Screen size","Average lifespan","","",""
"","","","","","rating_trial_setup","html-keyboard-response","29","807412","0.0-3.0-0.13","16","1","2025-04-10 18:47:00","7bd189e8e4882776c700e1dae255cdf5","","Mozilla/5.0 (Macintosh; Intel Mac OS X 10_15_7) AppleWebKit/605.1.15 (KHTML, like Gecko) Version/18.3.1 Safari/605.1.15","Macintosh","Safari","18.3.1","OS X","10_15_7","https://hz8g1ckzuq.cognition.run/","en-US,en;q=0.9","c11eg8xcv4fvry8","","55","[""Black or African-American""]","No","Female","2077401","null","","<p></p>","null","rating","ctd","repulsion_2","1","laptops","null","null","null","null","null","null","2","","","","","","","","","","",""
"","","","","","rating_trial","survey-html-form","30","855936","0.0-3.0-1.13","16","1","2025-04-10 18:47:00","7bd189e8e4882776c700e1dae255cdf5","","Mozilla/5.0 (Macintosh; Intel Mac OS X 10_15_7) AppleWebKit/605.1.15 (KHTML, like Gecko) Version/18.3.1 Safari/605.1.15","Macintosh","Safari","18.3.1","OS X","10_15_7","https://hz8g1ckzuq.cognition.run/","en-US,en;q=0.9","c11eg8xcv4fvry8","","55","[""Black or African-American""]","No","Female","2077401","48518","","","{""price_1"":""150"",""price_2"":""155"",""price_3"":""145""}","rating","ctd","repulsion_2","1","laptops","null","null","null","null","null","null","2","100","90","100","30","40","20","Processing speed","Memory (RAM)","","",""
"","","","","","rating_trial_setup","html-keyboard-response","31","856242","0.0-3.0-0.14","16","1","2025-04-10 18:47:00","7bd189e8e4882776c700e1dae255cdf5","","Mozilla/5.0 (Macintosh; Intel Mac OS X 10_15_7) AppleWebKit/605.1.15 (KHTML, like Gecko) Version/18.3.1 Safari/605.1.15","Macintosh","Safari","18.3.1","OS X","10_15_7","https://hz8g1ckzuq.cognition.run/","en-US,en;q=0.9","c11eg8xcv4fvry8","","55","[""Black or African-American""]","No","Female","2077401","null","","<p></p>","null","rating","cdt","attraction_2","2","laptops","null","null","null","null","null","null","1","","","","","","","","","","",""
"","","","","","rating_trial","survey-html-form","32","883839","0.0-3.0-1.14","16","1","2025-04-10 18:47:00","7bd189e8e4882776c700e1dae255cdf5","","Mozilla/5.0 (Macintosh; Intel Mac OS X 10_15_7) AppleWebKit/605.1.15 (KHTML, like Gecko) Version/18.3.1 Safari/605.1.15","Macintosh","Safari","18.3.1","OS X","10_15_7","https://hz8g1ckzuq.cognition.run/","en-US,en;q=0.9","c11eg8xcv4fvry8","","55","[""Black or African-American""]","No","Female","2077401","27585","","","{""price_1"":""135"",""price_2"":""140"",""price_3"":""145""}","rating","cdt","attraction_2","2","laptops","null","null","null","null","null","null","1","50","60","40","60","50","60","Processing speed","Memory (RAM)","","",""
"","","","","","rating_trial_setup","html-keyboard-response","33","884144","0.0-3.0-0.15","16","1","2025-04-10 18:47:00","7bd189e8e4882776c700e1dae255cdf5","","Mozilla/5.0 (Macintosh; Intel Mac OS X 10_15_7) AppleWebKit/605.1.15 (KHTML, like Gecko) Version/18.3.1 Safari/605.1.15","Macintosh","Safari","18.3.1","OS X","10_15_7","https://hz8g1ckzuq.cognition.run/","en-US,en;q=0.9","c11eg8xcv4fvry8","","55","[""Black or African-American""]","No","Female","2077401","null","","<p></p>","null","rating","bww","catch","null","microwave ovens","95","50","5","30","35","45","1","","","","","","","","","","",""
"","","","","","rating_trial","survey-html-form","34","945109","0.0-3.0-1.15","16","1","2025-04-10 18:47:00","7bd189e8e4882776c700e1dae255cdf5","","Mozilla/5.0 (Macintosh; Intel Mac OS X 10_15_7) AppleWebKit/605.1.15 (KHTML, like Gecko) Version/18.3.1 Safari/605.1.15","Macintosh","Safari","18.3.1","OS X","10_15_7","https://hz8g1ckzuq.cognition.run/","en-US,en;q=0.9","c11eg8xcv4fvry8","","55","[""Black or African-American""]","No","Female","2077401","60963","","","{""price_1"":""85"",""price_2"":""25"",""price_3"":""35""}","rating","bww","catch","null","microwave ovens","95","50","5","30","35","45","1","null","null","null","null","null","null","Warranty","Cooking power","","",""
"","","","","","rating_trial_setup","html-keyboard-response","35","945412","0.0-3.0-0.16","16","1","2025-04-10 18:47:00","7bd189e8e4882776c700e1dae255cdf5","","Mozilla/5.0 (Macintosh; Intel Mac OS X 10_15_7) AppleWebKit/605.1.15 (KHTML, like Gecko) Version/18.3.1 Safari/605.1.15","Macintosh","Safari","18.3.1","OS X","10_15_7","https://hz8g1ckzuq.cognition.run/","en-US,en;q=0.9","c11eg8xcv4fvry8","","55","[""Black or African-American""]","No","Female","2077401","null","","<p></p>","null","rating","cdt","repulsion_1","1","televisions","null","null","null","null","null","null","2","","","","","","","","","","",""
"","","","","","rating_trial","survey-html-form","36","989662","0.0-3.0-1.16","16","1","2025-04-10 18:47:00","7bd189e8e4882776c700e1dae255cdf5","","Mozilla/5.0 (Macintosh; Intel Mac OS X 10_15_7) AppleWebKit/605.1.15 (KHTML, like Gecko) Version/18.3.1 Safari/605.1.15","Macintosh","Safari","18.3.1","OS X","10_15_7","https://hz8g1ckzuq.cognition.run/","en-US,en;q=0.9","c11eg8xcv4fvry8","","55","[""Black or African-American""]","No","Female","2077401","44239","","","{""price_1"":""65"",""price_2"":""60"",""price_3"":""63""}","rating","cdt","repulsion_1","1","televisions","null","null","null","null","null","null","2","100","90","100","30","40","25","Screen size","Average lifespan","","",""
"","","","","","rating_trial_setup","html-keyboard-response","37","989966","0.0-3.0-0.17","16","1","2025-04-10 18:47:00","7bd189e8e4882776c700e1dae255cdf5","","Mozilla/5.0 (Macintosh; Intel Mac OS X 10_15_7) AppleWebKit/605.1.15 (KHTML, like Gecko) Version/18.3.1 Safari/605.1.15","Macintosh","Safari","18.3.1","OS X","10_15_7","https://hz8g1ckzuq.cognition.run/","en-US,en;q=0.9","c11eg8xcv4fvry8","","55","[""Black or African-American""]","No","Female","2077401","null","","<p></p>","null","rating","dtc","attraction_1","2","microwave ovens","null","null","null","null","null","null","2","","","","","","","","","","",""
"","","","","","rating_trial","survey-html-form","38","1012960","0.0-3.0-1.17","16","1","2025-04-10 18:47:00","7bd189e8e4882776c700e1dae255cdf5","","Mozilla/5.0 (Macintosh; Intel Mac OS X 10_15_7) AppleWebKit/605.1.15 (KHTML, like Gecko) Version/18.3.1 Safari/605.1.15","Macintosh","Safari","18.3.1","OS X","10_15_7","https://hz8g1ckzuq.cognition.run/","en-US,en;q=0.9","c11eg8xcv4fvry8","","55","[""Black or African-American""]","No","Female","2077401","22990","","","{""price_1"":""55"",""price_2"":""57"",""price_3"":""60""}","rating","dtc","attraction_1","2","microwave ovens","null","null","null","null","null","null","2","50","60","45","60","50","60","Warranty","Cooking power","","",""
"","","","","","rating_trial_setup","html-keyboard-response","39","1013265","0.0-3.0-0.18","16","1","2025-04-10 18:47:00","7bd189e8e4882776c700e1dae255cdf5","","Mozilla/5.0 (Macintosh; Intel Mac OS X 10_15_7) AppleWebKit/605.1.15 (KHTML, like Gecko) Version/18.3.1 Safari/605.1.15","Macintosh","Safari","18.3.1","OS X","10_15_7","https://hz8g1ckzuq.cognition.run/","en-US,en;q=0.9","c11eg8xcv4fvry8","","55","[""Black or African-American""]","No","Female","2077401","null","","<p></p>","null","rating","bww","catch","null","laptops","65","80","5","5","35","20","2","","","","","","","","","","",""
"","","","","","rating_trial","survey-html-form","40","1035829","0.0-3.0-1.18","16","1","2025-04-10 18:47:00","7bd189e8e4882776c700e1dae255cdf5","","Mozilla/5.0 (Macintosh; Intel Mac OS X 10_15_7) AppleWebKit/605.1.15 (KHTML, like Gecko) Version/18.3.1 Safari/605.1.15","Macintosh","Safari","18.3.1","OS X","10_15_7","https://hz8g1ckzuq.cognition.run/","en-US,en;q=0.9","c11eg8xcv4fvry8","","55","[""Black or African-American""]","No","Female","2077401","22559","","","{""price_1"":""144"",""price_2"":""89"",""price_3"":""109""}","rating","bww","catch","null","laptops","65","80","5","5","35","20","2","null","null","null","null","null","null","Processing speed","Memory (RAM)","","",""
"","","","","","rating_trial_setup","html-keyboard-response","41","1036136","0.0-3.0-0.19","16","1","2025-04-10 18:47:00","7bd189e8e4882776c700e1dae255cdf5","","Mozilla/5.0 (Macintosh; Intel Mac OS X 10_15_7) AppleWebKit/605.1.15 (KHTML, like Gecko) Version/18.3.1 Safari/605.1.15","Macintosh","Safari","18.3.1","OS X","10_15_7","https://hz8g1ckzuq.cognition.run/","en-US,en;q=0.9","c11eg8xcv4fvry8","","55","[""Black or African-American""]","No","Female","2077401","null","","<p></p>","null","rating","dct","attraction_1","2","televisions","null","null","null","null","null","null","2","","","","","","","","","","",""
"","","","","","rating_trial","survey-html-form","42","1064328","0.0-3.0-1.19","16","1","2025-04-10 18:47:00","7bd189e8e4882776c700e1dae255cdf5","","Mozilla/5.0 (Macintosh; Intel Mac OS X 10_15_7) AppleWebKit/605.1.15 (KHTML, like Gecko) Version/18.3.1 Safari/605.1.15","Macintosh","Safari","18.3.1","OS X","10_15_7","https://hz8g1ckzuq.cognition.run/","en-US,en;q=0.9","c11eg8xcv4fvry8","","55","[""Black or African-American""]","No","Female","2077401","28190","","","{""price_1"":""56"",""price_2"":""61"",""price_3"":""62""}","rating","dct","attraction_1","2","televisions","null","null","null","null","null","null","2","50","60","45","60","50","60","Screen size","Average lifespan","","",""
"","","","","","rating_trial_setup","html-keyboard-response","43","1064632","0.0-3.0-0.20","16","1","2025-04-10 18:47:00","7bd189e8e4882776c700e1dae255cdf5","","Mozilla/5.0 (Macintosh; Intel Mac OS X 10_15_7) AppleWebKit/605.1.15 (KHTML, like Gecko) Version/18.3.1 Safari/605.1.15","Macintosh","Safari","18.3.1","OS X","10_15_7","https://hz8g1ckzuq.cognition.run/","en-US,en;q=0.9","c11eg8xcv4fvry8","","55","[""Black or African-American""]","No","Female","2077401","null","","<p></p>","null","rating","tdc","repulsion_2","1","microwave ovens","null","null","null","null","null","null","2","","","","","","","","","","",""
"","","","","","rating_trial","survey-html-form","44","1118734","0.0-3.0-1.20","16","1","2025-04-10 18:47:00","7bd189e8e4882776c700e1dae255cdf5","","Mozilla/5.0 (Macintosh; Intel Mac OS X 10_15_7) AppleWebKit/605.1.15 (KHTML, like Gecko) Version/18.3.1 Safari/605.1.15","Macintosh","Safari","18.3.1","OS X","10_15_7","https://hz8g1ckzuq.cognition.run/","en-US,en;q=0.9","c11eg8xcv4fvry8","","55","[""Black or African-American""]","No","Female","2077401","54097","","","{""price_1"":""63"",""price_2"":""61"",""price_3"":""66""}","rating","tdc","repulsion_2","1","microwave ovens","null","null","null","null","null","null","2","100","90","100","30","40","20","Warranty","Cooking power","","",""
"","","","","","rating_trial_setup","html-keyboard-response","45","1119038","0.0-3.0-0.21","16","1","2025-04-10 18:47:00","7bd189e8e4882776c700e1dae255cdf5","","Mozilla/5.0 (Macintosh; Intel Mac OS X 10_15_7) AppleWebKit/605.1.15 (KHTML, like Gecko) Version/18.3.1 Safari/605.1.15","Macintosh","Safari","18.3.1","OS X","10_15_7","https://hz8g1ckzuq.cognition.run/","en-US,en;q=0.9","c11eg8xcv4fvry8","","55","[""Black or African-American""]","No","Female","2077401","null","","<p></p>","null","rating","tcd","attraction_2","1","washing machines","null","null","null","null","null","null","1","","","","","","","","","","",""
"","","","","","rating_trial","survey-html-form","46","1158737","0.0-3.0-1.21","16","1","2025-04-10 18:47:00","7bd189e8e4882776c700e1dae255cdf5","","Mozilla/5.0 (Macintosh; Intel Mac OS X 10_15_7) AppleWebKit/605.1.15 (KHTML, like Gecko) Version/18.3.1 Safari/605.1.15","Macintosh","Safari","18.3.1","OS X","10_15_7","https://hz8g1ckzuq.cognition.run/","en-US,en;q=0.9","c11eg8xcv4fvry8","","55","[""Black or African-American""]","No","Female","2077401","39695","","","{""price_1"":""144"",""price_2"":""140"",""price_3"":""137""}","rating","tcd","attraction_2","1","washing machines","null","null","null","null","null","null","1","60","50","60","50","60","40","Average lifespan","Energy savings","","",""
"","","","","","rating_trial_setup","html-keyboard-response","47","1159041","0.0-3.0-0.22","16","1","2025-04-10 18:47:00","7bd189e8e4882776c700e1dae255cdf5","","Mozilla/5.0 (Macintosh; Intel Mac OS X 10_15_7) AppleWebKit/605.1.15 (KHTML, like Gecko) Version/18.3.1 Safari/605.1.15","Macintosh","Safari","18.3.1","OS X","10_15_7","https://hz8g1ckzuq.cognition.run/","en-US,en;q=0.9","c11eg8xcv4fvry8","","55","[""Black or African-American""]","No","Female","2077401","null","","<p></p>","null","rating","cdt","repulsion_1","1","washing machines","null","null","null","null","null","null","2","","","","","","","","","","",""
"","","","","","rating_trial","survey-html-form","48","1190299","0.0-3.0-1.22","16","1","2025-04-10 18:47:00","7bd189e8e4882776c700e1dae255cdf5","","Mozilla/5.0 (Macintosh; Intel Mac OS X 10_15_7) AppleWebKit/605.1.15 (KHTML, like Gecko) Version/18.3.1 Safari/605.1.15","Macintosh","Safari","18.3.1","OS X","10_15_7","https://hz8g1ckzuq.cognition.run/","en-US,en;q=0.9","c11eg8xcv4fvry8","","55","[""Black or African-American""]","No","Female","2077401","31254","","","{""price_1"":""99"",""price_2"":""89"",""price_3"":""99""}","rating","cdt","repulsion_1","1","washing machines","null","null","null","null","null","null","2","100","90","100","30","40","25","Average lifespan","Energy savings","","",""
"","","","","","rating_trial_setup","html-keyboard-response","49","1190603","0.0-3.0-0.23","16","1","2025-04-10 18:47:00","7bd189e8e4882776c700e1dae255cdf5","","Mozilla/5.0 (Macintosh; Intel Mac OS X 10_15_7) AppleWebKit/605.1.15 (KHTML, like Gecko) Version/18.3.1 Safari/605.1.15","Macintosh","Safari","18.3.1","OS X","10_15_7","https://hz8g1ckzuq.cognition.run/","en-US,en;q=0.9","c11eg8xcv4fvry8","","55","[""Black or African-American""]","No","Female","2077401","null","","<p></p>","null","rating","ctd","repulsion_2","2","laptops","null","null","null","null","null","null","2","","","","","","","","","","",""
"","","","","","rating_trial","survey-html-form","50","1211994","0.0-3.0-1.23","16","1","2025-04-10 18:47:00","7bd189e8e4882776c700e1dae255cdf5","","Mozilla/5.0 (Macintosh; Intel Mac OS X 10_15_7) AppleWebKit/605.1.15 (KHTML, like Gecko) Version/18.3.1 Safari/605.1.15","Macintosh","Safari","18.3.1","OS X","10_15_7","https://hz8g1ckzuq.cognition.run/","en-US,en;q=0.9","c11eg8xcv4fvry8","","55","[""Black or African-American""]","No","Female","2077401","21388","","","{""price_1"":""77"",""price_2"":""68"",""price_3"":""55""}","rating","ctd","repulsion_2","2","laptops","null","null","null","null","null","null","2","30","40","20","100","90","100","Processing speed","Memory (RAM)","","",""
"","","","","","rating_trial_setup","html-keyboard-response","51","1212298","0.0-3.0-0.24","16","1","2025-04-10 18:47:00","7bd189e8e4882776c700e1dae255cdf5","","Mozilla/5.0 (Macintosh; Intel Mac OS X 10_15_7) AppleWebKit/605.1.15 (KHTML, like Gecko) Version/18.3.1 Safari/605.1.15","Macintosh","Safari","18.3.1","OS X","10_15_7","https://hz8g1ckzuq.cognition.run/","en-US,en;q=0.9","c11eg8xcv4fvry8","","55","[""Black or African-American""]","No","Female","2077401","null","","<p></p>","null","rating","cdt","repulsion_1","2","washing machines","null","null","null","null","null","null","2","","","","","","","","","","",""
"","","","","","rating_trial","survey-html-form","52","1247691","0.0-3.0-1.24","16","1","2025-04-10 18:47:00","7bd189e8e4882776c700e1dae255cdf5","","Mozilla/5.0 (Macintosh; Intel Mac OS X 10_15_7) AppleWebKit/605.1.15 (KHTML, like Gecko) Version/18.3.1 Safari/605.1.15","Macintosh","Safari","18.3.1","OS X","10_15_7","https://hz8g1ckzuq.cognition.run/","en-US,en;q=0.9","c11eg8xcv4fvry8","","55","[""Black or African-American""]","No","Female","2077401","35383","","","{""price_1"":""87"",""price_2"":""88"",""price_3"":""88""}","rating","cdt","repulsion_1","2","washing machines","null","null","null","null","null","null","2","30","40","25","100","90","100","Average lifespan","Energy savings","","",""
"","","","","","rating_trial_setup","html-keyboard-response","53","1247995","0.0-3.0-0.25","16","1","2025-04-10 18:47:00","7bd189e8e4882776c700e1dae255cdf5","","Mozilla/5.0 (Macintosh; Intel Mac OS X 10_15_7) AppleWebKit/605.1.15 (KHTML, like Gecko) Version/18.3.1 Safari/605.1.15","Macintosh","Safari","18.3.1","OS X","10_15_7","https://hz8g1ckzuq.cognition.run/","en-US,en;q=0.9","c11eg8xcv4fvry8","","55","[""Black or African-American""]","No","Female","2077401","null","","<p></p>","null","rating","tdc","attraction_1","1","washing machines","null","null","null","null","null","null","1","","","","","","","","","","",""
"","","","","","rating_trial","survey-html-form","54","1308296","0.0-3.0-1.25","16","1","2025-04-10 18:47:00","7bd189e8e4882776c700e1dae255cdf5","","Mozilla/5.0 (Macintosh; Intel Mac OS X 10_15_7) AppleWebKit/605.1.15 (KHTML, like Gecko) Version/18.3.1 Safari/605.1.15","Macintosh","Safari","18.3.1","OS X","10_15_7","https://hz8g1ckzuq.cognition.run/","en-US,en;q=0.9","c11eg8xcv4fvry8","","55","[""Black or African-American""]","No","Female","2077401","60296","","","{""price_1"":""88"",""price_2"":""75"",""price_3"":""67""}","rating","tdc","attraction_1","1","washing machines","null","null","null","null","null","null","1","60","50","60","50","60","45","Average lifespan","Energy savings","","",""
"","","","","","rating_trial_setup","html-keyboard-response","55","1308600","0.0-3.0-0.26","16","1","2025-04-10 18:47:00","7bd189e8e4882776c700e1dae255cdf5","","Mozilla/5.0 (Macintosh; Intel Mac OS X 10_15_7) AppleWebKit/605.1.15 (KHTML, like Gecko) Version/18.3.1 Safari/605.1.15","Macintosh","Safari","18.3.1","OS X","10_15_7","https://hz8g1ckzuq.cognition.run/","en-US,en;q=0.9","c11eg8xcv4fvry8","","55","[""Black or African-American""]","No","Female","2077401","null","","<p></p>","null","rating","dct","attraction_2","1","laptops","null","null","null","null","null","null","2","","","","","","","","","","",""
"","","","","","rating_trial","survey-html-form","56","1324001","0.0-3.0-1.26","16","1","2025-04-10 18:47:00","7bd189e8e4882776c700e1dae255cdf5","","Mozilla/5.0 (Macintosh; Intel Mac OS X 10_15_7) AppleWebKit/605.1.15 (KHTML, like Gecko) Version/18.3.1 Safari/605.1.15","Macintosh","Safari","18.3.1","OS X","10_15_7","https://hz8g1ckzuq.cognition.run/","en-US,en;q=0.9","c11eg8xcv4fvry8","","55","[""Black or African-American""]","No","Female","2077401","15395","","","{""price_1"":""75"",""price_2"":""77"",""price_3"":""65""}","rating","dct","attraction_2","1","laptops","null","null","null","null","null","null","2","60","50","60","50","60","40","Processing speed","Memory (RAM)","","",""
"","","","","","rating_trial_setup","html-keyboard-response","57","1324305","0.0-3.0-0.27","16","1","2025-04-10 18:47:00","7bd189e8e4882776c700e1dae255cdf5","","Mozilla/5.0 (Macintosh; Intel Mac OS X 10_15_7) AppleWebKit/605.1.15 (KHTML, like Gecko) Version/18.3.1 Safari/605.1.15","Macintosh","Safari","18.3.1","OS X","10_15_7","https://hz8g1ckzuq.cognition.run/","en-US,en;q=0.9","c11eg8xcv4fvry8","","55","[""Black or African-American""]","No","Female","2077401","null","","<p></p>","null","rating","tcd","attraction_2","2","microwave ovens","null","null","null","null","null","null","2","","","","","","","","","","",""
"","","","","","rating_trial","survey-html-form","58","1342752","0.0-3.0-1.27","16","1","2025-04-10 18:47:00","7bd189e8e4882776c700e1dae255cdf5","","Mozilla/5.0 (Macintosh; Intel Mac OS X 10_15_7) AppleWebKit/605.1.15 (KHTML, like Gecko) Version/18.3.1 Safari/605.1.15","Macintosh","Safari","18.3.1","OS X","10_15_7","https://hz8g1ckzuq.cognition.run/","en-US,en;q=0.9","c11eg8xcv4fvry8","","55","[""Black or African-American""]","No","Female","2077401","18443","","","{""price_1"":""99"",""price_2"":""97"",""price_3"":""95""}","rating","tcd","attraction_2","2","microwave ovens","null","null","null","null","null","null","2","50","60","40","60","50","60","Warranty","Cooking power","","",""
"","","","","","rating_trial_setup","html-keyboard-response","59","1343069","0.0-3.0-0.28","16","1","2025-04-10 18:47:00","7bd189e8e4882776c700e1dae255cdf5","","Mozilla/5.0 (Macintosh; Intel Mac OS X 10_15_7) AppleWebKit/605.1.15 (KHTML, like Gecko) Version/18.3.1 Safari/605.1.15","Macintosh","Safari","18.3.1","OS X","10_15_7","https://hz8g1ckzuq.cognition.run/","en-US,en;q=0.9","c11eg8xcv4fvry8","","55","[""Black or African-American""]","No","Female","2077401","null","","<p></p>","null","rating","tcd","attraction_1","2","washing machines","null","null","null","null","null","null","2","","","","","","","","","","",""
"","","","","","rating_trial","survey-html-form","60","1364808","0.0-3.0-1.28","16","1","2025-04-10 18:47:00","7bd189e8e4882776c700e1dae255cdf5","","Mozilla/5.0 (Macintosh; Intel Mac OS X 10_15_7) AppleWebKit/605.1.15 (KHTML, like Gecko) Version/18.3.1 Safari/605.1.15","Macintosh","Safari","18.3.1","OS X","10_15_7","https://hz8g1ckzuq.cognition.run/","en-US,en;q=0.9","c11eg8xcv4fvry8","","55","[""Black or African-American""]","No","Female","2077401","21734","","","{""price_1"":""135"",""price_2"":""135"",""price_3"":""134""}","rating","tcd","attraction_1","2","washing machines","null","null","null","null","null","null","2","50","60","45","60","50","60","Average lifespan","Energy savings","","",""
"","","","","","rating_trial_setup","html-keyboard-response","61","1365113","0.0-3.0-0.29","16","1","2025-04-10 18:47:00","7bd189e8e4882776c700e1dae255cdf5","","Mozilla/5.0 (Macintosh; Intel Mac OS X 10_15_7) AppleWebKit/605.1.15 (KHTML, like Gecko) Version/18.3.1 Safari/605.1.15","Macintosh","Safari","18.3.1","OS X","10_15_7","https://hz8g1ckzuq.cognition.run/","en-US,en;q=0.9","c11eg8xcv4fvry8","","55","[""Black or African-American""]","No","Female","2077401","null","","<p></p>","null","rating","dtc","attraction_2","2","washing machines","null","null","null","null","null","null","1","","","","","","","","","","",""
"","","","","","rating_trial","survey-html-form","62","1378570","0.0-3.0-1.29","16","1","2025-04-10 18:47:00","7bd189e8e4882776c700e1dae255cdf5","","Mozilla/5.0 (Macintosh; Intel Mac OS X 10_15_7) AppleWebKit/605.1.15 (KHTML, like Gecko) Version/18.3.1 Safari/605.1.15","Macintosh","Safari","18.3.1","OS X","10_15_7","https://hz8g1ckzuq.cognition.run/","en-US,en;q=0.9","c11eg8xcv4fvry8","","55","[""Black or African-American""]","No","Female","2077401","13454","","","{""price_1"":""134"",""price_2"":""135"",""price_3"":""135""}","rating","dtc","attraction_2","2","washing machines","null","null","null","null","null","null","1","50","60","40","60","50","60","Average lifespan","Energy savings","","",""
"","","","","","rating_trial_setup","html-keyboard-response","63","1378874","0.0-3.0-0.30","16","1","2025-04-10 18:47:00","7bd189e8e4882776c700e1dae255cdf5","","Mozilla/5.0 (Macintosh; Intel Mac OS X 10_15_7) AppleWebKit/605.1.15 (KHTML, like Gecko) Version/18.3.1 Safari/605.1.15","Macintosh","Safari","18.3.1","OS X","10_15_7","https://hz8g1ckzuq.cognition.run/","en-US,en;q=0.9","c11eg8xcv4fvry8","","55","[""Black or African-American""]","No","Female","2077401","null","","<p></p>","null","rating","wwb","catch","null","televisions","50","60","45","15","30","45","1","","","","","","","","","","",""
"","","","","","rating_trial","survey-html-form","64","1403551","0.0-3.0-1.30","16","1","2025-04-10 18:47:00","7bd189e8e4882776c700e1dae255cdf5","","Mozilla/5.0 (Macintosh; Intel Mac OS X 10_15_7) AppleWebKit/605.1.15 (KHTML, like Gecko) Version/18.3.1 Safari/605.1.15","Macintosh","Safari","18.3.1","OS X","10_15_7","https://hz8g1ckzuq.cognition.run/","en-US,en;q=0.9","c11eg8xcv4fvry8","","55","[""Black or African-American""]","No","Female","2077401","24673","","","{""price_1"":""65"",""price_2"":""55"",""price_3"":""55""}","rating","wwb","catch","null","televisions","50","60","45","15","30","45","1","null","null","null","null","null","null","Screen size","Average lifespan","","",""
"","","","","","rating_trial_setup","html-keyboard-response","65","1403856","0.0-3.0-0.31","16","1","2025-04-10 18:47:00","7bd189e8e4882776c700e1dae255cdf5","","Mozilla/5.0 (Macintosh; Intel Mac OS X 10_15_7) AppleWebKit/605.1.15 (KHTML, like Gecko) Version/18.3.1 Safari/605.1.15","Macintosh","Safari","18.3.1","OS X","10_15_7","https://hz8g1ckzuq.cognition.run/","en-US,en;q=0.9","c11eg8xcv4fvry8","","55","[""Black or African-American""]","No","Female","2077401","null","","<p></p>","null","rating","dct","repulsion_1","2","microwave ovens","null","null","null","null","null","null","1","","","","","","","","","","",""
"","","","","","rating_trial","survey-html-form","66","1433506","0.0-3.0-1.31","16","1","2025-04-10 18:47:00","7bd189e8e4882776c700e1dae255cdf5","","Mozilla/5.0 (Macintosh; Intel Mac OS X 10_15_7) AppleWebKit/605.1.15 (KHTML, like Gecko) Version/18.3.1 Safari/605.1.15","Macintosh","Safari","18.3.1","OS X","10_15_7","https://hz8g1ckzuq.cognition.run/","en-US,en;q=0.9","c11eg8xcv4fvry8","","55","[""Black or African-American""]","No","Female","2077401","29646","","","{""price_1"":""77"",""price_2"":""68"",""price_3"":""79""}","rating","dct","repulsion_1","2","microwave ovens","null","null","null","null","null","null","1","30","40","25","100","90","100","Warranty","Cooking power","","",""
"","","","","","rating_trial_setup","html-keyboard-response","67","1433815","0.0-3.0-0.32","16","1","2025-04-10 18:47:00","7bd189e8e4882776c700e1dae255cdf5","","Mozilla/5.0 (Macintosh; Intel Mac OS X 10_15_7) AppleWebKit/605.1.15 (KHTML, like Gecko) Version/18.3.1 Safari/605.1.15","Macintosh","Safari","18.3.1","OS X","10_15_7","https://hz8g1ckzuq.cognition.run/","en-US,en;q=0.9","c11eg8xcv4fvry8","","55","[""Black or African-American""]","No","Female","2077401","null","","<p></p>","null","rating","dtc","repulsion_2","2","washing machines","null","null","null","null","null","null","1","","","","","","","","","","",""
"","","","","","rating_trial","survey-html-form","68","1488116","0.0-3.0-1.32","16","1","2025-04-10 18:47:00","7bd189e8e4882776c700e1dae255cdf5","","Mozilla/5.0 (Macintosh; Intel Mac OS X 10_15_7) AppleWebKit/605.1.15 (KHTML, like Gecko) Version/18.3.1 Safari/605.1.15","Macintosh","Safari","18.3.1","OS X","10_15_7","https://hz8g1ckzuq.cognition.run/","en-US,en;q=0.9","c11eg8xcv4fvry8","","55","[""Black or African-American""]","No","Female","2077401","54294","","","{""price_1"":""133"",""price_2"":""136"",""price_3"":""145""}","rating","dtc","repulsion_2","2","washing machines","null","null","null","null","null","null","1","30","40","20","100","90","100","Average lifespan","Energy savings","","",""
"","","","","","rating_trial_setup","html-keyboard-response","69","1488423","0.0-3.0-0.33","16","1","2025-04-10 18:47:00","7bd189e8e4882776c700e1dae255cdf5","","Mozilla/5.0 (Macintosh; Intel Mac OS X 10_15_7) AppleWebKit/605.1.15 (KHTML, like Gecko) Version/18.3.1 Safari/605.1.15","Macintosh","Safari","18.3.1","OS X","10_15_7","https://hz8g1ckzuq.cognition.run/","en-US,en;q=0.9","c11eg8xcv4fvry8","","55","[""Black or African-American""]","No","Female","2077401","null","","<p></p>","null","rating","tdc","attraction_2","2","televisions","null","null","null","null","null","null","2","","","","","","","","","","",""
"","","","","","rating_trial","survey-html-form","70","1510979","0.0-3.0-1.33","16","1","2025-04-10 18:47:00","7bd189e8e4882776c700e1dae255cdf5","","Mozilla/5.0 (Macintosh; Intel Mac OS X 10_15_7) AppleWebKit/605.1.15 (KHTML, like Gecko) Version/18.3.1 Safari/605.1.15","Macintosh","Safari","18.3.1","OS X","10_15_7","https://hz8g1ckzuq.cognition.run/","en-US,en;q=0.9","c11eg8xcv4fvry8","","55","[""Black or African-American""]","No","Female","2077401","22539","","","{""price_1"":""125"",""price_2"":""129"",""price_3"":""125""}","rating","tdc","attraction_2","2","televisions","null","null","null","null","null","null","2","50","60","40","60","50","60","Screen size","Average lifespan","","",""
"","","","","","rating_trial_setup","html-keyboard-response","71","1511284","0.0-3.0-0.34","16","1","2025-04-10 18:47:00","7bd189e8e4882776c700e1dae255cdf5","","Mozilla/5.0 (Macintosh; Intel Mac OS X 10_15_7) AppleWebKit/605.1.15 (KHTML, like Gecko) Version/18.3.1 Safari/605.1.15","Macintosh","Safari","18.3.1","OS X","10_15_7","https://hz8g1ckzuq.cognition.run/","en-US,en;q=0.9","c11eg8xcv4fvry8","","55","[""Black or African-American""]","No","Female","2077401","null","","<p></p>","null","rating","wwb","catch","null","laptops","55","85","30","20","35","15","1","","","","","","","","","","",""
"","","","","","rating_trial","survey-html-form","72","1538715","0.0-3.0-1.34","16","1","2025-04-10 18:47:00","7bd189e8e4882776c700e1dae255cdf5","","Mozilla/5.0 (Macintosh; Intel Mac OS X 10_15_7) AppleWebKit/605.1.15 (KHTML, like Gecko) Version/18.3.1 Safari/605.1.15","Macintosh","Safari","18.3.1","OS X","10_15_7","https://hz8g1ckzuq.cognition.run/","en-US,en;q=0.9","c11eg8xcv4fvry8","","55","[""Black or African-American""]","No","Female","2077401","27421","","","{""price_1"":""79"",""price_2"":""49"",""price_3"":""89""}","rating","wwb","catch","null","laptops","55","85","30","20","35","15","1","null","null","null","null","null","null","Processing speed","Memory (RAM)","","",""
"","","","","","rating_trial_setup","html-keyboard-response","73","1539022","0.0-3.0-0.35","16","1","2025-04-10 18:47:00","7bd189e8e4882776c700e1dae255cdf5","","Mozilla/5.0 (Macintosh; Intel Mac OS X 10_15_7) AppleWebKit/605.1.15 (KHTML, like Gecko) Version/18.3.1 Safari/605.1.15","Macintosh","Safari","18.3.1","OS X","10_15_7","https://hz8g1ckzuq.cognition.run/","en-US,en;q=0.9","c11eg8xcv4fvry8","","55","[""Black or African-American""]","No","Female","2077401","null","","<p></p>","null","rating","dtc","attraction_1","1","laptops","null","null","null","null","null","null","2","","","","","","","","","","",""
"","","","","","rating_trial","survey-html-form","74","1559635","0.0-3.0-1.35","16","1","2025-04-10 18:47:00","7bd189e8e4882776c700e1dae255cdf5","","Mozilla/5.0 (Macintosh; Intel Mac OS X 10_15_7) AppleWebKit/605.1.15 (KHTML, like Gecko) Version/18.3.1 Safari/605.1.15","Macintosh","Safari","18.3.1","OS X","10_15_7","https://hz8g1ckzuq.cognition.run/","en-US,en;q=0.9","c11eg8xcv4fvry8","","55","[""Black or African-American""]","No","Female","2077401","20607","","","{""price_1"":""79"",""price_2"":""80"",""price_3"":""89""}","rating","dtc","attraction_1","1","laptops","null","null","null","null","null","null","2","60","50","60","50","60","45","Processing speed","Memory (RAM)","","",""
"","","","","","rating_trial_setup","html-keyboard-response","75","1559941","0.0-3.0-0.36","16","1","2025-04-10 18:47:00","7bd189e8e4882776c700e1dae255cdf5","","Mozilla/5.0 (Macintosh; Intel Mac OS X 10_15_7) AppleWebKit/605.1.15 (KHTML, like Gecko) Version/18.3.1 Safari/605.1.15","Macintosh","Safari","18.3.1","OS X","10_15_7","https://hz8g1ckzuq.cognition.run/","en-US,en;q=0.9","c11eg8xcv4fvry8","","55","[""Black or African-American""]","No","Female","2077401","null","","<p></p>","null","rating","tdc","repulsion_2","2","microwave ovens","null","null","null","null","null","null","2","","","","","","","","","","",""
"","","","","","rating_trial","survey-html-form","76","1578221","0.0-3.0-1.36","16","1","2025-04-10 18:47:00","7bd189e8e4882776c700e1dae255cdf5","","Mozilla/5.0 (Macintosh; Intel Mac OS X 10_15_7) AppleWebKit/605.1.15 (KHTML, like Gecko) Version/18.3.1 Safari/605.1.15","Macintosh","Safari","18.3.1","OS X","10_15_7","https://hz8g1ckzuq.cognition.run/","en-US,en;q=0.9","c11eg8xcv4fvry8","","55","[""Black or African-American""]","No","Female","2077401","18274","","","{""price_1"":""99"",""price_2"":""95"",""price_3"":""85""}","rating","tdc","repulsion_2","2","microwave ovens","null","null","null","null","null","null","2","30","40","20","100","90","100","Warranty","Cooking power","","",""
"","","","","","rating_trial_setup","html-keyboard-response","77","1578527","0.0-3.0-0.37","16","1","2025-04-10 18:47:00","7bd189e8e4882776c700e1dae255cdf5","","Mozilla/5.0 (Macintosh; Intel Mac OS X 10_15_7) AppleWebKit/605.1.15 (KHTML, like Gecko) Version/18.3.1 Safari/605.1.15","Macintosh","Safari","18.3.1","OS X","10_15_7","https://hz8g1ckzuq.cognition.run/","en-US,en;q=0.9","c11eg8xcv4fvry8","","55","[""Black or African-American""]","No","Female","2077401","null","","<p></p>","null","rating","cdt","attraction_1","1","microwave ovens","null","null","null","null","null","null","2","","","","","","","","","","",""
"","","","","","rating_trial","survey-html-form","78","1606209","0.0-3.0-1.37","16","1","2025-04-10 18:47:00","7bd189e8e4882776c700e1dae255cdf5","","Mozilla/5.0 (Macintosh; Intel Mac OS X 10_15_7) AppleWebKit/605.1.15 (KHTML, like Gecko) Version/18.3.1 Safari/605.1.15","Macintosh","Safari","18.3.1","OS X","10_15_7","https://hz8g1ckzuq.cognition.run/","en-US,en;q=0.9","c11eg8xcv4fvry8","","55","[""Black or African-American""]","No","Female","2077401","27678","","","{""price_1"":""85"",""price_2"":""83"",""price_3"":""85""}","rating","cdt","attraction_1","1","microwave ovens","null","null","null","null","null","null","2","60","50","60","50","60","45","Warranty","Cooking power","","",""
"","","","","","rating_trial_setup","html-keyboard-response","79","1606516","0.0-3.0-0.38","16","1","2025-04-10 18:47:00","7bd189e8e4882776c700e1dae255cdf5","","Mozilla/5.0 (Macintosh; Intel Mac OS X 10_15_7) AppleWebKit/605.1.15 (KHTML, like Gecko) Version/18.3.1 Safari/605.1.15","Macintosh","Safari","18.3.1","OS X","10_15_7","https://hz8g1ckzuq.cognition.run/","en-US,en;q=0.9","c11eg8xcv4fvry8","","55","[""Black or African-American""]","No","Female","2077401","null","","<p></p>","null","rating","wbw","catch","null","microwave ovens","95","75","25","50","35","15","2","","","","","","","","","","",""
"","","","","","rating_trial","survey-html-form","80","1628250","0.0-3.0-1.38","16","1","2025-04-10 18:47:00","7bd189e8e4882776c700e1dae255cdf5","","Mozilla/5.0 (Macintosh; Intel Mac OS X 10_15_7) AppleWebKit/605.1.15 (KHTML, like Gecko) Version/18.3.1 Safari/605.1.15","Macintosh","Safari","18.3.1","OS X","10_15_7","https://hz8g1ckzuq.cognition.run/","en-US,en;q=0.9","c11eg8xcv4fvry8","","55","[""Black or African-American""]","No","Female","2077401","21730","","","{""price_1"":""79"",""price_2"":""80"",""price_3"":""25""}","rating","wbw","catch","null","microwave ovens","95","75","25","50","35","15","2","null","null","null","null","null","null","Warranty","Cooking power","","",""
"","","","","","rating_trial_setup","html-keyboard-response","81","1628555","0.0-3.0-0.39","16","1","2025-04-10 18:47:00","7bd189e8e4882776c700e1dae255cdf5","","Mozilla/5.0 (Macintosh; Intel Mac OS X 10_15_7) AppleWebKit/605.1.15 (KHTML, like Gecko) Version/18.3.1 Safari/605.1.15","Macintosh","Safari","18.3.1","OS X","10_15_7","https://hz8g1ckzuq.cognition.run/","en-US,en;q=0.9","c11eg8xcv4fvry8","","55","[""Black or African-American""]","No","Female","2077401","null","","<p></p>","null","rating","bww","catch","null","washing machines","50","85","5","40","30","30","2","","","","","","","","","","",""
"","","","","","rating_trial","survey-html-form","82","1709902","0.0-3.0-1.39","16","1","2025-04-10 18:47:00","7bd189e8e4882776c700e1dae255cdf5","","Mozilla/5.0 (Macintosh; Intel Mac OS X 10_15_7) AppleWebKit/605.1.15 (KHTML, like Gecko) Version/18.3.1 Safari/605.1.15","Macintosh","Safari","18.3.1","OS X","10_15_7","https://hz8g1ckzuq.cognition.run/","en-US,en;q=0.9","c11eg8xcv4fvry8","","55","[""Black or African-American""]","No","Female","2077401","81344","","","{""price_1"":""135"",""price_2"":""75"",""price_3"":""55""}","rating","bww","catch","null","washing machines","50","85","5","40","30","30","2","null","null","null","null","null","null","Average lifespan","Energy savings","","",""
"","","","","","","instructions","83","1770138","0.0-4.0","16","1","2025-04-10 18:47:00","7bd189e8e4882776c700e1dae255cdf5","","Mozilla/5.0 (Macintosh; Intel Mac OS X 10_15_7) AppleWebKit/605.1.15 (KHTML, like Gecko) Version/18.3.1 Safari/605.1.15","Macintosh","Safari","18.3.1","OS X","10_15_7","https://hz8g1ckzuq.cognition.run/","en-US,en;q=0.9","c11eg8xcv4fvry8","","55","[""Black or African-American""]","No","Female","2077401","60233","[{""page_index"":0,""viewing_time"":2395},{""page_index"":1,""viewing_time"":1937},{""page_index"":2,""viewing_time"":5501},{""page_index"":3,""viewing_time"":7774},{""page_index"":4,""viewing_time"":10493},{""page_index"":5,""viewing_time"":5536},{""page_index"":6,""viewing_time"":15589},{""page_index"":7,""viewing_time"":11008}]","","","","","","","","","","","","","","","","","","","","","","","","",""
"","","","","","choice_trial_setup","html-keyboard-response","84","1770448","0.0-5.0-0.0","16","1","2025-04-10 18:47:00","7bd189e8e4882776c700e1dae255cdf5","","Mozilla/5.0 (Macintosh; Intel Mac OS X 10_15_7) AppleWebKit/605.1.15 (KHTML, like Gecko) Version/18.3.1 Safari/605.1.15","Macintosh","Safari","18.3.1","OS X","10_15_7","https://hz8g1ckzuq.cognition.run/","en-US,en;q=0.9","c11eg8xcv4fvry8","","55","[""Black or African-American""]","No","Female","2077401","null","","<p></p>","null","choice","tdc","repulsion_2","2","televisions","null","null","null","null","null","null","2","","","","","","","","","","",""
"","","","","","choice_trial","survey-html-form","85","1777835","0.0-5.0-1.0","16","1","2025-04-10 18:47:00","7bd189e8e4882776c700e1dae255cdf5","","Mozilla/5.0 (Macintosh; Intel Mac OS X 10_15_7) AppleWebKit/605.1.15 (KHTML, like Gecko) Version/18.3.1 Safari/605.1.15","Macintosh","Safari","18.3.1","OS X","10_15_7","https://hz8g1ckzuq.cognition.run/","en-US,en;q=0.9","c11eg8xcv4fvry8","","55","[""Black or African-American""]","No","Female","2077401","7362","","","{""product_choice"":""C""}","choice","tdc","repulsion_2","2","televisions","null","null","null","null","null","null","2","30","40","20","100","90","100","Screen size","Average lifespan","","",""
"","","","","","choice_trial_setup","html-keyboard-response","86","1778141","0.0-5.0-0.1","16","1","2025-04-10 18:47:00","7bd189e8e4882776c700e1dae255cdf5","","Mozilla/5.0 (Macintosh; Intel Mac OS X 10_15_7) AppleWebKit/605.1.15 (KHTML, like Gecko) Version/18.3.1 Safari/605.1.15","Macintosh","Safari","18.3.1","OS X","10_15_7","https://hz8g1ckzuq.cognition.run/","en-US,en;q=0.9","c11eg8xcv4fvry8","","55","[""Black or African-American""]","No","Female","2077401","null","","<p></p>","null","choice","tcd","attraction_2","2","microwave ovens","null","null","null","null","null","null","2","","","","","","","","","","",""
"","","","","","choice_trial","survey-html-form","87","1784083","0.0-5.0-1.1","16","1","2025-04-10 18:47:00","7bd189e8e4882776c700e1dae255cdf5","","Mozilla/5.0 (Macintosh; Intel Mac OS X 10_15_7) AppleWebKit/605.1.15 (KHTML, like Gecko) Version/18.3.1 Safari/605.1.15","Macintosh","Safari","18.3.1","OS X","10_15_7","https://hz8g1ckzuq.cognition.run/","en-US,en;q=0.9","c11eg8xcv4fvry8","","55","[""Black or African-American""]","No","Female","2077401","5925","","","{""product_choice"":""A""}","choice","tcd","attraction_2","2","microwave ovens","null","null","null","null","null","null","2","50","60","40","60","50","60","Warranty","Cooking power","","",""
"","","","","","choice_trial_setup","html-keyboard-response","88","1784389","0.0-5.0-0.2","16","1","2025-04-10 18:47:00","7bd189e8e4882776c700e1dae255cdf5","","Mozilla/5.0 (Macintosh; Intel Mac OS X 10_15_7) AppleWebKit/605.1.15 (KHTML, like Gecko) Version/18.3.1 Safari/605.1.15","Macintosh","Safari","18.3.1","OS X","10_15_7","https://hz8g1ckzuq.cognition.run/","en-US,en;q=0.9","c11eg8xcv4fvry8","","55","[""Black or African-American""]","No","Female","2077401","null","","<p></p>","null","choice","dtc","attraction_2","2","laptops","null","null","null","null","null","null","1","","","","","","","","","","",""
"","","","","","choice_trial","survey-html-form","89","1787453","0.0-5.0-1.2","16","1","2025-04-10 18:47:00","7bd189e8e4882776c700e1dae255cdf5","","Mozilla/5.0 (Macintosh; Intel Mac OS X 10_15_7) AppleWebKit/605.1.15 (KHTML, like Gecko) Version/18.3.1 Safari/605.1.15","Macintosh","Safari","18.3.1","OS X","10_15_7","https://hz8g1ckzuq.cognition.run/","en-US,en;q=0.9","c11eg8xcv4fvry8","","55","[""Black or African-American""]","No","Female","2077401","3046","","","{""product_choice"":""C""}","choice","dtc","attraction_2","2","laptops","null","null","null","null","null","null","1","50","60","40","60","50","60","Processing speed","Memory (RAM)","","",""
"","","","","","choice_trial_setup","html-keyboard-response","90","1787759","0.0-5.0-0.3","16","1","2025-04-10 18:47:00","7bd189e8e4882776c700e1dae255cdf5","","Mozilla/5.0 (Macintosh; Intel Mac OS X 10_15_7) AppleWebKit/605.1.15 (KHTML, like Gecko) Version/18.3.1 Safari/605.1.15","Macintosh","Safari","18.3.1","OS X","10_15_7","https://hz8g1ckzuq.cognition.run/","en-US,en;q=0.9","c11eg8xcv4fvry8","","55","[""Black or African-American""]","No","Female","2077401","null","","<p></p>","null","choice","dct","attraction_1","1","microwave ovens","null","null","null","null","null","null","1","","","","","","","","","","",""
"","","","","","choice_trial","survey-html-form","91","1792866","0.0-5.0-1.3","16","1","2025-04-10 18:47:00","7bd189e8e4882776c700e1dae255cdf5","","Mozilla/5.0 (Macintosh; Intel Mac OS X 10_15_7) AppleWebKit/605.1.15 (KHTML, like Gecko) Version/18.3.1 Safari/605.1.15","Macintosh","Safari","18.3.1","OS X","10_15_7","https://hz8g1ckzuq.cognition.run/","en-US,en;q=0.9","c11eg8xcv4fvry8","","55","[""Black or African-American""]","No","Female","2077401","5089","","","{""product_choice"":""C""}","choice","dct","attraction_1","1","microwave ovens","null","null","null","null","null","null","1","60","50","60","50","60","45","Warranty","Cooking power","","",""
"","","","","","choice_trial_setup","html-keyboard-response","92","1793175","0.0-5.0-0.4","16","1","2025-04-10 18:47:00","7bd189e8e4882776c700e1dae255cdf5","","Mozilla/5.0 (Macintosh; Intel Mac OS X 10_15_7) AppleWebKit/605.1.15 (KHTML, like Gecko) Version/18.3.1 Safari/605.1.15","Macintosh","Safari","18.3.1","OS X","10_15_7","https://hz8g1ckzuq.cognition.run/","en-US,en;q=0.9","c11eg8xcv4fvry8","","55","[""Black or African-American""]","No","Female","2077401","null","","<p></p>","null","choice","ctd","repulsion_1","1","televisions","null","null","null","null","null","null","1","","","","","","","","","","",""
"","","","","","choice_trial","survey-html-form","93","1797750","0.0-5.0-1.4","16","1","2025-04-10 18:47:00","7bd189e8e4882776c700e1dae255cdf5","","Mozilla/5.0 (Macintosh; Intel Mac OS X 10_15_7) AppleWebKit/605.1.15 (KHTML, like Gecko) Version/18.3.1 Safari/605.1.15","Macintosh","Safari","18.3.1","OS X","10_15_7","https://hz8g1ckzuq.cognition.run/","en-US,en;q=0.9","c11eg8xcv4fvry8","","55","[""Black or African-American""]","No","Female","2077401","4556","","","{""product_choice"":""A""}","choice","ctd","repulsion_1","1","televisions","null","null","null","null","null","null","1","100","90","100","30","40","25","Screen size","Average lifespan","","",""
"","","","","","choice_trial_setup","html-keyboard-response","94","1798056","0.0-5.0-0.5","16","1","2025-04-10 18:47:00","7bd189e8e4882776c700e1dae255cdf5","","Mozilla/5.0 (Macintosh; Intel Mac OS X 10_15_7) AppleWebKit/605.1.15 (KHTML, like Gecko) Version/18.3.1 Safari/605.1.15","Macintosh","Safari","18.3.1","OS X","10_15_7","https://hz8g1ckzuq.cognition.run/","en-US,en;q=0.9","c11eg8xcv4fvry8","","55","[""Black or African-American""]","No","Female","2077401","null","","<p></p>","null","choice","bww","catch","null","laptops","90","60","30","10","20","5","1","","","","","","","","","","",""
"","","","","","choice_trial","survey-html-form","95","1802544","0.0-5.0-1.5","16","1","2025-04-10 18:47:00","7bd189e8e4882776c700e1dae255cdf5","","Mozilla/5.0 (Macintosh; Intel Mac OS X 10_15_7) AppleWebKit/605.1.15 (KHTML, like Gecko) Version/18.3.1 Safari/605.1.15","Macintosh","Safari","18.3.1","OS X","10_15_7","https://hz8g1ckzuq.cognition.run/","en-US,en;q=0.9","c11eg8xcv4fvry8","","55","[""Black or African-American""]","No","Female","2077401","4463","","","{""product_choice"":""A""}","choice","bww","catch","null","laptops","90","60","30","10","20","5","1","null","null","null","null","null","null","Processing speed","Memory (RAM)","","",""
"","","","","","choice_trial_setup","html-keyboard-response","96","1802850","0.0-5.0-0.6","16","1","2025-04-10 18:47:00","7bd189e8e4882776c700e1dae255cdf5","","Mozilla/5.0 (Macintosh; Intel Mac OS X 10_15_7) AppleWebKit/605.1.15 (KHTML, like Gecko) Version/18.3.1 Safari/605.1.15","Macintosh","Safari","18.3.1","OS X","10_15_7","https://hz8g1ckzuq.cognition.run/","en-US,en;q=0.9","c11eg8xcv4fvry8","","55","[""Black or African-American""]","No","Female","2077401","null","","<p></p>","null","choice","wbw","catch","null","televisions","55","70","40","5","45","35","2","","","","","","","","","","",""
"","","","","","choice_trial","survey-html-form","97","1807390","0.0-5.0-1.6","16","1","2025-04-10 18:47:00","7bd189e8e4882776c700e1dae255cdf5","","Mozilla/5.0 (Macintosh; Intel Mac OS X 10_15_7) AppleWebKit/605.1.15 (KHTML, like Gecko) Version/18.3.1 Safari/605.1.15","Macintosh","Safari","18.3.1","OS X","10_15_7","https://hz8g1ckzuq.cognition.run/","en-US,en;q=0.9","c11eg8xcv4fvry8","","55","[""Black or African-American""]","No","Female","2077401","4523","","","{""product_choice"":""B""}","choice","wbw","catch","null","televisions","55","70","40","5","45","35","2","null","null","null","null","null","null","Screen size","Average lifespan","","",""
"","","","","","choice_trial_setup","html-keyboard-response","98","1807697","0.0-5.0-0.7","16","1","2025-04-10 18:47:00","7bd189e8e4882776c700e1dae255cdf5","","Mozilla/5.0 (Macintosh; Intel Mac OS X 10_15_7) AppleWebKit/605.1.15 (KHTML, like Gecko) Version/18.3.1 Safari/605.1.15","Macintosh","Safari","18.3.1","OS X","10_15_7","https://hz8g1ckzuq.cognition.run/","en-US,en;q=0.9","c11eg8xcv4fvry8","","55","[""Black or African-American""]","No","Female","2077401","null","","<p></p>","null","choice","dtc","attraction_1","1","laptops","null","null","null","null","null","null","1","","","","","","","","","","",""
"","","","","","choice_trial","survey-html-form","99","1811771","0.0-5.0-1.7","16","1","2025-04-10 18:47:00","7bd189e8e4882776c700e1dae255cdf5","","Mozilla/5.0 (Macintosh; Intel Mac OS X 10_15_7) AppleWebKit/605.1.15 (KHTML, like Gecko) Version/18.3.1 Safari/605.1.15","Macintosh","Safari","18.3.1","OS X","10_15_7","https://hz8g1ckzuq.cognition.run/","en-US,en;q=0.9","c11eg8xcv4fvry8","","55","[""Black or African-American""]","No","Female","2077401","4055","","","{""product_choice"":""C""}","choice","dtc","attraction_1","1","laptops","null","null","null","null","null","null","1","60","50","60","50","60","45","Processing speed","Memory (RAM)","","",""
"","","","","","choice_trial_setup","html-keyboard-response","100","1812077","0.0-5.0-0.8","16","1","2025-04-10 18:47:00","7bd189e8e4882776c700e1dae255cdf5","","Mozilla/5.0 (Macintosh; Intel Mac OS X 10_15_7) AppleWebKit/605.1.15 (KHTML, like Gecko) Version/18.3.1 Safari/605.1.15","Macintosh","Safari","18.3.1","OS X","10_15_7","https://hz8g1ckzuq.cognition.run/","en-US,en;q=0.9","c11eg8xcv4fvry8","","55","[""Black or African-American""]","No","Female","2077401","null","","<p></p>","null","choice","ctd","attraction_2","2","washing machines","null","null","null","null","null","null","1","","","","","","","","","","",""
"","","","","","choice_trial","survey-html-form","101","1817390","0.0-5.0-1.8","16","1","2025-04-10 18:47:00","7bd189e8e4882776c700e1dae255cdf5","","Mozilla/5.0 (Macintosh; Intel Mac OS X 10_15_7) AppleWebKit/605.1.15 (KHTML, like Gecko) Version/18.3.1 Safari/605.1.15","Macintosh","Safari","18.3.1","OS X","10_15_7","https://hz8g1ckzuq.cognition.run/","en-US,en;q=0.9","c11eg8xcv4fvry8","","55","[""Black or African-American""]","No","Female","2077401","5294","","","{""product_choice"":""B""}","choice","ctd","attraction_2","2","washing machines","null","null","null","null","null","null","1","50","60","40","60","50","60","Average lifespan","Energy savings","","",""
"","","","","","choice_trial_setup","html-keyboard-response","102","1817698","0.0-5.0-0.9","16","1","2025-04-10 18:47:00","7bd189e8e4882776c700e1dae255cdf5","","Mozilla/5.0 (Macintosh; Intel Mac OS X 10_15_7) AppleWebKit/605.1.15 (KHTML, like Gecko) Version/18.3.1 Safari/605.1.15","Macintosh","Safari","18.3.1","OS X","10_15_7","https://hz8g1ckzuq.cognition.run/","en-US,en;q=0.9","c11eg8xcv4fvry8","","55","[""Black or African-American""]","No","Female","2077401","null","","<p></p>","null","choice","tcd","attraction_1","1","televisions","null","null","null","null","null","null","1","","","","","","","","","","",""
"","","","","","choice_trial","survey-html-form","103","1821693","0.0-5.0-1.9","16","1","2025-04-10 18:47:00","7bd189e8e4882776c700e1dae255cdf5","","Mozilla/5.0 (Macintosh; Intel Mac OS X 10_15_7) AppleWebKit/605.1.15 (KHTML, like Gecko) Version/18.3.1 Safari/605.1.15","Macintosh","Safari","18.3.1","OS X","10_15_7","https://hz8g1ckzuq.cognition.run/","en-US,en;q=0.9","c11eg8xcv4fvry8","","55","[""Black or African-American""]","No","Female","2077401","3976","","","{""product_choice"":""A""}","choice","tcd","attraction_1","1","televisions","null","null","null","null","null","null","1","60","50","60","50","60","45","Screen size","Average lifespan","","",""
"","","","","","choice_trial_setup","html-keyboard-response","104","1821999","0.0-5.0-0.10","16","1","2025-04-10 18:47:00","7bd189e8e4882776c700e1dae255cdf5","","Mozilla/5.0 (Macintosh; Intel Mac OS X 10_15_7) AppleWebKit/605.1.15 (KHTML, like Gecko) Version/18.3.1 Safari/605.1.15","Macintosh","Safari","18.3.1","OS X","10_15_7","https://hz8g1ckzuq.cognition.run/","en-US,en;q=0.9","c11eg8xcv4fvry8","","55","[""Black or African-American""]","No","Female","2077401","null","","<p></p>","null","choice","tcd","repulsion_1","2","washing machines","null","null","null","null","null","null","2","","","","","","","","","","",""
"","","","","","choice_trial","survey-html-form","105","1825985","0.0-5.0-1.10","16","1","2025-04-10 18:47:00","7bd189e8e4882776c700e1dae255cdf5","","Mozilla/5.0 (Macintosh; Intel Mac OS X 10_15_7) AppleWebKit/605.1.15 (KHTML, like Gecko) Version/18.3.1 Safari/605.1.15","Macintosh","Safari","18.3.1","OS X","10_15_7","https://hz8g1ckzuq.cognition.run/","en-US,en;q=0.9","c11eg8xcv4fvry8","","55","[""Black or African-American""]","No","Female","2077401","3967","","","{""product_choice"":""B""}","choice","tcd","repulsion_1","2","washing machines","null","null","null","null","null","null","2","30","40","25","100","90","100","Average lifespan","Energy savings","","",""
"","","","","","choice_trial_setup","html-keyboard-response","106","1826294","0.0-5.0-0.11","16","1","2025-04-10 18:47:00","7bd189e8e4882776c700e1dae255cdf5","","Mozilla/5.0 (Macintosh; Intel Mac OS X 10_15_7) AppleWebKit/605.1.15 (KHTML, like Gecko) Version/18.3.1 Safari/605.1.15","Macintosh","Safari","18.3.1","OS X","10_15_7","https://hz8g1ckzuq.cognition.run/","en-US,en;q=0.9","c11eg8xcv4fvry8","","55","[""Black or African-American""]","No","Female","2077401","null","","<p></p>","null","choice","tdc","repulsion_2","1","televisions","null","null","null","null","null","null","1","","","","","","","","","","",""
"","","","","","choice_trial","survey-html-form","107","1832753","0.0-5.0-1.11","16","1","2025-04-10 18:47:00","7bd189e8e4882776c700e1dae255cdf5","","Mozilla/5.0 (Macintosh; Intel Mac OS X 10_15_7) AppleWebKit/605.1.15 (KHTML, like Gecko) Version/18.3.1 Safari/605.1.15","Macintosh","Safari","18.3.1","OS X","10_15_7","https://hz8g1ckzuq.cognition.run/","en-US,en;q=0.9","c11eg8xcv4fvry8","","55","[""Black or African-American""]","No","Female","2077401","6431","","","{""product_choice"":""C""}","choice","tdc","repulsion_2","1","televisions","null","null","null","null","null","null","1","100","90","100","30","40","20","Screen size","Average lifespan","","",""
"","","","","","choice_trial_setup","html-keyboard-response","108","1833060","0.0-5.0-0.12","16","1","2025-04-10 18:47:00","7bd189e8e4882776c700e1dae255cdf5","","Mozilla/5.0 (Macintosh; Intel Mac OS X 10_15_7) AppleWebKit/605.1.15 (KHTML, like Gecko) Version/18.3.1 Safari/605.1.15","Macintosh","Safari","18.3.1","OS X","10_15_7","https://hz8g1ckzuq.cognition.run/","en-US,en;q=0.9","c11eg8xcv4fvry8","","55","[""Black or African-American""]","No","Female","2077401","null","","<p></p>","null","choice","ctd","attraction_2","1","microwave ovens","null","null","null","null","null","null","2","","","","","","","","","","",""
"","","","","","choice_trial","survey-html-form","109","1836934","0.0-5.0-1.12","16","1","2025-04-10 18:47:00","7bd189e8e4882776c700e1dae255cdf5","","Mozilla/5.0 (Macintosh; Intel Mac OS X 10_15_7) AppleWebKit/605.1.15 (KHTML, like Gecko) Version/18.3.1 Safari/605.1.15","Macintosh","Safari","18.3.1","OS X","10_15_7","https://hz8g1ckzuq.cognition.run/","en-US,en;q=0.9","c11eg8xcv4fvry8","","55","[""Black or African-American""]","No","Female","2077401","3847","","","{""product_choice"":""A""}","choice","ctd","attraction_2","1","microwave ovens","null","null","null","null","null","null","2","60","50","60","50","60","40","Warranty","Cooking power","","",""
"","","","","","choice_trial_setup","html-keyboard-response","110","1837243","0.0-5.0-0.13","16","1","2025-04-10 18:47:00","7bd189e8e4882776c700e1dae255cdf5","","Mozilla/5.0 (Macintosh; Intel Mac OS X 10_15_7) AppleWebKit/605.1.15 (KHTML, like Gecko) Version/18.3.1 Safari/605.1.15","Macintosh","Safari","18.3.1","OS X","10_15_7","https://hz8g1ckzuq.cognition.run/","en-US,en;q=0.9","c11eg8xcv4fvry8","","55","[""Black or African-American""]","No","Female","2077401","null","","<p></p>","null","choice","tdc","repulsion_1","1","laptops","null","null","null","null","null","null","2","","","","","","","","","","",""
"","","","","","choice_trial","survey-html-form","111","1841784","0.0-5.0-1.13","16","1","2025-04-10 18:47:00","7bd189e8e4882776c700e1dae255cdf5","","Mozilla/5.0 (Macintosh; Intel Mac OS X 10_15_7) AppleWebKit/605.1.15 (KHTML, like Gecko) Version/18.3.1 Safari/605.1.15","Macintosh","Safari","18.3.1","OS X","10_15_7","https://hz8g1ckzuq.cognition.run/","en-US,en;q=0.9","c11eg8xcv4fvry8","","55","[""Black or African-American""]","No","Female","2077401","4531","","","{""product_choice"":""C""}","choice","tdc","repulsion_1","1","laptops","null","null","null","null","null","null","2","100","90","100","30","40","25","Processing speed","Memory (RAM)","","",""
"","","","","","choice_trial_setup","html-keyboard-response","112","1842091","0.0-5.0-0.14","16","1","2025-04-10 18:47:00","7bd189e8e4882776c700e1dae255cdf5","","Mozilla/5.0 (Macintosh; Intel Mac OS X 10_15_7) AppleWebKit/605.1.15 (KHTML, like Gecko) Version/18.3.1 Safari/605.1.15","Macintosh","Safari","18.3.1","OS X","10_15_7","https://hz8g1ckzuq.cognition.run/","en-US,en;q=0.9","c11eg8xcv4fvry8","","55","[""Black or African-American""]","No","Female","2077401","null","","<p></p>","null","choice","dtc","repulsion_2","1","microwave ovens","null","null","null","null","null","null","1","","","","","","","","","","",""
"","","","","","choice_trial","survey-html-form","113","1845301","0.0-5.0-1.14","16","1","2025-04-10 18:47:00","7bd189e8e4882776c700e1dae255cdf5","","Mozilla/5.0 (Macintosh; Intel Mac OS X 10_15_7) AppleWebKit/605.1.15 (KHTML, like Gecko) Version/18.3.1 Safari/605.1.15","Macintosh","Safari","18.3.1","OS X","10_15_7","https://hz8g1ckzuq.cognition.run/","en-US,en;q=0.9","c11eg8xcv4fvry8","","55","[""Black or African-American""]","No","Female","2077401","3186","","","{""product_choice"":""C""}","choice","dtc","repulsion_2","1","microwave ovens","null","null","null","null","null","null","1","100","90","100","30","40","20","Warranty","Cooking power","","",""
"","","","","","choice_trial_setup","html-keyboard-response","114","1845608","0.0-5.0-0.15","16","1","2025-04-10 18:47:00","7bd189e8e4882776c700e1dae255cdf5","","Mozilla/5.0 (Macintosh; Intel Mac OS X 10_15_7) AppleWebKit/605.1.15 (KHTML, like Gecko) Version/18.3.1 Safari/605.1.15","Macintosh","Safari","18.3.1","OS X","10_15_7","https://hz8g1ckzuq.cognition.run/","en-US,en;q=0.9","c11eg8xcv4fvry8","","55","[""Black or African-American""]","No","Female","2077401","null","","<p></p>","null","choice","dct","repulsion_2","1","washing machines","null","null","null","null","null","null","1","","","","","","","","","","",""
"","","","","","choice_trial","survey-html-form","115","1850610","0.0-5.0-1.15","16","1","2025-04-10 18:47:00","7bd189e8e4882776c700e1dae255cdf5","","Mozilla/5.0 (Macintosh; Intel Mac OS X 10_15_7) AppleWebKit/605.1.15 (KHTML, like Gecko) Version/18.3.1 Safari/605.1.15","Macintosh","Safari","18.3.1","OS X","10_15_7","https://hz8g1ckzuq.cognition.run/","en-US,en;q=0.9","c11eg8xcv4fvry8","","55","[""Black or African-American""]","No","Female","2077401","4975","","","{""product_choice"":""B""}","choice","dct","repulsion_2","1","washing machines","null","null","null","null","null","null","1","100","90","100","30","40","20","Average lifespan","Energy savings","","",""
"","","","","","choice_trial_setup","html-keyboard-response","116","1850918","0.0-5.0-0.16","16","1","2025-04-10 18:47:00","7bd189e8e4882776c700e1dae255cdf5","","Mozilla/5.0 (Macintosh; Intel Mac OS X 10_15_7) AppleWebKit/605.1.15 (KHTML, like Gecko) Version/18.3.1 Safari/605.1.15","Macintosh","Safari","18.3.1","OS X","10_15_7","https://hz8g1ckzuq.cognition.run/","en-US,en;q=0.9","c11eg8xcv4fvry8","","55","[""Black or African-American""]","No","Female","2077401","null","","<p></p>","null","choice","dct","repulsion_1","2","televisions","null","null","null","null","null","null","1","","","","","","","","","","",""
"","","","","","choice_trial","survey-html-form","117","1854649","0.0-5.0-1.16","16","1","2025-04-10 18:47:00","7bd189e8e4882776c700e1dae255cdf5","","Mozilla/5.0 (Macintosh; Intel Mac OS X 10_15_7) AppleWebKit/605.1.15 (KHTML, like Gecko) Version/18.3.1 Safari/605.1.15","Macintosh","Safari","18.3.1","OS X","10_15_7","https://hz8g1ckzuq.cognition.run/","en-US,en;q=0.9","c11eg8xcv4fvry8","","55","[""Black or African-American""]","No","Female","2077401","3704","","","{""product_choice"":""B""}","choice","dct","repulsion_1","2","televisions","null","null","null","null","null","null","1","30","40","25","100","90","100","Screen size","Average lifespan","","",""
"","","","","","choice_trial_setup","html-keyboard-response","118","1854957","0.0-5.0-0.17","16","1","2025-04-10 18:47:00","7bd189e8e4882776c700e1dae255cdf5","","Mozilla/5.0 (Macintosh; Intel Mac OS X 10_15_7) AppleWebKit/605.1.15 (KHTML, like Gecko) Version/18.3.1 Safari/605.1.15","Macintosh","Safari","18.3.1","OS X","10_15_7","https://hz8g1ckzuq.cognition.run/","en-US,en;q=0.9","c11eg8xcv4fvry8","","55","[""Black or African-American""]","No","Female","2077401","null","","<p></p>","null","choice","wwb","catch","null","washing machines","95","50","15","20","40","20","2","","","","","","","","","","",""
"","","","","","choice_trial","survey-html-form","119","1857789","0.0-5.0-1.17","16","1","2025-04-10 18:47:00","7bd189e8e4882776c700e1dae255cdf5","","Mozilla/5.0 (Macintosh; Intel Mac OS X 10_15_7) AppleWebKit/605.1.15 (KHTML, like Gecko) Version/18.3.1 Safari/605.1.15","Macintosh","Safari","18.3.1","OS X","10_15_7","https://hz8g1ckzuq.cognition.run/","en-US,en;q=0.9","c11eg8xcv4fvry8","","55","[""Black or African-American""]","No","Female","2077401","2811","","","{""product_choice"":""C""}","choice","wwb","catch","null","washing machines","95","50","15","20","40","20","2","null","null","null","null","null","null","Average lifespan","Energy savings","","",""
"","","","","","choice_trial_setup","html-keyboard-response","120","1858097","0.0-5.0-0.18","16","1","2025-04-10 18:47:00","7bd189e8e4882776c700e1dae255cdf5","","Mozilla/5.0 (Macintosh; Intel Mac OS X 10_15_7) AppleWebKit/605.1.15 (KHTML, like Gecko) Version/18.3.1 Safari/605.1.15","Macintosh","Safari","18.3.1","OS X","10_15_7","https://hz8g1ckzuq.cognition.run/","en-US,en;q=0.9","c11eg8xcv4fvry8","","55","[""Black or African-American""]","No","Female","2077401","null","","<p></p>","null","choice","wbw","catch","null","laptops","80","50","20","25","25","45","2","","","","","","","","","","",""
"","","","","","choice_trial","survey-html-form","121","1862310","0.0-5.0-1.18","16","1","2025-04-10 18:47:00","7bd189e8e4882776c700e1dae255cdf5","","Mozilla/5.0 (Macintosh; Intel Mac OS X 10_15_7) AppleWebKit/605.1.15 (KHTML, like Gecko) Version/18.3.1 Safari/605.1.15","Macintosh","Safari","18.3.1","OS X","10_15_7","https://hz8g1ckzuq.cognition.run/","en-US,en;q=0.9","c11eg8xcv4fvry8","","55","[""Black or African-American""]","No","Female","2077401","4193","","","{""product_choice"":""B""}","choice","wbw","catch","null","laptops","80","50","20","25","25","45","2","null","null","null","null","null","null","Processing speed","Memory (RAM)","","",""
"","","","","","choice_trial_setup","html-keyboard-response","122","1862618","0.0-5.0-0.19","16","1","2025-04-10 18:47:00","7bd189e8e4882776c700e1dae255cdf5","","Mozilla/5.0 (Macintosh; Intel Mac OS X 10_15_7) AppleWebKit/605.1.15 (KHTML, like Gecko) Version/18.3.1 Safari/605.1.15","Macintosh","Safari","18.3.1","OS X","10_15_7","https://hz8g1ckzuq.cognition.run/","en-US,en;q=0.9","c11eg8xcv4fvry8","","55","[""Black or African-American""]","No","Female","2077401","null","","<p></p>","null","choice","wwb","catch","null","televisions","60","95","45","45","5","50","2","","","","","","","","","","",""
"","","","","","choice_trial","survey-html-form","123","1865919","0.0-5.0-1.19","16","1","2025-04-10 18:47:00","7bd189e8e4882776c700e1dae255cdf5","","Mozilla/5.0 (Macintosh; Intel Mac OS X 10_15_7) AppleWebKit/605.1.15 (KHTML, like Gecko) Version/18.3.1 Safari/605.1.15","Macintosh","Safari","18.3.1","OS X","10_15_7","https://hz8g1ckzuq.cognition.run/","en-US,en;q=0.9","c11eg8xcv4fvry8","","55","[""Black or African-American""]","No","Female","2077401","3280","","","{""product_choice"":""C""}","choice","wwb","catch","null","televisions","60","95","45","45","5","50","2","null","null","null","null","null","null","Screen size","Average lifespan","","",""
"","","","","","choice_trial_setup","html-keyboard-response","124","1866227","0.0-5.0-0.20","16","1","2025-04-10 18:47:00","7bd189e8e4882776c700e1dae255cdf5","","Mozilla/5.0 (Macintosh; Intel Mac OS X 10_15_7) AppleWebKit/605.1.15 (KHTML, like Gecko) Version/18.3.1 Safari/605.1.15","Macintosh","Safari","18.3.1","OS X","10_15_7","https://hz8g1ckzuq.cognition.run/","en-US,en;q=0.9","c11eg8xcv4fvry8","","55","[""Black or African-American""]","No","Female","2077401","null","","<p></p>","null","choice","tcd","attraction_1","2","microwave ovens","null","null","null","null","null","null","1","","","","","","","","","","",""
"","","","","","choice_trial","survey-html-form","125","1869140","0.0-5.0-1.20","16","1","2025-04-10 18:47:00","7bd189e8e4882776c700e1dae255cdf5","","Mozilla/5.0 (Macintosh; Intel Mac OS X 10_15_7) AppleWebKit/605.1.15 (KHTML, like Gecko) Version/18.3.1 Safari/605.1.15","Macintosh","Safari","18.3.1","OS X","10_15_7","https://hz8g1ckzuq.cognition.run/","en-US,en;q=0.9","c11eg8xcv4fvry8","","55","[""Black or African-American""]","No","Female","2077401","2887","","","{""product_choice"":""A""}","choice","tcd","attraction_1","2","microwave ovens","null","null","null","null","null","null","1","50","60","45","60","50","60","Warranty","Cooking power","","",""
"","","","","","choice_trial_setup","html-keyboard-response","126","1869447","0.0-5.0-0.21","16","1","2025-04-10 18:47:00","7bd189e8e4882776c700e1dae255cdf5","","Mozilla/5.0 (Macintosh; Intel Mac OS X 10_15_7) AppleWebKit/605.1.15 (KHTML, like Gecko) Version/18.3.1 Safari/605.1.15","Macintosh","Safari","18.3.1","OS X","10_15_7","https://hz8g1ckzuq.cognition.run/","en-US,en;q=0.9","c11eg8xcv4fvry8","","55","[""Black or African-American""]","No","Female","2077401","null","","<p></p>","null","choice","dct","attraction_2","2","televisions","null","null","null","null","null","null","2","","","","","","","","","","",""
"","","","","","choice_trial","survey-html-form","127","1872138","0.0-5.0-1.21","16","1","2025-04-10 18:47:00","7bd189e8e4882776c700e1dae255cdf5","","Mozilla/5.0 (Macintosh; Intel Mac OS X 10_15_7) AppleWebKit/605.1.15 (KHTML, like Gecko) Version/18.3.1 Safari/605.1.15","Macintosh","Safari","18.3.1","OS X","10_15_7","https://hz8g1ckzuq.cognition.run/","en-US,en;q=0.9","c11eg8xcv4fvry8","","55","[""Black or African-American""]","No","Female","2077401","2670","","","{""product_choice"":""A""}","choice","dct","attraction_2","2","televisions","null","null","null","null","null","null","2","50","60","40","60","50","60","Screen size","Average lifespan","","",""
"","","","","","choice_trial_setup","html-keyboard-response","128","1872447","0.0-5.0-0.22","16","1","2025-04-10 18:47:00","7bd189e8e4882776c700e1dae255cdf5","","Mozilla/5.0 (Macintosh; Intel Mac OS X 10_15_7) AppleWebKit/605.1.15 (KHTML, like Gecko) Version/18.3.1 Safari/605.1.15","Macintosh","Safari","18.3.1","OS X","10_15_7","https://hz8g1ckzuq.cognition.run/","en-US,en;q=0.9","c11eg8xcv4fvry8","","55","[""Black or African-American""]","No","Female","2077401","null","","<p></p>","null","choice","cdt","attraction_1","2","televisions","null","null","null","null","null","null","1","","","","","","","","","","",""
"","","","","","choice_trial","survey-html-form","129","1876518","0.0-5.0-1.22","16","1","2025-04-10 18:47:00","7bd189e8e4882776c700e1dae255cdf5","","Mozilla/5.0 (Macintosh; Intel Mac OS X 10_15_7) AppleWebKit/605.1.15 (KHTML, like Gecko) Version/18.3.1 Safari/605.1.15","Macintosh","Safari","18.3.1","OS X","10_15_7","https://hz8g1ckzuq.cognition.run/","en-US,en;q=0.9","c11eg8xcv4fvry8","","55","[""Black or African-American""]","No","Female","2077401","4047","","","{""product_choice"":""A""}","choice","cdt","attraction_1","2","televisions","null","null","null","null","null","null","1","50","60","45","60","50","60","Screen size","Average lifespan","","",""
"","","","","","choice_trial_setup","html-keyboard-response","130","1876825","0.0-5.0-0.23","16","1","2025-04-10 18:47:00","7bd189e8e4882776c700e1dae255cdf5","","Mozilla/5.0 (Macintosh; Intel Mac OS X 10_15_7) AppleWebKit/605.1.15 (KHTML, like Gecko) Version/18.3.1 Safari/605.1.15","Macintosh","Safari","18.3.1","OS X","10_15_7","https://hz8g1ckzuq.cognition.run/","en-US,en;q=0.9","c11eg8xcv4fvry8","","55","[""Black or African-American""]","No","Female","2077401","null","","<p></p>","null","choice","cdt","attraction_2","1","laptops","null","null","null","null","null","null","2","","","","","","","","","","",""
"","","","","","choice_trial","survey-html-form","131","1880784","0.0-5.0-1.23","16","1","2025-04-10 18:47:00","7bd189e8e4882776c700e1dae255cdf5","","Mozilla/5.0 (Macintosh; Intel Mac OS X 10_15_7) AppleWebKit/605.1.15 (KHTML, like Gecko) Version/18.3.1 Safari/605.1.15","Macintosh","Safari","18.3.1","OS X","10_15_7","https://hz8g1ckzuq.cognition.run/","en-US,en;q=0.9","c11eg8xcv4fvry8","","55","[""Black or African-American""]","No","Female","2077401","3936","","","{""product_choice"":""A""}","choice","cdt","attraction_2","1","laptops","null","null","null","null","null","null","2","60","50","60","50","60","40","Processing speed","Memory (RAM)","","",""
"","","","","","choice_trial_setup","html-keyboard-response","132","1881090","0.0-5.0-0.24","16","1","2025-04-10 18:47:00","7bd189e8e4882776c700e1dae255cdf5","","Mozilla/5.0 (Macintosh; Intel Mac OS X 10_15_7) AppleWebKit/605.1.15 (KHTML, like Gecko) Version/18.3.1 Safari/605.1.15","Macintosh","Safari","18.3.1","OS X","10_15_7","https://hz8g1ckzuq.cognition.run/","en-US,en;q=0.9","c11eg8xcv4fvry8","","55","[""Black or African-American""]","No","Female","2077401","null","","<p></p>","null","choice","dtc","repulsion_2","2","laptops","null","null","null","null","null","null","1","","","","","","","","","","",""
"","","","","","choice_trial","survey-html-form","133","1883505","0.0-5.0-1.24","16","1","2025-04-10 18:47:00","7bd189e8e4882776c700e1dae255cdf5","","Mozilla/5.0 (Macintosh; Intel Mac OS X 10_15_7) AppleWebKit/605.1.15 (KHTML, like Gecko) Version/18.3.1 Safari/605.1.15","Macintosh","Safari","18.3.1","OS X","10_15_7","https://hz8g1ckzuq.cognition.run/","en-US,en;q=0.9","c11eg8xcv4fvry8","","55","[""Black or African-American""]","No","Female","2077401","2405","","","{""product_choice"":""C""}","choice","dtc","repulsion_2","2","laptops","null","null","null","null","null","null","1","30","40","20","100","90","100","Processing speed","Memory (RAM)","","",""
"","","","","","choice_trial_setup","html-keyboard-response","134","1883813","0.0-5.0-0.25","16","1","2025-04-10 18:47:00","7bd189e8e4882776c700e1dae255cdf5","","Mozilla/5.0 (Macintosh; Intel Mac OS X 10_15_7) AppleWebKit/605.1.15 (KHTML, like Gecko) Version/18.3.1 Safari/605.1.15","Macintosh","Safari","18.3.1","OS X","10_15_7","https://hz8g1ckzuq.cognition.run/","en-US,en;q=0.9","c11eg8xcv4fvry8","","55","[""Black or African-American""]","No","Female","2077401","null","","<p></p>","null","choice","ctd","repulsion_2","2","microwave ovens","null","null","null","null","null","null","1","","","","","","","","","","",""
"","","","","","choice_trial","survey-html-form","135","1895634","0.0-5.0-1.25","16","1","2025-04-10 18:47:00","7bd189e8e4882776c700e1dae255cdf5","","Mozilla/5.0 (Macintosh; Intel Mac OS X 10_15_7) AppleWebKit/605.1.15 (KHTML, like Gecko) Version/18.3.1 Safari/605.1.15","Macintosh","Safari","18.3.1","OS X","10_15_7","https://hz8g1ckzuq.cognition.run/","en-US,en;q=0.9","c11eg8xcv4fvry8","","55","[""Black or African-American""]","No","Female","2077401","11786","","","{""product_choice"":""A""}","choice","ctd","repulsion_2","2","microwave ovens","null","null","null","null","null","null","1","30","40","20","100","90","100","Warranty","Cooking power","","",""
"","","","","","choice_trial_setup","html-keyboard-response","136","1895944","0.0-5.0-0.26","16","1","2025-04-10 18:47:00","7bd189e8e4882776c700e1dae255cdf5","","Mozilla/5.0 (Macintosh; Intel Mac OS X 10_15_7) AppleWebKit/605.1.15 (KHTML, like Gecko) Version/18.3.1 Safari/605.1.15","Macintosh","Safari","18.3.1","OS X","10_15_7","https://hz8g1ckzuq.cognition.run/","en-US,en;q=0.9","c11eg8xcv4fvry8","","55","[""Black or African-American""]","No","Female","2077401","null","","<p></p>","null","choice","ctd","attraction_1","2","laptops","null","null","null","null","null","null","2","","","","","","","","","","",""
"","","","","","choice_trial","survey-html-form","137","1902433","0.0-5.0-1.26","16","1","2025-04-10 18:47:00","7bd189e8e4882776c700e1dae255cdf5","","Mozilla/5.0 (Macintosh; Intel Mac OS X 10_15_7) AppleWebKit/605.1.15 (KHTML, like Gecko) Version/18.3.1 Safari/605.1.15","Macintosh","Safari","18.3.1","OS X","10_15_7","https://hz8g1ckzuq.cognition.run/","en-US,en;q=0.9","c11eg8xcv4fvry8","","55","[""Black or African-American""]","No","Female","2077401","6466","","","{""product_choice"":""B""}","choice","ctd","attraction_1","2","laptops","null","null","null","null","null","null","2","50","60","45","60","50","60","Processing speed","Memory (RAM)","","",""
"","","","","","choice_trial_setup","html-keyboard-response","138","1902741","0.0-5.0-0.27","16","1","2025-04-10 18:47:00","7bd189e8e4882776c700e1dae255cdf5","","Mozilla/5.0 (Macintosh; Intel Mac OS X 10_15_7) AppleWebKit/605.1.15 (KHTML, like Gecko) Version/18.3.1 Safari/605.1.15","Macintosh","Safari","18.3.1","OS X","10_15_7","https://hz8g1ckzuq.cognition.run/","en-US,en;q=0.9","c11eg8xcv4fvry8","","55","[""Black or African-American""]","No","Female","2077401","null","","<p></p>","null","choice","ctd","attraction_1","1","washing machines","null","null","null","null","null","null","1","","","","","","","","","","",""
"","","","","","choice_trial","survey-html-form","139","1910943","0.0-5.0-1.27","16","1","2025-04-10 18:47:00","7bd189e8e4882776c700e1dae255cdf5","","Mozilla/5.0 (Macintosh; Intel Mac OS X 10_15_7) AppleWebKit/605.1.15 (KHTML, like Gecko) Version/18.3.1 Safari/605.1.15","Macintosh","Safari","18.3.1","OS X","10_15_7","https://hz8g1ckzuq.cognition.run/","en-US,en;q=0.9","c11eg8xcv4fvry8","","55","[""Black or African-American""]","No","Female","2077401","8177","","","{""product_choice"":""B""}","choice","ctd","attraction_1","1","washing machines","null","null","null","null","null","null","1","60","50","60","50","60","45","Average lifespan","Energy savings","","",""
"","","","","","choice_trial_setup","html-keyboard-response","140","1911249","0.0-5.0-0.28","16","1","2025-04-10 18:47:00","7bd189e8e4882776c700e1dae255cdf5","","Mozilla/5.0 (Macintosh; Intel Mac OS X 10_15_7) AppleWebKit/605.1.15 (KHTML, like Gecko) Version/18.3.1 Safari/605.1.15","Macintosh","Safari","18.3.1","OS X","10_15_7","https://hz8g1ckzuq.cognition.run/","en-US,en;q=0.9","c11eg8xcv4fvry8","","55","[""Black or African-American""]","No","Female","2077401","null","","<p></p>","null","choice","tdc","repulsion_1","2","laptops","null","null","null","null","null","null","2","","","","","","","","","","",""
"","","","","","choice_trial","survey-html-form","141","1916675","0.0-5.0-1.28","16","1","2025-04-10 18:47:00","7bd189e8e4882776c700e1dae255cdf5","","Mozilla/5.0 (Macintosh; Intel Mac OS X 10_15_7) AppleWebKit/605.1.15 (KHTML, like Gecko) Version/18.3.1 Safari/605.1.15","Macintosh","Safari","18.3.1","OS X","10_15_7","https://hz8g1ckzuq.cognition.run/","en-US,en;q=0.9","c11eg8xcv4fvry8","","55","[""Black or African-American""]","No","Female","2077401","5404","","","{""product_choice"":""C""}","choice","tdc","repulsion_1","2","laptops","null","null","null","null","null","null","2","30","40","25","100","90","100","Processing speed","Memory (RAM)","","",""
"","","","","","choice_trial_setup","html-keyboard-response","142","1916982","0.0-5.0-0.29","16","1","2025-04-10 18:47:00","7bd189e8e4882776c700e1dae255cdf5","","Mozilla/5.0 (Macintosh; Intel Mac OS X 10_15_7) AppleWebKit/605.1.15 (KHTML, like Gecko) Version/18.3.1 Safari/605.1.15","Macintosh","Safari","18.3.1","OS X","10_15_7","https://hz8g1ckzuq.cognition.run/","en-US,en;q=0.9","c11eg8xcv4fvry8","","55","[""Black or African-American""]","No","Female","2077401","null","","<p></p>","null","choice","bww","catch","null","washing machines","80","50","10","50","25","25","2","","","","","","","","","","",""
"","","","","","choice_trial","survey-html-form","143","1920347","0.0-5.0-1.29","16","1","2025-04-10 18:47:00","7bd189e8e4882776c700e1dae255cdf5","","Mozilla/5.0 (Macintosh; Intel Mac OS X 10_15_7) AppleWebKit/605.1.15 (KHTML, like Gecko) Version/18.3.1 Safari/605.1.15","Macintosh","Safari","18.3.1","OS X","10_15_7","https://hz8g1ckzuq.cognition.run/","en-US,en;q=0.9","c11eg8xcv4fvry8","","55","[""Black or African-American""]","No","Female","2077401","3339","","","{""product_choice"":""A""}","choice","bww","catch","null","washing machines","80","50","10","50","25","25","2","null","null","null","null","null","null","Average lifespan","Energy savings","","",""
"","","","","","choice_trial_setup","html-keyboard-response","144","1920655","0.0-5.0-0.30","16","1","2025-04-10 18:47:00","7bd189e8e4882776c700e1dae255cdf5","","Mozilla/5.0 (Macintosh; Intel Mac OS X 10_15_7) AppleWebKit/605.1.15 (KHTML, like Gecko) Version/18.3.1 Safari/605.1.15","Macintosh","Safari","18.3.1","OS X","10_15_7","https://hz8g1ckzuq.cognition.run/","en-US,en;q=0.9","c11eg8xcv4fvry8","","55","[""Black or African-American""]","No","Female","2077401","null","","<p></p>","null","choice","wwb","catch","null","microwave ovens","60","70","40","25","25","40","2","","","","","","","","","","",""
"","","","","","choice_trial","survey-html-form","145","1923868","0.0-5.0-1.30","16","1","2025-04-10 18:47:00","7bd189e8e4882776c700e1dae255cdf5","","Mozilla/5.0 (Macintosh; Intel Mac OS X 10_15_7) AppleWebKit/605.1.15 (KHTML, like Gecko) Version/18.3.1 Safari/605.1.15","Macintosh","Safari","18.3.1","OS X","10_15_7","https://hz8g1ckzuq.cognition.run/","en-US,en;q=0.9","c11eg8xcv4fvry8","","55","[""Black or African-American""]","No","Female","2077401","3188","","","{""product_choice"":""C""}","choice","wwb","catch","null","microwave ovens","60","70","40","25","25","40","2","null","null","null","null","null","null","Warranty","Cooking power","","",""
"","","","","","choice_trial_setup","html-keyboard-response","146","1924177","0.0-5.0-0.31","16","1","2025-04-10 18:47:00","7bd189e8e4882776c700e1dae255cdf5","","Mozilla/5.0 (Macintosh; Intel Mac OS X 10_15_7) AppleWebKit/605.1.15 (KHTML, like Gecko) Version/18.3.1 Safari/605.1.15","Macintosh","Safari","18.3.1","OS X","10_15_7","https://hz8g1ckzuq.cognition.run/","en-US,en;q=0.9","c11eg8xcv4fvry8","","55","[""Black or African-American""]","No","Female","2077401","null","","<p></p>","null","choice","dtc","attraction_2","1","washing machines","null","null","null","null","null","null","2","","","","","","","","","","",""
"","","","","","choice_trial","survey-html-form","147","1926811","0.0-5.0-1.31","16","1","2025-04-10 18:47:00","7bd189e8e4882776c700e1dae255cdf5","","Mozilla/5.0 (Macintosh; Intel Mac OS X 10_15_7) AppleWebKit/605.1.15 (KHTML, like Gecko) Version/18.3.1 Safari/605.1.15","Macintosh","Safari","18.3.1","OS X","10_15_7","https://hz8g1ckzuq.cognition.run/","en-US,en;q=0.9","c11eg8xcv4fvry8","","55","[""Black or African-American""]","No","Female","2077401","2603","","","{""product_choice"":""C""}","choice","dtc","attraction_2","1","washing machines","null","null","null","null","null","null","2","60","50","60","50","60","40","Average lifespan","Energy savings","","",""
"","","","","","choice_trial_setup","html-keyboard-response","148","1927120","0.0-5.0-0.32","16","1","2025-04-10 18:47:00","7bd189e8e4882776c700e1dae255cdf5","","Mozilla/5.0 (Macintosh; Intel Mac OS X 10_15_7) AppleWebKit/605.1.15 (KHTML, like Gecko) Version/18.3.1 Safari/605.1.15","Macintosh","Safari","18.3.1","OS X","10_15_7","https://hz8g1ckzuq.cognition.run/","en-US,en;q=0.9","c11eg8xcv4fvry8","","55","[""Black or African-American""]","No","Female","2077401","null","","<p></p>","null","choice","cdt","repulsion_1","1","microwave ovens","null","null","null","null","null","null","2","","","","","","","","","","",""
"","","","","","choice_trial","survey-html-form","149","1929921","0.0-5.0-1.32","16","1","2025-04-10 18:47:00","7bd189e8e4882776c700e1dae255cdf5","","Mozilla/5.0 (Macintosh; Intel Mac OS X 10_15_7) AppleWebKit/605.1.15 (KHTML, like Gecko) Version/18.3.1 Safari/605.1.15","Macintosh","Safari","18.3.1","OS X","10_15_7","https://hz8g1ckzuq.cognition.run/","en-US,en;q=0.9","c11eg8xcv4fvry8","","55","[""Black or African-American""]","No","Female","2077401","2780","","","{""product_choice"":""A""}","choice","cdt","repulsion_1","1","microwave ovens","null","null","null","null","null","null","2","100","90","100","30","40","25","Warranty","Cooking power","","",""
"","","","","","choice_trial_setup","html-keyboard-response","150","1930230","0.0-5.0-0.33","16","1","2025-04-10 18:47:00","7bd189e8e4882776c700e1dae255cdf5","","Mozilla/5.0 (Macintosh; Intel Mac OS X 10_15_7) AppleWebKit/605.1.15 (KHTML, like Gecko) Version/18.3.1 Safari/605.1.15","Macintosh","Safari","18.3.1","OS X","10_15_7","https://hz8g1ckzuq.cognition.run/","en-US,en;q=0.9","c11eg8xcv4fvry8","","55","[""Black or African-American""]","No","Female","2077401","null","","<p></p>","null","choice","cdt","repulsion_2","1","laptops","null","null","null","null","null","null","1","","","","","","","","","","",""
"","","","","","choice_trial","survey-html-form","151","1934539","0.0-5.0-1.33","16","1","2025-04-10 18:47:00","7bd189e8e4882776c700e1dae255cdf5","","Mozilla/5.0 (Macintosh; Intel Mac OS X 10_15_7) AppleWebKit/605.1.15 (KHTML, like Gecko) Version/18.3.1 Safari/605.1.15","Macintosh","Safari","18.3.1","OS X","10_15_7","https://hz8g1ckzuq.cognition.run/","en-US,en;q=0.9","c11eg8xcv4fvry8","","55","[""Black or African-American""]","No","Female","2077401","4283","","","{""product_choice"":""A""}","choice","cdt","repulsion_2","1","laptops","null","null","null","null","null","null","1","100","90","100","30","40","20","Processing speed","Memory (RAM)","","",""
