"success","timeout","failed_images","failed_audio","failed_video","screen_id","trial_type","trial_index","time_elapsed","internal_node_id","run_id","condition","recorded_at","source_code_version","ip","user_agent","device","browser","browser_version","platform","platform_version","referer","accept_language","ppt_id","final_score","age","race","ethnicity","gender","exp_duration","rt","view_history","stimulus","response","phase","order","effect","t_high","category","d1_best","d2_best","d1_worst1","d2_worst1","d1_worst2","d2_worst2","first_dim","d1_t","d1_c","d1_d","d2_t","d2_c","d2_d","d1_name","d2_name","strategy_response","trialType","question_order"
"true","false","[]","[]","[]","img preload","preload","0","490","0.0-0.0","2","1","2025-04-10 18:08:35","7bd189e8e4882776c700e1dae255cdf5","","Mozilla/5.0 (Windows NT 10.0; Win64; x64) AppleWebKit/537.36 (KHTML, like Gecko) Chrome/135.0.0.0 Safari/537.36","WebKit","Chrome","135.0.0.0","Windows","10.0","https://hz8g1ckzuq.cognition.run/","en-US,en;q=0.9","yduro0ddlx59wjq","","34","[""White""]","No","Male","1759731.599999994","","","","","","","","","","","","","","","","","","","","","","","","","","",""
"true","","","","","","fullscreen","1","3290","0.0-1.0","2","1","2025-04-10 18:08:35","7bd189e8e4882776c700e1dae255cdf5","","Mozilla/5.0 (Windows NT 10.0; Win64; x64) AppleWebKit/537.36 (KHTML, like Gecko) Chrome/135.0.0.0 Safari/537.36","WebKit","Chrome","135.0.0.0","Windows","10.0","https://hz8g1ckzuq.cognition.run/","en-US,en;q=0.9","yduro0ddlx59wjq","","34","[""White""]","No","Male","1759731.599999994","1786","","","","","","","","","","","","","","","","","","","","","","","","","",""
"","","","","","","instructions","2","66541","0.0-2.0","2","1","2025-04-10 18:08:35","7bd189e8e4882776c700e1dae255cdf5","","Mozilla/5.0 (Windows NT 10.0; Win64; x64) AppleWebKit/537.36 (KHTML, like Gecko) Chrome/135.0.0.0 Safari/537.36","WebKit","Chrome","135.0.0.0","Windows","10.0","https://hz8g1ckzuq.cognition.run/","en-US,en;q=0.9","yduro0ddlx59wjq","","34","[""White""]","No","Male","1759731.599999994","63249","[{""page_index"":0,""viewing_time"":1812},{""page_index"":1,""viewing_time"":3448},{""page_index"":2,""viewing_time"":3356},{""page_index"":3,""viewing_time"":4528},{""page_index"":4,""viewing_time"":6482},{""page_index"":5,""viewing_time"":4968},{""page_index"":6,""viewing_time"":5568},{""page_index"":7,""viewing_time"":24162},{""page_index"":8,""viewing_time"":5550},{""page_index"":9,""viewing_time"":3374}]","","","","","","","","","","","","","","","","","","","","","","","","",""
"","","","","","rating_trial_setup","html-keyboard-response","3","66845","0.0-3.0-0.0","2","1","2025-04-10 18:08:35","7bd189e8e4882776c700e1dae255cdf5","","Mozilla/5.0 (Windows NT 10.0; Win64; x64) AppleWebKit/537.36 (KHTML, like Gecko) Chrome/135.0.0.0 Safari/537.36","WebKit","Chrome","135.0.0.0","Windows","10.0","https://hz8g1ckzuq.cognition.run/","en-US,en;q=0.9","yduro0ddlx59wjq","","34","[""White""]","No","Male","1759731.599999994","null","","<p></p>","null","rating","cdt","attraction_1","2","washing machines","null","null","null","null","null","null","2","","","","","","","","","","",""
"","","","","","rating_trial","survey-html-form","4","153844","0.0-3.0-1.0","2","1","2025-04-10 18:08:35","7bd189e8e4882776c700e1dae255cdf5","","Mozilla/5.0 (Windows NT 10.0; Win64; x64) AppleWebKit/537.36 (KHTML, like Gecko) Chrome/135.0.0.0 Safari/537.36","WebKit","Chrome","135.0.0.0","Windows","10.0","https://hz8g1ckzuq.cognition.run/","en-US,en;q=0.9","yduro0ddlx59wjq","","34","[""White""]","No","Male","1759731.599999994","86994","","","{""price_1"":""225"",""price_2"":""250"",""price_3"":""300""}","rating","cdt","attraction_1","2","washing machines","null","null","null","null","null","null","2","50","60","45","60","50","60","Average lifespan","Energy savings","","",""
"","","","","","rating_trial_setup","html-keyboard-response","5","154147","0.0-3.0-0.1","2","1","2025-04-10 18:08:35","7bd189e8e4882776c700e1dae255cdf5","","Mozilla/5.0 (Windows NT 10.0; Win64; x64) AppleWebKit/537.36 (KHTML, like Gecko) Chrome/135.0.0.0 Safari/537.36","WebKit","Chrome","135.0.0.0","Windows","10.0","https://hz8g1ckzuq.cognition.run/","en-US,en;q=0.9","yduro0ddlx59wjq","","34","[""White""]","No","Male","1759731.599999994","null","","<p></p>","null","rating","dtc","repulsion_2","1","microwave ovens","null","null","null","null","null","null","1","","","","","","","","","","",""
"","","","","","rating_trial","survey-html-form","6","221026","0.0-3.0-1.1","2","1","2025-04-10 18:08:35","7bd189e8e4882776c700e1dae255cdf5","","Mozilla/5.0 (Windows NT 10.0; Win64; x64) AppleWebKit/537.36 (KHTML, like Gecko) Chrome/135.0.0.0 Safari/537.36","WebKit","Chrome","135.0.0.0","Windows","10.0","https://hz8g1ckzuq.cognition.run/","en-US,en;q=0.9","yduro0ddlx59wjq","","34","[""White""]","No","Male","1759731.599999994","66875","","","{""price_1"":""50"",""price_2"":""60"",""price_3"":""55""}","rating","dtc","repulsion_2","1","microwave ovens","null","null","null","null","null","null","1","100","90","100","30","40","20","Warranty","Cooking power","","",""
"","","","","","rating_trial_setup","html-keyboard-response","7","221329","0.0-3.0-0.2","2","1","2025-04-10 18:08:35","7bd189e8e4882776c700e1dae255cdf5","","Mozilla/5.0 (Windows NT 10.0; Win64; x64) AppleWebKit/537.36 (KHTML, like Gecko) Chrome/135.0.0.0 Safari/537.36","WebKit","Chrome","135.0.0.0","Windows","10.0","https://hz8g1ckzuq.cognition.run/","en-US,en;q=0.9","yduro0ddlx59wjq","","34","[""White""]","No","Male","1759731.599999994","null","","<p></p>","null","rating","bww","catch","null","laptops","55","70","25","35","5","25","1","","","","","","","","","","",""
"","","","","","rating_trial","survey-html-form","8","259298","0.0-3.0-1.2","2","1","2025-04-10 18:08:35","7bd189e8e4882776c700e1dae255cdf5","","Mozilla/5.0 (Windows NT 10.0; Win64; x64) AppleWebKit/537.36 (KHTML, like Gecko) Chrome/135.0.0.0 Safari/537.36","WebKit","Chrome","135.0.0.0","Windows","10.0","https://hz8g1ckzuq.cognition.run/","en-US,en;q=0.9","yduro0ddlx59wjq","","34","[""White""]","No","Male","1759731.599999994","37964","","","{""price_1"":""750"",""price_2"":""500"",""price_3"":""250""}","rating","bww","catch","null","laptops","55","70","25","35","5","25","1","null","null","null","null","null","null","Processing speed","Memory (RAM)","","",""
"","","","","","rating_trial_setup","html-keyboard-response","9","259602","0.0-3.0-0.3","2","1","2025-04-10 18:08:35","7bd189e8e4882776c700e1dae255cdf5","","Mozilla/5.0 (Windows NT 10.0; Win64; x64) AppleWebKit/537.36 (KHTML, like Gecko) Chrome/135.0.0.0 Safari/537.36","WebKit","Chrome","135.0.0.0","Windows","10.0","https://hz8g1ckzuq.cognition.run/","en-US,en;q=0.9","yduro0ddlx59wjq","","34","[""White""]","No","Male","1759731.599999994","null","","<p></p>","null","rating","tdc","attraction_2","2","televisions","null","null","null","null","null","null","1","","","","","","","","","","",""
"","","","","","rating_trial","survey-html-form","10","298428","0.0-3.0-1.3","2","1","2025-04-10 18:08:35","7bd189e8e4882776c700e1dae255cdf5","","Mozilla/5.0 (Windows NT 10.0; Win64; x64) AppleWebKit/537.36 (KHTML, like Gecko) Chrome/135.0.0.0 Safari/537.36","WebKit","Chrome","135.0.0.0","Windows","10.0","https://hz8g1ckzuq.cognition.run/","en-US,en;q=0.9","yduro0ddlx59wjq","","34","[""White""]","No","Male","1759731.599999994","38822","","","{""price_1"":""350"",""price_2"":""300"",""price_3"":""500""}","rating","tdc","attraction_2","2","televisions","null","null","null","null","null","null","1","50","60","40","60","50","60","Screen size","Average lifespan","","",""
"","","","","","rating_trial_setup","html-keyboard-response","11","298732","0.0-3.0-0.4","2","1","2025-04-10 18:08:35","7bd189e8e4882776c700e1dae255cdf5","","Mozilla/5.0 (Windows NT 10.0; Win64; x64) AppleWebKit/537.36 (KHTML, like Gecko) Chrome/135.0.0.0 Safari/537.36","WebKit","Chrome","135.0.0.0","Windows","10.0","https://hz8g1ckzuq.cognition.run/","en-US,en;q=0.9","yduro0ddlx59wjq","","34","[""White""]","No","Male","1759731.599999994","null","","<p></p>","null","rating","tcd","attraction_2","1","laptops","null","null","null","null","null","null","2","","","","","","","","","","",""
"","","","","","rating_trial","survey-html-form","12","342122","0.0-3.0-1.4","2","1","2025-04-10 18:08:35","7bd189e8e4882776c700e1dae255cdf5","","Mozilla/5.0 (Windows NT 10.0; Win64; x64) AppleWebKit/537.36 (KHTML, like Gecko) Chrome/135.0.0.0 Safari/537.36","WebKit","Chrome","135.0.0.0","Windows","10.0","https://hz8g1ckzuq.cognition.run/","en-US,en;q=0.9","yduro0ddlx59wjq","","34","[""White""]","No","Male","1759731.599999994","43386","","","{""price_1"":""450"",""price_2"":""500"",""price_3"":""400""}","rating","tcd","attraction_2","1","laptops","null","null","null","null","null","null","2","60","50","60","50","60","40","Processing speed","Memory (RAM)","","",""
"","","","","","rating_trial_setup","html-keyboard-response","13","342425","0.0-3.0-0.5","2","1","2025-04-10 18:08:35","7bd189e8e4882776c700e1dae255cdf5","","Mozilla/5.0 (Windows NT 10.0; Win64; x64) AppleWebKit/537.36 (KHTML, like Gecko) Chrome/135.0.0.0 Safari/537.36","WebKit","Chrome","135.0.0.0","Windows","10.0","https://hz8g1ckzuq.cognition.run/","en-US,en;q=0.9","yduro0ddlx59wjq","","34","[""White""]","No","Male","1759731.599999994","null","","<p></p>","null","rating","tdc","attraction_1","1","microwave ovens","null","null","null","null","null","null","1","","","","","","","","","","",""
"","","","","","rating_trial","survey-html-form","14","378716","0.0-3.0-1.5","2","1","2025-04-10 18:08:35","7bd189e8e4882776c700e1dae255cdf5","","Mozilla/5.0 (Windows NT 10.0; Win64; x64) AppleWebKit/537.36 (KHTML, like Gecko) Chrome/135.0.0.0 Safari/537.36","WebKit","Chrome","135.0.0.0","Windows","10.0","https://hz8g1ckzuq.cognition.run/","en-US,en;q=0.9","yduro0ddlx59wjq","","34","[""White""]","No","Male","1759731.599999994","36286","","","{""price_1"":""35"",""price_2"":""30"",""price_3"":""30""}","rating","tdc","attraction_1","1","microwave ovens","null","null","null","null","null","null","1","60","50","60","50","60","45","Warranty","Cooking power","","",""
"","","","","","rating_trial_setup","html-keyboard-response","15","379019","0.0-3.0-0.6","2","1","2025-04-10 18:08:35","7bd189e8e4882776c700e1dae255cdf5","","Mozilla/5.0 (Windows NT 10.0; Win64; x64) AppleWebKit/537.36 (KHTML, like Gecko) Chrome/135.0.0.0 Safari/537.36","WebKit","Chrome","135.0.0.0","Windows","10.0","https://hz8g1ckzuq.cognition.run/","en-US,en;q=0.9","yduro0ddlx59wjq","","34","[""White""]","No","Male","1759731.599999994","null","","<p></p>","null","rating","dct","repulsion_1","1","washing machines","null","null","null","null","null","null","2","","","","","","","","","","",""
"","","","","","rating_trial","survey-html-form","16","428820","0.0-3.0-1.6","2","1","2025-04-10 18:08:35","7bd189e8e4882776c700e1dae255cdf5","","Mozilla/5.0 (Windows NT 10.0; Win64; x64) AppleWebKit/537.36 (KHTML, like Gecko) Chrome/135.0.0.0 Safari/537.36","WebKit","Chrome","135.0.0.0","Windows","10.0","https://hz8g1ckzuq.cognition.run/","en-US,en;q=0.9","yduro0ddlx59wjq","","34","[""White""]","No","Male","1759731.599999994","49796","","","{""price_1"":""250"",""price_2"":""300"",""price_3"":""300""}","rating","dct","repulsion_1","1","washing machines","null","null","null","null","null","null","2","100","90","100","30","40","25","Average lifespan","Energy savings","","",""
"","","","","","rating_trial_setup","html-keyboard-response","17","429124","0.0-3.0-0.7","2","1","2025-04-10 18:08:35","7bd189e8e4882776c700e1dae255cdf5","","Mozilla/5.0 (Windows NT 10.0; Win64; x64) AppleWebKit/537.36 (KHTML, like Gecko) Chrome/135.0.0.0 Safari/537.36","WebKit","Chrome","135.0.0.0","Windows","10.0","https://hz8g1ckzuq.cognition.run/","en-US,en;q=0.9","yduro0ddlx59wjq","","34","[""White""]","No","Male","1759731.599999994","null","","<p></p>","null","rating","dtc","repulsion_2","2","televisions","null","null","null","null","null","null","1","","","","","","","","","","",""
"","","","","","rating_trial","survey-html-form","18","473780","0.0-3.0-1.7","2","1","2025-04-10 18:08:35","7bd189e8e4882776c700e1dae255cdf5","","Mozilla/5.0 (Windows NT 10.0; Win64; x64) AppleWebKit/537.36 (KHTML, like Gecko) Chrome/135.0.0.0 Safari/537.36","WebKit","Chrome","135.0.0.0","Windows","10.0","https://hz8g1ckzuq.cognition.run/","en-US,en;q=0.9","yduro0ddlx59wjq","","34","[""White""]","No","Male","1759731.599999994","44651","","","{""price_1"":""180"",""price_2"":""200"",""price_3"":""200""}","rating","dtc","repulsion_2","2","televisions","null","null","null","null","null","null","1","30","40","20","100","90","100","Screen size","Average lifespan","","",""
"","","","","","rating_trial_setup","html-keyboard-response","19","474084","0.0-3.0-0.8","2","1","2025-04-10 18:08:35","7bd189e8e4882776c700e1dae255cdf5","","Mozilla/5.0 (Windows NT 10.0; Win64; x64) AppleWebKit/537.36 (KHTML, like Gecko) Chrome/135.0.0.0 Safari/537.36","WebKit","Chrome","135.0.0.0","Windows","10.0","https://hz8g1ckzuq.cognition.run/","en-US,en;q=0.9","yduro0ddlx59wjq","","34","[""White""]","No","Male","1759731.599999994","null","","<p></p>","null","rating","tdc","repulsion_1","2","microwave ovens","null","null","null","null","null","null","2","","","","","","","","","","",""
"","","","","","rating_trial","survey-html-form","20","497882","0.0-3.0-1.8","2","1","2025-04-10 18:08:35","7bd189e8e4882776c700e1dae255cdf5","","Mozilla/5.0 (Windows NT 10.0; Win64; x64) AppleWebKit/537.36 (KHTML, like Gecko) Chrome/135.0.0.0 Safari/537.36","WebKit","Chrome","135.0.0.0","Windows","10.0","https://hz8g1ckzuq.cognition.run/","en-US,en;q=0.9","yduro0ddlx59wjq","","34","[""White""]","No","Male","1759731.599999994","23793","","","{""price_1"":""30"",""price_2"":""25"",""price_3"":""30""}","rating","tdc","repulsion_1","2","microwave ovens","null","null","null","null","null","null","2","30","40","25","100","90","100","Warranty","Cooking power","","",""
"","","","","","rating_trial_setup","html-keyboard-response","21","498186","0.0-3.0-0.9","2","1","2025-04-10 18:08:35","7bd189e8e4882776c700e1dae255cdf5","","Mozilla/5.0 (Windows NT 10.0; Win64; x64) AppleWebKit/537.36 (KHTML, like Gecko) Chrome/135.0.0.0 Safari/537.36","WebKit","Chrome","135.0.0.0","Windows","10.0","https://hz8g1ckzuq.cognition.run/","en-US,en;q=0.9","yduro0ddlx59wjq","","34","[""White""]","No","Male","1759731.599999994","null","","<p></p>","null","rating","dtc","repulsion_2","2","laptops","null","null","null","null","null","null","1","","","","","","","","","","",""
"","","","","","rating_trial","survey-html-form","22","531085","0.0-3.0-1.9","2","1","2025-04-10 18:08:35","7bd189e8e4882776c700e1dae255cdf5","","Mozilla/5.0 (Windows NT 10.0; Win64; x64) AppleWebKit/537.36 (KHTML, like Gecko) Chrome/135.0.0.0 Safari/537.36","WebKit","Chrome","135.0.0.0","Windows","10.0","https://hz8g1ckzuq.cognition.run/","en-US,en;q=0.9","yduro0ddlx59wjq","","34","[""White""]","No","Male","1759731.599999994","32893","","","{""price_1"":""300"",""price_2"":""325"",""price_3"":""350""}","rating","dtc","repulsion_2","2","laptops","null","null","null","null","null","null","1","30","40","20","100","90","100","Processing speed","Memory (RAM)","","",""
"","","","","","rating_trial_setup","html-keyboard-response","23","531389","0.0-3.0-0.10","2","1","2025-04-10 18:08:35","7bd189e8e4882776c700e1dae255cdf5","","Mozilla/5.0 (Windows NT 10.0; Win64; x64) AppleWebKit/537.36 (KHTML, like Gecko) Chrome/135.0.0.0 Safari/537.36","WebKit","Chrome","135.0.0.0","Windows","10.0","https://hz8g1ckzuq.cognition.run/","en-US,en;q=0.9","yduro0ddlx59wjq","","34","[""White""]","No","Male","1759731.599999994","null","","<p></p>","null","rating","tdc","repulsion_1","2","washing machines","null","null","null","null","null","null","2","","","","","","","","","","",""
"","","","","","rating_trial","survey-html-form","24","554671","0.0-3.0-1.10","2","1","2025-04-10 18:08:35","7bd189e8e4882776c700e1dae255cdf5","","Mozilla/5.0 (Windows NT 10.0; Win64; x64) AppleWebKit/537.36 (KHTML, like Gecko) Chrome/135.0.0.0 Safari/537.36","WebKit","Chrome","135.0.0.0","Windows","10.0","https://hz8g1ckzuq.cognition.run/","en-US,en;q=0.9","yduro0ddlx59wjq","","34","[""White""]","No","Male","1759731.599999994","23276","","","{""price_1"":""200"",""price_2"":""200"",""price_3"":""200""}","rating","tdc","repulsion_1","2","washing machines","null","null","null","null","null","null","2","30","40","25","100","90","100","Average lifespan","Energy savings","","",""
"","","","","","rating_trial_setup","html-keyboard-response","25","554974","0.0-3.0-0.11","2","1","2025-04-10 18:08:35","7bd189e8e4882776c700e1dae255cdf5","","Mozilla/5.0 (Windows NT 10.0; Win64; x64) AppleWebKit/537.36 (KHTML, like Gecko) Chrome/135.0.0.0 Safari/537.36","WebKit","Chrome","135.0.0.0","Windows","10.0","https://hz8g1ckzuq.cognition.run/","en-US,en;q=0.9","yduro0ddlx59wjq","","34","[""White""]","No","Male","1759731.599999994","null","","<p></p>","null","rating","cdt","repulsion_2","2","washing machines","null","null","null","null","null","null","1","","","","","","","","","","",""
"","","","","","rating_trial","survey-html-form","26","608539","0.0-3.0-1.11","2","1","2025-04-10 18:08:35","7bd189e8e4882776c700e1dae255cdf5","","Mozilla/5.0 (Windows NT 10.0; Win64; x64) AppleWebKit/537.36 (KHTML, like Gecko) Chrome/135.0.0.0 Safari/537.36","WebKit","Chrome","135.0.0.0","Windows","10.0","https://hz8g1ckzuq.cognition.run/","en-US,en;q=0.9","yduro0ddlx59wjq","","34","[""White""]","No","Male","1759731.599999994","53559","","","{""price_1"":""300"",""price_2"":""275"",""price_3"":""275""}","rating","cdt","repulsion_2","2","washing machines","null","null","null","null","null","null","1","30","40","20","100","90","100","Average lifespan","Energy savings","","",""
"","","","","","rating_trial_setup","html-keyboard-response","27","608843","0.0-3.0-0.12","2","1","2025-04-10 18:08:35","7bd189e8e4882776c700e1dae255cdf5","","Mozilla/5.0 (Windows NT 10.0; Win64; x64) AppleWebKit/537.36 (KHTML, like Gecko) Chrome/135.0.0.0 Safari/537.36","WebKit","Chrome","135.0.0.0","Windows","10.0","https://hz8g1ckzuq.cognition.run/","en-US,en;q=0.9","yduro0ddlx59wjq","","34","[""White""]","No","Male","1759731.599999994","null","","<p></p>","null","rating","dtc","attraction_1","2","laptops","null","null","null","null","null","null","1","","","","","","","","","","",""
"","","","","","rating_trial","survey-html-form","28","639293","0.0-3.0-1.12","2","1","2025-04-10 18:08:35","7bd189e8e4882776c700e1dae255cdf5","","Mozilla/5.0 (Windows NT 10.0; Win64; x64) AppleWebKit/537.36 (KHTML, like Gecko) Chrome/135.0.0.0 Safari/537.36","WebKit","Chrome","135.0.0.0","Windows","10.0","https://hz8g1ckzuq.cognition.run/","en-US,en;q=0.9","yduro0ddlx59wjq","","34","[""White""]","No","Male","1759731.599999994","30444","","","{""price_1"":""400"",""price_2"":""400"",""price_3"":""375""}","rating","dtc","attraction_1","2","laptops","null","null","null","null","null","null","1","50","60","45","60","50","60","Processing speed","Memory (RAM)","","",""
"","","","","","rating_trial_setup","html-keyboard-response","29","639597","0.0-3.0-0.13","2","1","2025-04-10 18:08:35","7bd189e8e4882776c700e1dae255cdf5","","Mozilla/5.0 (Windows NT 10.0; Win64; x64) AppleWebKit/537.36 (KHTML, like Gecko) Chrome/135.0.0.0 Safari/537.36","WebKit","Chrome","135.0.0.0","Windows","10.0","https://hz8g1ckzuq.cognition.run/","en-US,en;q=0.9","yduro0ddlx59wjq","","34","[""White""]","No","Male","1759731.599999994","null","","<p></p>","null","rating","tdc","repulsion_2","1","laptops","null","null","null","null","null","null","2","","","","","","","","","","",""
"","","","","","rating_trial","survey-html-form","30","664179","0.0-3.0-1.13","2","1","2025-04-10 18:08:35","7bd189e8e4882776c700e1dae255cdf5","","Mozilla/5.0 (Windows NT 10.0; Win64; x64) AppleWebKit/537.36 (KHTML, like Gecko) Chrome/135.0.0.0 Safari/537.36","WebKit","Chrome","135.0.0.0","Windows","10.0","https://hz8g1ckzuq.cognition.run/","en-US,en;q=0.9","yduro0ddlx59wjq","","34","[""White""]","No","Male","1759731.599999994","24576","","","{""price_1"":""300"",""price_2"":""275"",""price_3"":""300""}","rating","tdc","repulsion_2","1","laptops","null","null","null","null","null","null","2","100","90","100","30","40","20","Processing speed","Memory (RAM)","","",""
"","","","","","rating_trial_setup","html-keyboard-response","31","664484","0.0-3.0-0.14","2","1","2025-04-10 18:08:35","7bd189e8e4882776c700e1dae255cdf5","","Mozilla/5.0 (Windows NT 10.0; Win64; x64) AppleWebKit/537.36 (KHTML, like Gecko) Chrome/135.0.0.0 Safari/537.36","WebKit","Chrome","135.0.0.0","Windows","10.0","https://hz8g1ckzuq.cognition.run/","en-US,en;q=0.9","yduro0ddlx59wjq","","34","[""White""]","No","Male","1759731.599999994","null","","<p></p>","null","rating","bww","catch","null","televisions","75","80","5","50","45","5","1","","","","","","","","","","",""
"","","","","","rating_trial","survey-html-form","32","687285","0.0-3.0-1.14","2","1","2025-04-10 18:08:35","7bd189e8e4882776c700e1dae255cdf5","","Mozilla/5.0 (Windows NT 10.0; Win64; x64) AppleWebKit/537.36 (KHTML, like Gecko) Chrome/135.0.0.0 Safari/537.36","WebKit","Chrome","135.0.0.0","Windows","10.0","https://hz8g1ckzuq.cognition.run/","en-US,en;q=0.9","yduro0ddlx59wjq","","34","[""White""]","No","Male","1759731.599999994","22796","","","{""price_1"":""400"",""price_2"":""100"",""price_3"":""180""}","rating","bww","catch","null","televisions","75","80","5","50","45","5","1","null","null","null","null","null","null","Screen size","Average lifespan","","",""
"","","","","","rating_trial_setup","html-keyboard-response","33","687589","0.0-3.0-0.15","2","1","2025-04-10 18:08:35","7bd189e8e4882776c700e1dae255cdf5","","Mozilla/5.0 (Windows NT 10.0; Win64; x64) AppleWebKit/537.36 (KHTML, like Gecko) Chrome/135.0.0.0 Safari/537.36","WebKit","Chrome","135.0.0.0","Windows","10.0","https://hz8g1ckzuq.cognition.run/","en-US,en;q=0.9","yduro0ddlx59wjq","","34","[""White""]","No","Male","1759731.599999994","null","","<p></p>","null","rating","tdc","attraction_2","2","laptops","null","null","null","null","null","null","2","","","","","","","","","","",""
"","","","","","rating_trial","survey-html-form","34","715685","0.0-3.0-1.15","2","1","2025-04-10 18:08:35","7bd189e8e4882776c700e1dae255cdf5","","Mozilla/5.0 (Windows NT 10.0; Win64; x64) AppleWebKit/537.36 (KHTML, like Gecko) Chrome/135.0.0.0 Safari/537.36","WebKit","Chrome","135.0.0.0","Windows","10.0","https://hz8g1ckzuq.cognition.run/","en-US,en;q=0.9","yduro0ddlx59wjq","","34","[""White""]","No","Male","1759731.599999994","28088","","","{""price_1"":""300"",""price_2"":""275"",""price_3"":""275""}","rating","tdc","attraction_2","2","laptops","null","null","null","null","null","null","2","50","60","40","60","50","60","Processing speed","Memory (RAM)","","",""
"","","","","","rating_trial_setup","html-keyboard-response","35","715990","0.0-3.0-0.16","2","1","2025-04-10 18:08:35","7bd189e8e4882776c700e1dae255cdf5","","Mozilla/5.0 (Windows NT 10.0; Win64; x64) AppleWebKit/537.36 (KHTML, like Gecko) Chrome/135.0.0.0 Safari/537.36","WebKit","Chrome","135.0.0.0","Windows","10.0","https://hz8g1ckzuq.cognition.run/","en-US,en;q=0.9","yduro0ddlx59wjq","","34","[""White""]","No","Male","1759731.599999994","null","","<p></p>","null","rating","dct","repulsion_1","2","televisions","null","null","null","null","null","null","1","","","","","","","","","","",""
"","","","","","rating_trial","survey-html-form","36","739767","0.0-3.0-1.16","2","1","2025-04-10 18:08:35","7bd189e8e4882776c700e1dae255cdf5","","Mozilla/5.0 (Windows NT 10.0; Win64; x64) AppleWebKit/537.36 (KHTML, like Gecko) Chrome/135.0.0.0 Safari/537.36","WebKit","Chrome","135.0.0.0","Windows","10.0","https://hz8g1ckzuq.cognition.run/","en-US,en;q=0.9","yduro0ddlx59wjq","","34","[""White""]","No","Male","1759731.599999994","23771","","","{""price_1"":""180"",""price_2"":""200"",""price_3"":""185""}","rating","dct","repulsion_1","2","televisions","null","null","null","null","null","null","1","30","40","25","100","90","100","Screen size","Average lifespan","","",""
"","","","","","rating_trial_setup","html-keyboard-response","37","740072","0.0-3.0-0.17","2","1","2025-04-10 18:08:35","7bd189e8e4882776c700e1dae255cdf5","","Mozilla/5.0 (Windows NT 10.0; Win64; x64) AppleWebKit/537.36 (KHTML, like Gecko) Chrome/135.0.0.0 Safari/537.36","WebKit","Chrome","135.0.0.0","Windows","10.0","https://hz8g1ckzuq.cognition.run/","en-US,en;q=0.9","yduro0ddlx59wjq","","34","[""White""]","No","Male","1759731.599999994","null","","<p></p>","null","rating","bww","catch","null","microwave ovens","85","90","10","20","50","15","1","","","","","","","","","","",""
"","","","","","rating_trial","survey-html-form","38","787692","0.0-3.0-1.17","2","1","2025-04-10 18:08:35","7bd189e8e4882776c700e1dae255cdf5","","Mozilla/5.0 (Windows NT 10.0; Win64; x64) AppleWebKit/537.36 (KHTML, like Gecko) Chrome/135.0.0.0 Safari/537.36","WebKit","Chrome","135.0.0.0","Windows","10.0","https://hz8g1ckzuq.cognition.run/","en-US,en;q=0.9","yduro0ddlx59wjq","","34","[""White""]","No","Male","1759731.599999994","47614","","","{""price_1"":""70"",""price_2"":""30"",""price_3"":""30""}","rating","bww","catch","null","microwave ovens","85","90","10","20","50","15","1","null","null","null","null","null","null","Warranty","Cooking power","","",""
"","","","","","rating_trial_setup","html-keyboard-response","39","787996","0.0-3.0-0.18","2","1","2025-04-10 18:08:35","7bd189e8e4882776c700e1dae255cdf5","","Mozilla/5.0 (Windows NT 10.0; Win64; x64) AppleWebKit/537.36 (KHTML, like Gecko) Chrome/135.0.0.0 Safari/537.36","WebKit","Chrome","135.0.0.0","Windows","10.0","https://hz8g1ckzuq.cognition.run/","en-US,en;q=0.9","yduro0ddlx59wjq","","34","[""White""]","No","Male","1759731.599999994","null","","<p></p>","null","rating","bww","catch","null","washing machines","65","80","35","25","40","5","2","","","","","","","","","","",""
"","","","","","rating_trial","survey-html-form","40","820147","0.0-3.0-1.18","2","1","2025-04-10 18:08:35","7bd189e8e4882776c700e1dae255cdf5","","Mozilla/5.0 (Windows NT 10.0; Win64; x64) AppleWebKit/537.36 (KHTML, like Gecko) Chrome/135.0.0.0 Safari/537.36","WebKit","Chrome","135.0.0.0","Windows","10.0","https://hz8g1ckzuq.cognition.run/","en-US,en;q=0.9","yduro0ddlx59wjq","","34","[""White""]","No","Male","1759731.599999994","32146","","","{""price_1"":""300"",""price_2"":""250"",""price_3"":""200""}","rating","bww","catch","null","washing machines","65","80","35","25","40","5","2","null","null","null","null","null","null","Average lifespan","Energy savings","","",""
"","","","","","rating_trial_setup","html-keyboard-response","41","820452","0.0-3.0-0.19","2","1","2025-04-10 18:08:35","7bd189e8e4882776c700e1dae255cdf5","","Mozilla/5.0 (Windows NT 10.0; Win64; x64) AppleWebKit/537.36 (KHTML, like Gecko) Chrome/135.0.0.0 Safari/537.36","WebKit","Chrome","135.0.0.0","Windows","10.0","https://hz8g1ckzuq.cognition.run/","en-US,en;q=0.9","yduro0ddlx59wjq","","34","[""White""]","No","Male","1759731.599999994","null","","<p></p>","null","rating","tcd","attraction_1","1","televisions","null","null","null","null","null","null","1","","","","","","","","","","",""
"","","","","","rating_trial","survey-html-form","42","857738","0.0-3.0-1.19","2","1","2025-04-10 18:08:35","7bd189e8e4882776c700e1dae255cdf5","","Mozilla/5.0 (Windows NT 10.0; Win64; x64) AppleWebKit/537.36 (KHTML, like Gecko) Chrome/135.0.0.0 Safari/537.36","WebKit","Chrome","135.0.0.0","Windows","10.0","https://hz8g1ckzuq.cognition.run/","en-US,en;q=0.9","yduro0ddlx59wjq","","34","[""White""]","No","Male","1759731.599999994","37278","","","{""price_1"":""280"",""price_2"":""250"",""price_3"":""275""}","rating","tcd","attraction_1","1","televisions","null","null","null","null","null","null","1","60","50","60","50","60","45","Screen size","Average lifespan","","",""
"","","","","","rating_trial_setup","html-keyboard-response","43","858043","0.0-3.0-0.20","2","1","2025-04-10 18:08:35","7bd189e8e4882776c700e1dae255cdf5","","Mozilla/5.0 (Windows NT 10.0; Win64; x64) AppleWebKit/537.36 (KHTML, like Gecko) Chrome/135.0.0.0 Safari/537.36","WebKit","Chrome","135.0.0.0","Windows","10.0","https://hz8g1ckzuq.cognition.run/","en-US,en;q=0.9","yduro0ddlx59wjq","","34","[""White""]","No","Male","1759731.599999994","null","","<p></p>","null","rating","cdt","attraction_2","1","televisions","null","null","null","null","null","null","1","","","","","","","","","","",""
"","","","","","rating_trial","survey-html-form","44","886056","0.0-3.0-1.20","2","1","2025-04-10 18:08:35","7bd189e8e4882776c700e1dae255cdf5","","Mozilla/5.0 (Windows NT 10.0; Win64; x64) AppleWebKit/537.36 (KHTML, like Gecko) Chrome/135.0.0.0 Safari/537.36","WebKit","Chrome","135.0.0.0","Windows","10.0","https://hz8g1ckzuq.cognition.run/","en-US,en;q=0.9","yduro0ddlx59wjq","","34","[""White""]","No","Male","1759731.599999994","28007","","","{""price_1"":""220"",""price_2"":""250"",""price_3"":""275""}","rating","cdt","attraction_2","1","televisions","null","null","null","null","null","null","1","60","50","60","50","60","40","Screen size","Average lifespan","","",""
"","","","","","rating_trial_setup","html-keyboard-response","45","886361","0.0-3.0-0.21","2","1","2025-04-10 18:08:35","7bd189e8e4882776c700e1dae255cdf5","","Mozilla/5.0 (Windows NT 10.0; Win64; x64) AppleWebKit/537.36 (KHTML, like Gecko) Chrome/135.0.0.0 Safari/537.36","WebKit","Chrome","135.0.0.0","Windows","10.0","https://hz8g1ckzuq.cognition.run/","en-US,en;q=0.9","yduro0ddlx59wjq","","34","[""White""]","No","Male","1759731.599999994","null","","<p></p>","null","rating","bww","catch","null","washing machines","50","50","25","10","25","30","2","","","","","","","","","","",""
"","","","","","rating_trial","survey-html-form","46","910106","0.0-3.0-1.21","2","1","2025-04-10 18:08:35","7bd189e8e4882776c700e1dae255cdf5","","Mozilla/5.0 (Windows NT 10.0; Win64; x64) AppleWebKit/537.36 (KHTML, like Gecko) Chrome/135.0.0.0 Safari/537.36","WebKit","Chrome","135.0.0.0","Windows","10.0","https://hz8g1ckzuq.cognition.run/","en-US,en;q=0.9","yduro0ddlx59wjq","","34","[""White""]","No","Male","1759731.599999994","23737","","","{""price_1"":""250"",""price_2"":""180"",""price_3"":""200""}","rating","bww","catch","null","washing machines","50","50","25","10","25","30","2","null","null","null","null","null","null","Average lifespan","Energy savings","","",""
"","","","","","rating_trial_setup","html-keyboard-response","47","910410","0.0-3.0-0.22","2","1","2025-04-10 18:08:35","7bd189e8e4882776c700e1dae255cdf5","","Mozilla/5.0 (Windows NT 10.0; Win64; x64) AppleWebKit/537.36 (KHTML, like Gecko) Chrome/135.0.0.0 Safari/537.36","WebKit","Chrome","135.0.0.0","Windows","10.0","https://hz8g1ckzuq.cognition.run/","en-US,en;q=0.9","yduro0ddlx59wjq","","34","[""White""]","No","Male","1759731.599999994","null","","<p></p>","null","rating","ctd","attraction_2","2","washing machines","null","null","null","null","null","null","1","","","","","","","","","","",""
"","","","","","rating_trial","survey-html-form","48","927034","0.0-3.0-1.22","2","1","2025-04-10 18:08:35","7bd189e8e4882776c700e1dae255cdf5","","Mozilla/5.0 (Windows NT 10.0; Win64; x64) AppleWebKit/537.36 (KHTML, like Gecko) Chrome/135.0.0.0 Safari/537.36","WebKit","Chrome","135.0.0.0","Windows","10.0","https://hz8g1ckzuq.cognition.run/","en-US,en;q=0.9","yduro0ddlx59wjq","","34","[""White""]","No","Male","1759731.599999994","16615","","","{""price_1"":""230"",""price_2"":""300"",""price_3"":""280""}","rating","ctd","attraction_2","2","washing machines","null","null","null","null","null","null","1","50","60","40","60","50","60","Average lifespan","Energy savings","","",""
"","","","","","rating_trial_setup","html-keyboard-response","49","927338","0.0-3.0-0.23","2","1","2025-04-10 18:08:35","7bd189e8e4882776c700e1dae255cdf5","","Mozilla/5.0 (Windows NT 10.0; Win64; x64) AppleWebKit/537.36 (KHTML, like Gecko) Chrome/135.0.0.0 Safari/537.36","WebKit","Chrome","135.0.0.0","Windows","10.0","https://hz8g1ckzuq.cognition.run/","en-US,en;q=0.9","yduro0ddlx59wjq","","34","[""White""]","No","Male","1759731.599999994","null","","<p></p>","null","rating","bww","catch","null","microwave ovens","75","60","30","10","50","20","1","","","","","","","","","","",""
"","","","","","rating_trial","survey-html-form","50","944102","0.0-3.0-1.23","2","1","2025-04-10 18:08:35","7bd189e8e4882776c700e1dae255cdf5","","Mozilla/5.0 (Windows NT 10.0; Win64; x64) AppleWebKit/537.36 (KHTML, like Gecko) Chrome/135.0.0.0 Safari/537.36","WebKit","Chrome","135.0.0.0","Windows","10.0","https://hz8g1ckzuq.cognition.run/","en-US,en;q=0.9","yduro0ddlx59wjq","","34","[""White""]","No","Male","1759731.599999994","16756","","","{""price_1"":""55"",""price_2"":""25"",""price_3"":""35""}","rating","bww","catch","null","microwave ovens","75","60","30","10","50","20","1","null","null","null","null","null","null","Warranty","Cooking power","","",""
"","","","","","rating_trial_setup","html-keyboard-response","51","944406","0.0-3.0-0.24","2","1","2025-04-10 18:08:35","7bd189e8e4882776c700e1dae255cdf5","","Mozilla/5.0 (Windows NT 10.0; Win64; x64) AppleWebKit/537.36 (KHTML, like Gecko) Chrome/135.0.0.0 Safari/537.36","WebKit","Chrome","135.0.0.0","Windows","10.0","https://hz8g1ckzuq.cognition.run/","en-US,en;q=0.9","yduro0ddlx59wjq","","34","[""White""]","No","Male","1759731.599999994","null","","<p></p>","null","rating","tdc","repulsion_2","1","televisions","null","null","null","null","null","null","2","","","","","","","","","","",""
"","","","","","rating_trial","survey-html-form","52","978748","0.0-3.0-1.24","2","1","2025-04-10 18:08:35","7bd189e8e4882776c700e1dae255cdf5","","Mozilla/5.0 (Windows NT 10.0; Win64; x64) AppleWebKit/537.36 (KHTML, like Gecko) Chrome/135.0.0.0 Safari/537.36","WebKit","Chrome","135.0.0.0","Windows","10.0","https://hz8g1ckzuq.cognition.run/","en-US,en;q=0.9","yduro0ddlx59wjq","","34","[""White""]","No","Male","1759731.599999994","34337","","","{""price_1"":""350"",""price_2"":""325"",""price_3"":""350""}","rating","tdc","repulsion_2","1","televisions","null","null","null","null","null","null","2","100","90","100","30","40","20","Screen size","Average lifespan","","",""
"","","","","","rating_trial_setup","html-keyboard-response","53","979053","0.0-3.0-0.25","2","1","2025-04-10 18:08:35","7bd189e8e4882776c700e1dae255cdf5","","Mozilla/5.0 (Windows NT 10.0; Win64; x64) AppleWebKit/537.36 (KHTML, like Gecko) Chrome/135.0.0.0 Safari/537.36","WebKit","Chrome","135.0.0.0","Windows","10.0","https://hz8g1ckzuq.cognition.run/","en-US,en;q=0.9","yduro0ddlx59wjq","","34","[""White""]","No","Male","1759731.599999994","null","","<p></p>","null","rating","cdt","repulsion_1","2","laptops","null","null","null","null","null","null","2","","","","","","","","","","",""
"","","","","","rating_trial","survey-html-form","54","1000980","0.0-3.0-1.25","2","1","2025-04-10 18:08:35","7bd189e8e4882776c700e1dae255cdf5","","Mozilla/5.0 (Windows NT 10.0; Win64; x64) AppleWebKit/537.36 (KHTML, like Gecko) Chrome/135.0.0.0 Safari/537.36","WebKit","Chrome","135.0.0.0","Windows","10.0","https://hz8g1ckzuq.cognition.run/","en-US,en;q=0.9","yduro0ddlx59wjq","","34","[""White""]","No","Male","1759731.599999994","21919","","","{""price_1"":""550"",""price_2"":""500"",""price_3"":""500""}","rating","cdt","repulsion_1","2","laptops","null","null","null","null","null","null","2","30","40","25","100","90","100","Processing speed","Memory (RAM)","","",""
"","","","","","rating_trial_setup","html-keyboard-response","55","1001283","0.0-3.0-0.26","2","1","2025-04-10 18:08:35","7bd189e8e4882776c700e1dae255cdf5","","Mozilla/5.0 (Windows NT 10.0; Win64; x64) AppleWebKit/537.36 (KHTML, like Gecko) Chrome/135.0.0.0 Safari/537.36","WebKit","Chrome","135.0.0.0","Windows","10.0","https://hz8g1ckzuq.cognition.run/","en-US,en;q=0.9","yduro0ddlx59wjq","","34","[""White""]","No","Male","1759731.599999994","null","","<p></p>","null","rating","bww","catch","null","laptops","70","50","35","25","20","15","2","","","","","","","","","","",""
"","","","","","rating_trial","survey-html-form","56","1028901","0.0-3.0-1.26","2","1","2025-04-10 18:08:35","7bd189e8e4882776c700e1dae255cdf5","","Mozilla/5.0 (Windows NT 10.0; Win64; x64) AppleWebKit/537.36 (KHTML, like Gecko) Chrome/135.0.0.0 Safari/537.36","WebKit","Chrome","135.0.0.0","Windows","10.0","https://hz8g1ckzuq.cognition.run/","en-US,en;q=0.9","yduro0ddlx59wjq","","34","[""White""]","No","Male","1759731.599999994","27611","","","{""price_1"":""300"",""price_2"":""250"",""price_3"":""200""}","rating","bww","catch","null","laptops","70","50","35","25","20","15","2","null","null","null","null","null","null","Processing speed","Memory (RAM)","","",""
"","","","","","rating_trial_setup","html-keyboard-response","57","1029209","0.0-3.0-0.27","2","1","2025-04-10 18:08:35","7bd189e8e4882776c700e1dae255cdf5","","Mozilla/5.0 (Windows NT 10.0; Win64; x64) AppleWebKit/537.36 (KHTML, like Gecko) Chrome/135.0.0.0 Safari/537.36","WebKit","Chrome","135.0.0.0","Windows","10.0","https://hz8g1ckzuq.cognition.run/","en-US,en;q=0.9","yduro0ddlx59wjq","","34","[""White""]","No","Male","1759731.599999994","null","","<p></p>","null","rating","tdc","attraction_2","2","microwave ovens","null","null","null","null","null","null","1","","","","","","","","","","",""
"","","","","","rating_trial","survey-html-form","58","1049922","0.0-3.0-1.27","2","1","2025-04-10 18:08:35","7bd189e8e4882776c700e1dae255cdf5","","Mozilla/5.0 (Windows NT 10.0; Win64; x64) AppleWebKit/537.36 (KHTML, like Gecko) Chrome/135.0.0.0 Safari/537.36","WebKit","Chrome","135.0.0.0","Windows","10.0","https://hz8g1ckzuq.cognition.run/","en-US,en;q=0.9","yduro0ddlx59wjq","","34","[""White""]","No","Male","1759731.599999994","20708","","","{""price_1"":""40"",""price_2"":""35"",""price_3"":""40""}","rating","tdc","attraction_2","2","microwave ovens","null","null","null","null","null","null","1","50","60","40","60","50","60","Warranty","Cooking power","","",""
"","","","","","rating_trial_setup","html-keyboard-response","59","1050241","0.0-3.0-0.28","2","1","2025-04-10 18:08:35","7bd189e8e4882776c700e1dae255cdf5","","Mozilla/5.0 (Windows NT 10.0; Win64; x64) AppleWebKit/537.36 (KHTML, like Gecko) Chrome/135.0.0.0 Safari/537.36","WebKit","Chrome","135.0.0.0","Windows","10.0","https://hz8g1ckzuq.cognition.run/","en-US,en;q=0.9","yduro0ddlx59wjq","","34","[""White""]","No","Male","1759731.599999994","null","","<p></p>","null","rating","dtc","attraction_1","2","televisions","null","null","null","null","null","null","2","","","","","","","","","","",""
"","","","","","rating_trial","survey-html-form","60","1072850","0.0-3.0-1.28","2","1","2025-04-10 18:08:35","7bd189e8e4882776c700e1dae255cdf5","","Mozilla/5.0 (Windows NT 10.0; Win64; x64) AppleWebKit/537.36 (KHTML, like Gecko) Chrome/135.0.0.0 Safari/537.36","WebKit","Chrome","135.0.0.0","Windows","10.0","https://hz8g1ckzuq.cognition.run/","en-US,en;q=0.9","yduro0ddlx59wjq","","34","[""White""]","No","Male","1759731.599999994","22602","","","{""price_1"":""250"",""price_2"":""275"",""price_3"":""250""}","rating","dtc","attraction_1","2","televisions","null","null","null","null","null","null","2","50","60","45","60","50","60","Screen size","Average lifespan","","",""
"","","","","","rating_trial_setup","html-keyboard-response","61","1073155","0.0-3.0-0.29","2","1","2025-04-10 18:08:35","7bd189e8e4882776c700e1dae255cdf5","","Mozilla/5.0 (Windows NT 10.0; Win64; x64) AppleWebKit/537.36 (KHTML, like Gecko) Chrome/135.0.0.0 Safari/537.36","WebKit","Chrome","135.0.0.0","Windows","10.0","https://hz8g1ckzuq.cognition.run/","en-US,en;q=0.9","yduro0ddlx59wjq","","34","[""White""]","No","Male","1759731.599999994","null","","<p></p>","null","rating","dtc","attraction_2","1","washing machines","null","null","null","null","null","null","1","","","","","","","","","","",""
"","","","","","rating_trial","survey-html-form","62","1102897","0.0-3.0-1.29","2","1","2025-04-10 18:08:35","7bd189e8e4882776c700e1dae255cdf5","","Mozilla/5.0 (Windows NT 10.0; Win64; x64) AppleWebKit/537.36 (KHTML, like Gecko) Chrome/135.0.0.0 Safari/537.36","WebKit","Chrome","135.0.0.0","Windows","10.0","https://hz8g1ckzuq.cognition.run/","en-US,en;q=0.9","yduro0ddlx59wjq","","34","[""White""]","No","Male","1759731.599999994","29733","","","{""price_1"":""250"",""price_2"":""275"",""price_3"":""275""}","rating","dtc","attraction_2","1","washing machines","null","null","null","null","null","null","1","60","50","60","50","60","40","Average lifespan","Energy savings","","",""
"","","","","","rating_trial_setup","html-keyboard-response","63","1103202","0.0-3.0-0.30","2","1","2025-04-10 18:08:35","7bd189e8e4882776c700e1dae255cdf5","","Mozilla/5.0 (Windows NT 10.0; Win64; x64) AppleWebKit/537.36 (KHTML, like Gecko) Chrome/135.0.0.0 Safari/537.36","WebKit","Chrome","135.0.0.0","Windows","10.0","https://hz8g1ckzuq.cognition.run/","en-US,en;q=0.9","yduro0ddlx59wjq","","34","[""White""]","No","Male","1759731.599999994","null","","<p></p>","null","rating","dct","repulsion_2","2","microwave ovens","null","null","null","null","null","null","2","","","","","","","","","","",""
"","","","","","rating_trial","survey-html-form","64","1118646","0.0-3.0-1.30","2","1","2025-04-10 18:08:35","7bd189e8e4882776c700e1dae255cdf5","","Mozilla/5.0 (Windows NT 10.0; Win64; x64) AppleWebKit/537.36 (KHTML, like Gecko) Chrome/135.0.0.0 Safari/537.36","WebKit","Chrome","135.0.0.0","Windows","10.0","https://hz8g1ckzuq.cognition.run/","en-US,en;q=0.9","yduro0ddlx59wjq","","34","[""White""]","No","Male","1759731.599999994","15435","","","{""price_1"":""30"",""price_2"":""35"",""price_3"":""35""}","rating","dct","repulsion_2","2","microwave ovens","null","null","null","null","null","null","2","30","40","20","100","90","100","Warranty","Cooking power","","",""
"","","","","","rating_trial_setup","html-keyboard-response","65","1118951","0.0-3.0-0.31","2","1","2025-04-10 18:08:35","7bd189e8e4882776c700e1dae255cdf5","","Mozilla/5.0 (Windows NT 10.0; Win64; x64) AppleWebKit/537.36 (KHTML, like Gecko) Chrome/135.0.0.0 Safari/537.36","WebKit","Chrome","135.0.0.0","Windows","10.0","https://hz8g1ckzuq.cognition.run/","en-US,en;q=0.9","yduro0ddlx59wjq","","34","[""White""]","No","Male","1759731.599999994","null","","<p></p>","null","rating","ctd","attraction_1","1","laptops","null","null","null","null","null","null","2","","","","","","","","","","",""
"","","","","","rating_trial","survey-html-form","66","1146914","0.0-3.0-1.31","2","1","2025-04-10 18:08:35","7bd189e8e4882776c700e1dae255cdf5","","Mozilla/5.0 (Windows NT 10.0; Win64; x64) AppleWebKit/537.36 (KHTML, like Gecko) Chrome/135.0.0.0 Safari/537.36","WebKit","Chrome","135.0.0.0","Windows","10.0","https://hz8g1ckzuq.cognition.run/","en-US,en;q=0.9","yduro0ddlx59wjq","","34","[""White""]","No","Male","1759731.599999994","27955","","","{""price_1"":""350"",""price_2"":""350"",""price_3"":""325""}","rating","ctd","attraction_1","1","laptops","null","null","null","null","null","null","2","60","50","60","50","60","45","Processing speed","Memory (RAM)","","",""
"","","","","","rating_trial_setup","html-keyboard-response","67","1147218","0.0-3.0-0.32","2","1","2025-04-10 18:08:35","7bd189e8e4882776c700e1dae255cdf5","","Mozilla/5.0 (Windows NT 10.0; Win64; x64) AppleWebKit/537.36 (KHTML, like Gecko) Chrome/135.0.0.0 Safari/537.36","WebKit","Chrome","135.0.0.0","Windows","10.0","https://hz8g1ckzuq.cognition.run/","en-US,en;q=0.9","yduro0ddlx59wjq","","34","[""White""]","No","Male","1759731.599999994","null","","<p></p>","null","rating","tcd","repulsion_1","1","laptops","null","null","null","null","null","null","1","","","","","","","","","","",""
"","","","","","rating_trial","survey-html-form","68","1163734","0.0-3.0-1.32","2","1","2025-04-10 18:08:35","7bd189e8e4882776c700e1dae255cdf5","","Mozilla/5.0 (Windows NT 10.0; Win64; x64) AppleWebKit/537.36 (KHTML, like Gecko) Chrome/135.0.0.0 Safari/537.36","WebKit","Chrome","135.0.0.0","Windows","10.0","https://hz8g1ckzuq.cognition.run/","en-US,en;q=0.9","yduro0ddlx59wjq","","34","[""White""]","No","Male","1759731.599999994","16508","","","{""price_1"":""350"",""price_2"":""400"",""price_3"":""325""}","rating","tcd","repulsion_1","1","laptops","null","null","null","null","null","null","1","100","90","100","30","40","25","Processing speed","Memory (RAM)","","",""
"","","","","","rating_trial_setup","html-keyboard-response","69","1164040","0.0-3.0-0.33","2","1","2025-04-10 18:08:35","7bd189e8e4882776c700e1dae255cdf5","","Mozilla/5.0 (Windows NT 10.0; Win64; x64) AppleWebKit/537.36 (KHTML, like Gecko) Chrome/135.0.0.0 Safari/537.36","WebKit","Chrome","135.0.0.0","Windows","10.0","https://hz8g1ckzuq.cognition.run/","en-US,en;q=0.9","yduro0ddlx59wjq","","34","[""White""]","No","Male","1759731.599999994","null","","<p></p>","null","rating","tdc","attraction_1","1","washing machines","null","null","null","null","null","null","1","","","","","","","","","","",""
"","","","","","rating_trial","survey-html-form","70","1181540","0.0-3.0-1.33","2","1","2025-04-10 18:08:35","7bd189e8e4882776c700e1dae255cdf5","","Mozilla/5.0 (Windows NT 10.0; Win64; x64) AppleWebKit/537.36 (KHTML, like Gecko) Chrome/135.0.0.0 Safari/537.36","WebKit","Chrome","135.0.0.0","Windows","10.0","https://hz8g1ckzuq.cognition.run/","en-US,en;q=0.9","yduro0ddlx59wjq","","34","[""White""]","No","Male","1759731.599999994","17492","","","{""price_1"":""250"",""price_2"":""225"",""price_3"":""250""}","rating","tdc","attraction_1","1","washing machines","null","null","null","null","null","null","1","60","50","60","50","60","45","Average lifespan","Energy savings","","",""
"","","","","","rating_trial_setup","html-keyboard-response","71","1181845","0.0-3.0-0.34","2","1","2025-04-10 18:08:35","7bd189e8e4882776c700e1dae255cdf5","","Mozilla/5.0 (Windows NT 10.0; Win64; x64) AppleWebKit/537.36 (KHTML, like Gecko) Chrome/135.0.0.0 Safari/537.36","WebKit","Chrome","135.0.0.0","Windows","10.0","https://hz8g1ckzuq.cognition.run/","en-US,en;q=0.9","yduro0ddlx59wjq","","34","[""White""]","No","Male","1759731.599999994","null","","<p></p>","null","rating","tcd","repulsion_1","1","televisions","null","null","null","null","null","null","1","","","","","","","","","","",""
"","","","","","rating_trial","survey-html-form","72","1200176","0.0-3.0-1.34","2","1","2025-04-10 18:08:35","7bd189e8e4882776c700e1dae255cdf5","","Mozilla/5.0 (Windows NT 10.0; Win64; x64) AppleWebKit/537.36 (KHTML, like Gecko) Chrome/135.0.0.0 Safari/537.36","WebKit","Chrome","135.0.0.0","Windows","10.0","https://hz8g1ckzuq.cognition.run/","en-US,en;q=0.9","yduro0ddlx59wjq","","34","[""White""]","No","Male","1759731.599999994","18323","","","{""price_1"":""300"",""price_2"":""300"",""price_3"":""280""}","rating","tcd","repulsion_1","1","televisions","null","null","null","null","null","null","1","100","90","100","30","40","25","Screen size","Average lifespan","","",""
"","","","","","rating_trial_setup","html-keyboard-response","73","1200482","0.0-3.0-0.35","2","1","2025-04-10 18:08:35","7bd189e8e4882776c700e1dae255cdf5","","Mozilla/5.0 (Windows NT 10.0; Win64; x64) AppleWebKit/537.36 (KHTML, like Gecko) Chrome/135.0.0.0 Safari/537.36","WebKit","Chrome","135.0.0.0","Windows","10.0","https://hz8g1ckzuq.cognition.run/","en-US,en;q=0.9","yduro0ddlx59wjq","","34","[""White""]","No","Male","1759731.599999994","null","","<p></p>","null","rating","wwb","catch","null","televisions","70","90","25","10","50","5","2","","","","","","","","","","",""
"","","","","","rating_trial","survey-html-form","74","1226889","0.0-3.0-1.35","2","1","2025-04-10 18:08:35","7bd189e8e4882776c700e1dae255cdf5","","Mozilla/5.0 (Windows NT 10.0; Win64; x64) AppleWebKit/537.36 (KHTML, like Gecko) Chrome/135.0.0.0 Safari/537.36","WebKit","Chrome","135.0.0.0","Windows","10.0","https://hz8g1ckzuq.cognition.run/","en-US,en;q=0.9","yduro0ddlx59wjq","","34","[""White""]","No","Male","1759731.599999994","26397","","","{""price_1"":""150"",""price_2"":""200"",""price_3"":""375""}","rating","wwb","catch","null","televisions","70","90","25","10","50","5","2","null","null","null","null","null","null","Screen size","Average lifespan","","",""
"","","","","","rating_trial_setup","html-keyboard-response","75","1227194","0.0-3.0-0.36","2","1","2025-04-10 18:08:35","7bd189e8e4882776c700e1dae255cdf5","","Mozilla/5.0 (Windows NT 10.0; Win64; x64) AppleWebKit/537.36 (KHTML, like Gecko) Chrome/135.0.0.0 Safari/537.36","WebKit","Chrome","135.0.0.0","Windows","10.0","https://hz8g1ckzuq.cognition.run/","en-US,en;q=0.9","yduro0ddlx59wjq","","34","[""White""]","No","Male","1759731.599999994","null","","<p></p>","null","rating","cdt","attraction_1","2","microwave ovens","null","null","null","null","null","null","1","","","","","","","","","","",""
"","","","","","rating_trial","survey-html-form","76","1248307","0.0-3.0-1.36","2","1","2025-04-10 18:08:35","7bd189e8e4882776c700e1dae255cdf5","","Mozilla/5.0 (Windows NT 10.0; Win64; x64) AppleWebKit/537.36 (KHTML, like Gecko) Chrome/135.0.0.0 Safari/537.36","WebKit","Chrome","135.0.0.0","Windows","10.0","https://hz8g1ckzuq.cognition.run/","en-US,en;q=0.9","yduro0ddlx59wjq","","34","[""White""]","No","Male","1759731.599999994","21105","","","{""price_1"":""35"",""price_2"":""30"",""price_3"":""35""}","rating","cdt","attraction_1","2","microwave ovens","null","null","null","null","null","null","1","50","60","45","60","50","60","Warranty","Cooking power","","",""
"","","","","","rating_trial_setup","html-keyboard-response","77","1248612","0.0-3.0-0.37","2","1","2025-04-10 18:08:35","7bd189e8e4882776c700e1dae255cdf5","","Mozilla/5.0 (Windows NT 10.0; Win64; x64) AppleWebKit/537.36 (KHTML, like Gecko) Chrome/135.0.0.0 Safari/537.36","WebKit","Chrome","135.0.0.0","Windows","10.0","https://hz8g1ckzuq.cognition.run/","en-US,en;q=0.9","yduro0ddlx59wjq","","34","[""White""]","No","Male","1759731.599999994","null","","<p></p>","null","rating","tcd","attraction_2","1","microwave ovens","null","null","null","null","null","null","1","","","","","","","","","","",""
"","","","","","rating_trial","survey-html-form","78","1263495","0.0-3.0-1.37","2","1","2025-04-10 18:08:35","7bd189e8e4882776c700e1dae255cdf5","","Mozilla/5.0 (Windows NT 10.0; Win64; x64) AppleWebKit/537.36 (KHTML, like Gecko) Chrome/135.0.0.0 Safari/537.36","WebKit","Chrome","135.0.0.0","Windows","10.0","https://hz8g1ckzuq.cognition.run/","en-US,en;q=0.9","yduro0ddlx59wjq","","34","[""White""]","No","Male","1759731.599999994","14874","","","{""price_1"":""35"",""price_2"":""35"",""price_3"":""30""}","rating","tcd","attraction_2","1","microwave ovens","null","null","null","null","null","null","1","60","50","60","50","60","40","Warranty","Cooking power","","",""
"","","","","","rating_trial_setup","html-keyboard-response","79","1263801","0.0-3.0-0.38","2","1","2025-04-10 18:08:35","7bd189e8e4882776c700e1dae255cdf5","","Mozilla/5.0 (Windows NT 10.0; Win64; x64) AppleWebKit/537.36 (KHTML, like Gecko) Chrome/135.0.0.0 Safari/537.36","WebKit","Chrome","135.0.0.0","Windows","10.0","https://hz8g1ckzuq.cognition.run/","en-US,en;q=0.9","yduro0ddlx59wjq","","34","[""White""]","No","Male","1759731.599999994","null","","<p></p>","null","rating","dct","repulsion_1","1","microwave ovens","null","null","null","null","null","null","2","","","","","","","","","","",""
"","","","","","rating_trial","survey-html-form","80","1293313","0.0-3.0-1.38","2","1","2025-04-10 18:08:35","7bd189e8e4882776c700e1dae255cdf5","","Mozilla/5.0 (Windows NT 10.0; Win64; x64) AppleWebKit/537.36 (KHTML, like Gecko) Chrome/135.0.0.0 Safari/537.36","WebKit","Chrome","135.0.0.0","Windows","10.0","https://hz8g1ckzuq.cognition.run/","en-US,en;q=0.9","yduro0ddlx59wjq","","34","[""White""]","No","Male","1759731.599999994","29503","","","{""price_1"":""35"",""price_2"":""45"",""price_3"":""40""}","rating","dct","repulsion_1","1","microwave ovens","null","null","null","null","null","null","2","100","90","100","30","40","25","Warranty","Cooking power","","",""
"","","","","","rating_trial_setup","html-keyboard-response","81","1293617","0.0-3.0-0.39","2","1","2025-04-10 18:08:35","7bd189e8e4882776c700e1dae255cdf5","","Mozilla/5.0 (Windows NT 10.0; Win64; x64) AppleWebKit/537.36 (KHTML, like Gecko) Chrome/135.0.0.0 Safari/537.36","WebKit","Chrome","135.0.0.0","Windows","10.0","https://hz8g1ckzuq.cognition.run/","en-US,en;q=0.9","yduro0ddlx59wjq","","34","[""White""]","No","Male","1759731.599999994","null","","<p></p>","null","rating","dtc","repulsion_2","1","washing machines","null","null","null","null","null","null","1","","","","","","","","","","",""
"","","","","","rating_trial","survey-html-form","82","1309101","0.0-3.0-1.39","2","1","2025-04-10 18:08:35","7bd189e8e4882776c700e1dae255cdf5","","Mozilla/5.0 (Windows NT 10.0; Win64; x64) AppleWebKit/537.36 (KHTML, like Gecko) Chrome/135.0.0.0 Safari/537.36","WebKit","Chrome","135.0.0.0","Windows","10.0","https://hz8g1ckzuq.cognition.run/","en-US,en;q=0.9","yduro0ddlx59wjq","","34","[""White""]","No","Male","1759731.599999994","15474","","","{""price_1"":""250"",""price_2"":""275"",""price_3"":""275""}","rating","dtc","repulsion_2","1","washing machines","null","null","null","null","null","null","1","100","90","100","30","40","20","Average lifespan","Energy savings","","",""
"","","","","","","instructions","83","1339156","0.0-4.0","2","1","2025-04-10 18:08:35","7bd189e8e4882776c700e1dae255cdf5","","Mozilla/5.0 (Windows NT 10.0; Win64; x64) AppleWebKit/537.36 (KHTML, like Gecko) Chrome/135.0.0.0 Safari/537.36","WebKit","Chrome","135.0.0.0","Windows","10.0","https://hz8g1ckzuq.cognition.run/","en-US,en;q=0.9","yduro0ddlx59wjq","","34","[""White""]","No","Male","1759731.599999994","30051","[{""page_index"":0,""viewing_time"":1686},{""page_index"":1,""viewing_time"":1588},{""page_index"":2,""viewing_time"":2988},{""page_index"":3,""viewing_time"":3010},{""page_index"":4,""viewing_time"":4272},{""page_index"":5,""viewing_time"":3400},{""page_index"":6,""viewing_time"":7908},{""page_index"":7,""viewing_time"":5198}]","","","","","","","","","","","","","","","","","","","","","","","","",""
"","","","","","choice_trial_setup","html-keyboard-response","84","1339462","0.0-5.0-0.0","2","1","2025-04-10 18:08:35","7bd189e8e4882776c700e1dae255cdf5","","Mozilla/5.0 (Windows NT 10.0; Win64; x64) AppleWebKit/537.36 (KHTML, like Gecko) Chrome/135.0.0.0 Safari/537.36","WebKit","Chrome","135.0.0.0","Windows","10.0","https://hz8g1ckzuq.cognition.run/","en-US,en;q=0.9","yduro0ddlx59wjq","","34","[""White""]","No","Male","1759731.599999994","null","","<p></p>","null","choice","wbw","catch","null","washing machines","85","85","45","5","10","40","2","","","","","","","","","","",""
"","","","","","choice_trial","survey-html-form","85","1351277","0.0-5.0-1.0","2","1","2025-04-10 18:08:35","7bd189e8e4882776c700e1dae255cdf5","","Mozilla/5.0 (Windows NT 10.0; Win64; x64) AppleWebKit/537.36 (KHTML, like Gecko) Chrome/135.0.0.0 Safari/537.36","WebKit","Chrome","135.0.0.0","Windows","10.0","https://hz8g1ckzuq.cognition.run/","en-US,en;q=0.9","yduro0ddlx59wjq","","34","[""White""]","No","Male","1759731.599999994","11805","","","{""product_choice"":""B""}","choice","wbw","catch","null","washing machines","85","85","45","5","10","40","2","null","null","null","null","null","null","Average lifespan","Energy savings","","",""
"","","","","","choice_trial_setup","html-keyboard-response","86","1351583","0.0-5.0-0.1","2","1","2025-04-10 18:08:35","7bd189e8e4882776c700e1dae255cdf5","","Mozilla/5.0 (Windows NT 10.0; Win64; x64) AppleWebKit/537.36 (KHTML, like Gecko) Chrome/135.0.0.0 Safari/537.36","WebKit","Chrome","135.0.0.0","Windows","10.0","https://hz8g1ckzuq.cognition.run/","en-US,en;q=0.9","yduro0ddlx59wjq","","34","[""White""]","No","Male","1759731.599999994","null","","<p></p>","null","choice","cdt","repulsion_2","1","televisions","null","null","null","null","null","null","2","","","","","","","","","","",""
"","","","","","choice_trial","survey-html-form","87","1360609","0.0-5.0-1.1","2","1","2025-04-10 18:08:35","7bd189e8e4882776c700e1dae255cdf5","","Mozilla/5.0 (Windows NT 10.0; Win64; x64) AppleWebKit/537.36 (KHTML, like Gecko) Chrome/135.0.0.0 Safari/537.36","WebKit","Chrome","135.0.0.0","Windows","10.0","https://hz8g1ckzuq.cognition.run/","en-US,en;q=0.9","yduro0ddlx59wjq","","34","[""White""]","No","Male","1759731.599999994","9017","","","{""product_choice"":""A""}","choice","cdt","repulsion_2","1","televisions","null","null","null","null","null","null","2","100","90","100","30","40","20","Screen size","Average lifespan","","",""
"","","","","","choice_trial_setup","html-keyboard-response","88","1360914","0.0-5.0-0.2","2","1","2025-04-10 18:08:35","7bd189e8e4882776c700e1dae255cdf5","","Mozilla/5.0 (Windows NT 10.0; Win64; x64) AppleWebKit/537.36 (KHTML, like Gecko) Chrome/135.0.0.0 Safari/537.36","WebKit","Chrome","135.0.0.0","Windows","10.0","https://hz8g1ckzuq.cognition.run/","en-US,en;q=0.9","yduro0ddlx59wjq","","34","[""White""]","No","Male","1759731.599999994","null","","<p></p>","null","choice","wbw","catch","null","washing machines","60","70","45","40","10","45","1","","","","","","","","","","",""
"","","","","","choice_trial","survey-html-form","89","1370131","0.0-5.0-1.2","2","1","2025-04-10 18:08:35","7bd189e8e4882776c700e1dae255cdf5","","Mozilla/5.0 (Windows NT 10.0; Win64; x64) AppleWebKit/537.36 (KHTML, like Gecko) Chrome/135.0.0.0 Safari/537.36","WebKit","Chrome","135.0.0.0","Windows","10.0","https://hz8g1ckzuq.cognition.run/","en-US,en;q=0.9","yduro0ddlx59wjq","","34","[""White""]","No","Male","1759731.599999994","9209","","","{""product_choice"":""B""}","choice","wbw","catch","null","washing machines","60","70","45","40","10","45","1","null","null","null","null","null","null","Average lifespan","Energy savings","","",""
"","","","","","choice_trial_setup","html-keyboard-response","90","1370436","0.0-5.0-0.3","2","1","2025-04-10 18:08:35","7bd189e8e4882776c700e1dae255cdf5","","Mozilla/5.0 (Windows NT 10.0; Win64; x64) AppleWebKit/537.36 (KHTML, like Gecko) Chrome/135.0.0.0 Safari/537.36","WebKit","Chrome","135.0.0.0","Windows","10.0","https://hz8g1ckzuq.cognition.run/","en-US,en;q=0.9","yduro0ddlx59wjq","","34","[""White""]","No","Male","1759731.599999994","null","","<p></p>","null","choice","dtc","repulsion_2","1","laptops","null","null","null","null","null","null","2","","","","","","","","","","",""
"","","","","","choice_trial","survey-html-form","91","1376694","0.0-5.0-1.3","2","1","2025-04-10 18:08:35","7bd189e8e4882776c700e1dae255cdf5","","Mozilla/5.0 (Windows NT 10.0; Win64; x64) AppleWebKit/537.36 (KHTML, like Gecko) Chrome/135.0.0.0 Safari/537.36","WebKit","Chrome","135.0.0.0","Windows","10.0","https://hz8g1ckzuq.cognition.run/","en-US,en;q=0.9","yduro0ddlx59wjq","","34","[""White""]","No","Male","1759731.599999994","6249","","","{""product_choice"":""C""}","choice","dtc","repulsion_2","1","laptops","null","null","null","null","null","null","2","100","90","100","30","40","20","Processing speed","Memory (RAM)","","",""
"","","","","","choice_trial_setup","html-keyboard-response","92","1377001","0.0-5.0-0.4","2","1","2025-04-10 18:08:35","7bd189e8e4882776c700e1dae255cdf5","","Mozilla/5.0 (Windows NT 10.0; Win64; x64) AppleWebKit/537.36 (KHTML, like Gecko) Chrome/135.0.0.0 Safari/537.36","WebKit","Chrome","135.0.0.0","Windows","10.0","https://hz8g1ckzuq.cognition.run/","en-US,en;q=0.9","yduro0ddlx59wjq","","34","[""White""]","No","Male","1759731.599999994","null","","<p></p>","null","choice","wbw","catch","null","laptops","75","85","40","40","45","15","2","","","","","","","","","","",""
"","","","","","choice_trial","survey-html-form","93","1386141","0.0-5.0-1.4","2","1","2025-04-10 18:08:35","7bd189e8e4882776c700e1dae255cdf5","","Mozilla/5.0 (Windows NT 10.0; Win64; x64) AppleWebKit/537.36 (KHTML, like Gecko) Chrome/135.0.0.0 Safari/537.36","WebKit","Chrome","135.0.0.0","Windows","10.0","https://hz8g1ckzuq.cognition.run/","en-US,en;q=0.9","yduro0ddlx59wjq","","34","[""White""]","No","Male","1759731.599999994","9129","","","{""product_choice"":""B""}","choice","wbw","catch","null","laptops","75","85","40","40","45","15","2","null","null","null","null","null","null","Processing speed","Memory (RAM)","","",""
"","","","","","choice_trial_setup","html-keyboard-response","94","1386446","0.0-5.0-0.5","2","1","2025-04-10 18:08:35","7bd189e8e4882776c700e1dae255cdf5","","Mozilla/5.0 (Windows NT 10.0; Win64; x64) AppleWebKit/537.36 (KHTML, like Gecko) Chrome/135.0.0.0 Safari/537.36","WebKit","Chrome","135.0.0.0","Windows","10.0","https://hz8g1ckzuq.cognition.run/","en-US,en;q=0.9","yduro0ddlx59wjq","","34","[""White""]","No","Male","1759731.599999994","null","","<p></p>","null","choice","bww","catch","null","microwave ovens","75","60","5","40","45","30","2","","","","","","","","","","",""
"","","","","","choice_trial","survey-html-form","95","1393195","0.0-5.0-1.5","2","1","2025-04-10 18:08:35","7bd189e8e4882776c700e1dae255cdf5","","Mozilla/5.0 (Windows NT 10.0; Win64; x64) AppleWebKit/537.36 (KHTML, like Gecko) Chrome/135.0.0.0 Safari/537.36","WebKit","Chrome","135.0.0.0","Windows","10.0","https://hz8g1ckzuq.cognition.run/","en-US,en;q=0.9","yduro0ddlx59wjq","","34","[""White""]","No","Male","1759731.599999994","6736","","","{""product_choice"":""A""}","choice","bww","catch","null","microwave ovens","75","60","5","40","45","30","2","null","null","null","null","null","null","Warranty","Cooking power","","",""
"","","","","","choice_trial_setup","html-keyboard-response","96","1393500","0.0-5.0-0.6","2","1","2025-04-10 18:08:35","7bd189e8e4882776c700e1dae255cdf5","","Mozilla/5.0 (Windows NT 10.0; Win64; x64) AppleWebKit/537.36 (KHTML, like Gecko) Chrome/135.0.0.0 Safari/537.36","WebKit","Chrome","135.0.0.0","Windows","10.0","https://hz8g1ckzuq.cognition.run/","en-US,en;q=0.9","yduro0ddlx59wjq","","34","[""White""]","No","Male","1759731.599999994","null","","<p></p>","null","choice","dct","repulsion_2","2","laptops","null","null","null","null","null","null","2","","","","","","","","","","",""
"","","","","","choice_trial","survey-html-form","97","1400139","0.0-5.0-1.6","2","1","2025-04-10 18:08:35","7bd189e8e4882776c700e1dae255cdf5","","Mozilla/5.0 (Windows NT 10.0; Win64; x64) AppleWebKit/537.36 (KHTML, like Gecko) Chrome/135.0.0.0 Safari/537.36","WebKit","Chrome","135.0.0.0","Windows","10.0","https://hz8g1ckzuq.cognition.run/","en-US,en;q=0.9","yduro0ddlx59wjq","","34","[""White""]","No","Male","1759731.599999994","6628","","","{""product_choice"":""B""}","choice","dct","repulsion_2","2","laptops","null","null","null","null","null","null","2","30","40","20","100","90","100","Processing speed","Memory (RAM)","","",""
"","","","","","choice_trial_setup","html-keyboard-response","98","1400445","0.0-5.0-0.7","2","1","2025-04-10 18:08:35","7bd189e8e4882776c700e1dae255cdf5","","Mozilla/5.0 (Windows NT 10.0; Win64; x64) AppleWebKit/537.36 (KHTML, like Gecko) Chrome/135.0.0.0 Safari/537.36","WebKit","Chrome","135.0.0.0","Windows","10.0","https://hz8g1ckzuq.cognition.run/","en-US,en;q=0.9","yduro0ddlx59wjq","","34","[""White""]","No","Male","1759731.599999994","null","","<p></p>","null","choice","wbw","catch","null","laptops","90","85","30","40","35","50","1","","","","","","","","","","",""
"","","","","","choice_trial","survey-html-form","99","1406673","0.0-5.0-1.7","2","1","2025-04-10 18:08:35","7bd189e8e4882776c700e1dae255cdf5","","Mozilla/5.0 (Windows NT 10.0; Win64; x64) AppleWebKit/537.36 (KHTML, like Gecko) Chrome/135.0.0.0 Safari/537.36","WebKit","Chrome","135.0.0.0","Windows","10.0","https://hz8g1ckzuq.cognition.run/","en-US,en;q=0.9","yduro0ddlx59wjq","","34","[""White""]","No","Male","1759731.599999994","6219","","","{""product_choice"":""B""}","choice","wbw","catch","null","laptops","90","85","30","40","35","50","1","null","null","null","null","null","null","Processing speed","Memory (RAM)","","",""
"","","","","","choice_trial_setup","html-keyboard-response","100","1406978","0.0-5.0-0.8","2","1","2025-04-10 18:08:35","7bd189e8e4882776c700e1dae255cdf5","","Mozilla/5.0 (Windows NT 10.0; Win64; x64) AppleWebKit/537.36 (KHTML, like Gecko) Chrome/135.0.0.0 Safari/537.36","WebKit","Chrome","135.0.0.0","Windows","10.0","https://hz8g1ckzuq.cognition.run/","en-US,en;q=0.9","yduro0ddlx59wjq","","34","[""White""]","No","Male","1759731.599999994","null","","<p></p>","null","choice","tcd","attraction_1","2","washing machines","null","null","null","null","null","null","1","","","","","","","","","","",""
"","","","","","choice_trial","survey-html-form","101","1426599","0.0-5.0-1.8","2","1","2025-04-10 18:08:35","7bd189e8e4882776c700e1dae255cdf5","","Mozilla/5.0 (Windows NT 10.0; Win64; x64) AppleWebKit/537.36 (KHTML, like Gecko) Chrome/135.0.0.0 Safari/537.36","WebKit","Chrome","135.0.0.0","Windows","10.0","https://hz8g1ckzuq.cognition.run/","en-US,en;q=0.9","yduro0ddlx59wjq","","34","[""White""]","No","Male","1759731.599999994","19610","","","{""product_choice"":""B""}","choice","tcd","attraction_1","2","washing machines","null","null","null","null","null","null","1","50","60","45","60","50","60","Average lifespan","Energy savings","","",""
"","","","","","choice_trial_setup","html-keyboard-response","102","1426912","0.0-5.0-0.9","2","1","2025-04-10 18:08:35","7bd189e8e4882776c700e1dae255cdf5","","Mozilla/5.0 (Windows NT 10.0; Win64; x64) AppleWebKit/537.36 (KHTML, like Gecko) Chrome/135.0.0.0 Safari/537.36","WebKit","Chrome","135.0.0.0","Windows","10.0","https://hz8g1ckzuq.cognition.run/","en-US,en;q=0.9","yduro0ddlx59wjq","","34","[""White""]","No","Male","1759731.599999994","null","","<p></p>","null","choice","ctd","attraction_1","2","microwave ovens","null","null","null","null","null","null","2","","","","","","","","","","",""
"","","","","","choice_trial","survey-html-form","103","1435113","0.0-5.0-1.9","2","1","2025-04-10 18:08:35","7bd189e8e4882776c700e1dae255cdf5","","Mozilla/5.0 (Windows NT 10.0; Win64; x64) AppleWebKit/537.36 (KHTML, like Gecko) Chrome/135.0.0.0 Safari/537.36","WebKit","Chrome","135.0.0.0","Windows","10.0","https://hz8g1ckzuq.cognition.run/","en-US,en;q=0.9","yduro0ddlx59wjq","","34","[""White""]","No","Male","1759731.599999994","8187","","","{""product_choice"":""B""}","choice","ctd","attraction_1","2","microwave ovens","null","null","null","null","null","null","2","50","60","45","60","50","60","Warranty","Cooking power","","",""
"","","","","","choice_trial_setup","html-keyboard-response","104","1435419","0.0-5.0-0.10","2","1","2025-04-10 18:08:35","7bd189e8e4882776c700e1dae255cdf5","","Mozilla/5.0 (Windows NT 10.0; Win64; x64) AppleWebKit/537.36 (KHTML, like Gecko) Chrome/135.0.0.0 Safari/537.36","WebKit","Chrome","135.0.0.0","Windows","10.0","https://hz8g1ckzuq.cognition.run/","en-US,en;q=0.9","yduro0ddlx59wjq","","34","[""White""]","No","Male","1759731.599999994","null","","<p></p>","null","choice","wwb","catch","null","televisions","90","90","20","30","45","5","2","","","","","","","","","","",""
"","","","","","choice_trial","survey-html-form","105","1445385","0.0-5.0-1.10","2","1","2025-04-10 18:08:35","7bd189e8e4882776c700e1dae255cdf5","","Mozilla/5.0 (Windows NT 10.0; Win64; x64) AppleWebKit/537.36 (KHTML, like Gecko) Chrome/135.0.0.0 Safari/537.36","WebKit","Chrome","135.0.0.0","Windows","10.0","https://hz8g1ckzuq.cognition.run/","en-US,en;q=0.9","yduro0ddlx59wjq","","34","[""White""]","No","Male","1759731.599999994","9959","","","{""product_choice"":""C""}","choice","wwb","catch","null","televisions","90","90","20","30","45","5","2","null","null","null","null","null","null","Screen size","Average lifespan","","",""
"","","","","","choice_trial_setup","html-keyboard-response","106","1445690","0.0-5.0-0.11","2","1","2025-04-10 18:08:35","7bd189e8e4882776c700e1dae255cdf5","","Mozilla/5.0 (Windows NT 10.0; Win64; x64) AppleWebKit/537.36 (KHTML, like Gecko) Chrome/135.0.0.0 Safari/537.36","WebKit","Chrome","135.0.0.0","Windows","10.0","https://hz8g1ckzuq.cognition.run/","en-US,en;q=0.9","yduro0ddlx59wjq","","34","[""White""]","No","Male","1759731.599999994","null","","<p></p>","null","choice","ctd","attraction_2","1","laptops","null","null","null","null","null","null","2","","","","","","","","","","",""
"","","","","","choice_trial","survey-html-form","107","1452455","0.0-5.0-1.11","2","1","2025-04-10 18:08:35","7bd189e8e4882776c700e1dae255cdf5","","Mozilla/5.0 (Windows NT 10.0; Win64; x64) AppleWebKit/537.36 (KHTML, like Gecko) Chrome/135.0.0.0 Safari/537.36","WebKit","Chrome","135.0.0.0","Windows","10.0","https://hz8g1ckzuq.cognition.run/","en-US,en;q=0.9","yduro0ddlx59wjq","","34","[""White""]","No","Male","1759731.599999994","6757","","","{""product_choice"":""A""}","choice","ctd","attraction_2","1","laptops","null","null","null","null","null","null","2","60","50","60","50","60","40","Processing speed","Memory (RAM)","","",""
"","","","","","choice_trial_setup","html-keyboard-response","108","1452770","0.0-5.0-0.12","2","1","2025-04-10 18:08:35","7bd189e8e4882776c700e1dae255cdf5","","Mozilla/5.0 (Windows NT 10.0; Win64; x64) AppleWebKit/537.36 (KHTML, like Gecko) Chrome/135.0.0.0 Safari/537.36","WebKit","Chrome","135.0.0.0","Windows","10.0","https://hz8g1ckzuq.cognition.run/","en-US,en;q=0.9","yduro0ddlx59wjq","","34","[""White""]","No","Male","1759731.599999994","null","","<p></p>","null","choice","tcd","repulsion_1","2","microwave ovens","null","null","null","null","null","null","2","","","","","","","","","","",""
"","","","","","choice_trial","survey-html-form","109","1458129","0.0-5.0-1.12","2","1","2025-04-10 18:08:35","7bd189e8e4882776c700e1dae255cdf5","","Mozilla/5.0 (Windows NT 10.0; Win64; x64) AppleWebKit/537.36 (KHTML, like Gecko) Chrome/135.0.0.0 Safari/537.36","WebKit","Chrome","135.0.0.0","Windows","10.0","https://hz8g1ckzuq.cognition.run/","en-US,en;q=0.9","yduro0ddlx59wjq","","34","[""White""]","No","Male","1759731.599999994","5349","","","{""product_choice"":""B""}","choice","tcd","repulsion_1","2","microwave ovens","null","null","null","null","null","null","2","30","40","25","100","90","100","Warranty","Cooking power","","",""
"","","","","","choice_trial_setup","html-keyboard-response","110","1458435","0.0-5.0-0.13","2","1","2025-04-10 18:08:35","7bd189e8e4882776c700e1dae255cdf5","","Mozilla/5.0 (Windows NT 10.0; Win64; x64) AppleWebKit/537.36 (KHTML, like Gecko) Chrome/135.0.0.0 Safari/537.36","WebKit","Chrome","135.0.0.0","Windows","10.0","https://hz8g1ckzuq.cognition.run/","en-US,en;q=0.9","yduro0ddlx59wjq","","34","[""White""]","No","Male","1759731.599999994","null","","<p></p>","null","choice","dtc","attraction_2","2","washing machines","null","null","null","null","null","null","1","","","","","","","","","","",""
"","","","","","choice_trial","survey-html-form","111","1466657","0.0-5.0-1.13","2","1","2025-04-10 18:08:35","7bd189e8e4882776c700e1dae255cdf5","","Mozilla/5.0 (Windows NT 10.0; Win64; x64) AppleWebKit/537.36 (KHTML, like Gecko) Chrome/135.0.0.0 Safari/537.36","WebKit","Chrome","135.0.0.0","Windows","10.0","https://hz8g1ckzuq.cognition.run/","en-US,en;q=0.9","yduro0ddlx59wjq","","34","[""White""]","No","Male","1759731.599999994","8213","","","{""product_choice"":""C""}","choice","dtc","attraction_2","2","washing machines","null","null","null","null","null","null","1","50","60","40","60","50","60","Average lifespan","Energy savings","","",""
"","","","","","choice_trial_setup","html-keyboard-response","112","1466964","0.0-5.0-0.14","2","1","2025-04-10 18:08:35","7bd189e8e4882776c700e1dae255cdf5","","Mozilla/5.0 (Windows NT 10.0; Win64; x64) AppleWebKit/537.36 (KHTML, like Gecko) Chrome/135.0.0.0 Safari/537.36","WebKit","Chrome","135.0.0.0","Windows","10.0","https://hz8g1ckzuq.cognition.run/","en-US,en;q=0.9","yduro0ddlx59wjq","","34","[""White""]","No","Male","1759731.599999994","null","","<p></p>","null","choice","ctd","attraction_2","2","televisions","null","null","null","null","null","null","2","","","","","","","","","","",""
"","","","","","choice_trial","survey-html-form","113","1476833","0.0-5.0-1.14","2","1","2025-04-10 18:08:35","7bd189e8e4882776c700e1dae255cdf5","","Mozilla/5.0 (Windows NT 10.0; Win64; x64) AppleWebKit/537.36 (KHTML, like Gecko) Chrome/135.0.0.0 Safari/537.36","WebKit","Chrome","135.0.0.0","Windows","10.0","https://hz8g1ckzuq.cognition.run/","en-US,en;q=0.9","yduro0ddlx59wjq","","34","[""White""]","No","Male","1759731.599999994","9858","","","{""product_choice"":""B""}","choice","ctd","attraction_2","2","televisions","null","null","null","null","null","null","2","50","60","40","60","50","60","Screen size","Average lifespan","","",""
"","","","","","choice_trial_setup","html-keyboard-response","114","1477139","0.0-5.0-0.15","2","1","2025-04-10 18:08:35","7bd189e8e4882776c700e1dae255cdf5","","Mozilla/5.0 (Windows NT 10.0; Win64; x64) AppleWebKit/537.36 (KHTML, like Gecko) Chrome/135.0.0.0 Safari/537.36","WebKit","Chrome","135.0.0.0","Windows","10.0","https://hz8g1ckzuq.cognition.run/","en-US,en;q=0.9","yduro0ddlx59wjq","","34","[""White""]","No","Male","1759731.599999994","null","","<p></p>","null","choice","dct","repulsion_1","1","laptops","null","null","null","null","null","null","1","","","","","","","","","","",""
"","","","","","choice_trial","survey-html-form","115","1487513","0.0-5.0-1.15","2","1","2025-04-10 18:08:35","7bd189e8e4882776c700e1dae255cdf5","","Mozilla/5.0 (Windows NT 10.0; Win64; x64) AppleWebKit/537.36 (KHTML, like Gecko) Chrome/135.0.0.0 Safari/537.36","WebKit","Chrome","135.0.0.0","Windows","10.0","https://hz8g1ckzuq.cognition.run/","en-US,en;q=0.9","yduro0ddlx59wjq","","34","[""White""]","No","Male","1759731.599999994","10364","","","{""product_choice"":""B""}","choice","dct","repulsion_1","1","laptops","null","null","null","null","null","null","1","100","90","100","30","40","25","Processing speed","Memory (RAM)","","",""
"","","","","","choice_trial_setup","html-keyboard-response","116","1487820","0.0-5.0-0.16","2","1","2025-04-10 18:08:35","7bd189e8e4882776c700e1dae255cdf5","","Mozilla/5.0 (Windows NT 10.0; Win64; x64) AppleWebKit/537.36 (KHTML, like Gecko) Chrome/135.0.0.0 Safari/537.36","WebKit","Chrome","135.0.0.0","Windows","10.0","https://hz8g1ckzuq.cognition.run/","en-US,en;q=0.9","yduro0ddlx59wjq","","34","[""White""]","No","Male","1759731.599999994","null","","<p></p>","null","choice","dct","repulsion_2","1","washing machines","null","null","null","null","null","null","2","","","","","","","","","","",""
"","","","","","choice_trial","survey-html-form","117","1497917","0.0-5.0-1.16","2","1","2025-04-10 18:08:35","7bd189e8e4882776c700e1dae255cdf5","","Mozilla/5.0 (Windows NT 10.0; Win64; x64) AppleWebKit/537.36 (KHTML, like Gecko) Chrome/135.0.0.0 Safari/537.36","WebKit","Chrome","135.0.0.0","Windows","10.0","https://hz8g1ckzuq.cognition.run/","en-US,en;q=0.9","yduro0ddlx59wjq","","34","[""White""]","No","Male","1759731.599999994","10085","","","{""product_choice"":""B""}","choice","dct","repulsion_2","1","washing machines","null","null","null","null","null","null","2","100","90","100","30","40","20","Average lifespan","Energy savings","","",""
"","","","","","choice_trial_setup","html-keyboard-response","118","1498224","0.0-5.0-0.17","2","1","2025-04-10 18:08:35","7bd189e8e4882776c700e1dae255cdf5","","Mozilla/5.0 (Windows NT 10.0; Win64; x64) AppleWebKit/537.36 (KHTML, like Gecko) Chrome/135.0.0.0 Safari/537.36","WebKit","Chrome","135.0.0.0","Windows","10.0","https://hz8g1ckzuq.cognition.run/","en-US,en;q=0.9","yduro0ddlx59wjq","","34","[""White""]","No","Male","1759731.599999994","null","","<p></p>","null","choice","dtc","repulsion_2","2","televisions","null","null","null","null","null","null","1","","","","","","","","","","",""
"","","","","","choice_trial","survey-html-form","119","1505017","0.0-5.0-1.17","2","1","2025-04-10 18:08:35","7bd189e8e4882776c700e1dae255cdf5","","Mozilla/5.0 (Windows NT 10.0; Win64; x64) AppleWebKit/537.36 (KHTML, like Gecko) Chrome/135.0.0.0 Safari/537.36","WebKit","Chrome","135.0.0.0","Windows","10.0","https://hz8g1ckzuq.cognition.run/","en-US,en;q=0.9","yduro0ddlx59wjq","","34","[""White""]","No","Male","1759731.599999994","6781","","","{""product_choice"":""C""}","choice","dtc","repulsion_2","2","televisions","null","null","null","null","null","null","1","30","40","20","100","90","100","Screen size","Average lifespan","","",""
"","","","","","choice_trial_setup","html-keyboard-response","120","1505323","0.0-5.0-0.18","2","1","2025-04-10 18:08:35","7bd189e8e4882776c700e1dae255cdf5","","Mozilla/5.0 (Windows NT 10.0; Win64; x64) AppleWebKit/537.36 (KHTML, like Gecko) Chrome/135.0.0.0 Safari/537.36","WebKit","Chrome","135.0.0.0","Windows","10.0","https://hz8g1ckzuq.cognition.run/","en-US,en;q=0.9","yduro0ddlx59wjq","","34","[""White""]","No","Male","1759731.599999994","null","","<p></p>","null","choice","ctd","attraction_2","1","televisions","null","null","null","null","null","null","2","","","","","","","","","","",""
"","","","","","choice_trial","survey-html-form","121","1513991","0.0-5.0-1.18","2","1","2025-04-10 18:08:35","7bd189e8e4882776c700e1dae255cdf5","","Mozilla/5.0 (Windows NT 10.0; Win64; x64) AppleWebKit/537.36 (KHTML, like Gecko) Chrome/135.0.0.0 Safari/537.36","WebKit","Chrome","135.0.0.0","Windows","10.0","https://hz8g1ckzuq.cognition.run/","en-US,en;q=0.9","yduro0ddlx59wjq","","34","[""White""]","No","Male","1759731.599999994","8661","","","{""product_choice"":""B""}","choice","ctd","attraction_2","1","televisions","null","null","null","null","null","null","2","60","50","60","50","60","40","Screen size","Average lifespan","","",""
"","","","","","choice_trial_setup","html-keyboard-response","122","1514298","0.0-5.0-0.19","2","1","2025-04-10 18:08:35","7bd189e8e4882776c700e1dae255cdf5","","Mozilla/5.0 (Windows NT 10.0; Win64; x64) AppleWebKit/537.36 (KHTML, like Gecko) Chrome/135.0.0.0 Safari/537.36","WebKit","Chrome","135.0.0.0","Windows","10.0","https://hz8g1ckzuq.cognition.run/","en-US,en;q=0.9","yduro0ddlx59wjq","","34","[""White""]","No","Male","1759731.599999994","null","","<p></p>","null","choice","tdc","repulsion_1","1","televisions","null","null","null","null","null","null","2","","","","","","","","","","",""
"","","","","","choice_trial","survey-html-form","123","1523875","0.0-5.0-1.19","2","1","2025-04-10 18:08:35","7bd189e8e4882776c700e1dae255cdf5","","Mozilla/5.0 (Windows NT 10.0; Win64; x64) AppleWebKit/537.36 (KHTML, like Gecko) Chrome/135.0.0.0 Safari/537.36","WebKit","Chrome","135.0.0.0","Windows","10.0","https://hz8g1ckzuq.cognition.run/","en-US,en;q=0.9","yduro0ddlx59wjq","","34","[""White""]","No","Male","1759731.599999994","9565","","","{""product_choice"":""C""}","choice","tdc","repulsion_1","1","televisions","null","null","null","null","null","null","2","100","90","100","30","40","25","Screen size","Average lifespan","","",""
"","","","","","choice_trial_setup","html-keyboard-response","124","1524183","0.0-5.0-0.20","2","1","2025-04-10 18:08:35","7bd189e8e4882776c700e1dae255cdf5","","Mozilla/5.0 (Windows NT 10.0; Win64; x64) AppleWebKit/537.36 (KHTML, like Gecko) Chrome/135.0.0.0 Safari/537.36","WebKit","Chrome","135.0.0.0","Windows","10.0","https://hz8g1ckzuq.cognition.run/","en-US,en;q=0.9","yduro0ddlx59wjq","","34","[""White""]","No","Male","1759731.599999994","null","","<p></p>","null","choice","dct","attraction_1","1","televisions","null","null","null","null","null","null","1","","","","","","","","","","",""
"","","","","","choice_trial","survey-html-form","125","1535145","0.0-5.0-1.20","2","1","2025-04-10 18:08:35","7bd189e8e4882776c700e1dae255cdf5","","Mozilla/5.0 (Windows NT 10.0; Win64; x64) AppleWebKit/537.36 (KHTML, like Gecko) Chrome/135.0.0.0 Safari/537.36","WebKit","Chrome","135.0.0.0","Windows","10.0","https://hz8g1ckzuq.cognition.run/","en-US,en;q=0.9","yduro0ddlx59wjq","","34","[""White""]","No","Male","1759731.599999994","10950","","","{""product_choice"":""C""}","choice","dct","attraction_1","1","televisions","null","null","null","null","null","null","1","60","50","60","50","60","45","Screen size","Average lifespan","","",""
"","","","","","choice_trial_setup","html-keyboard-response","126","1535452","0.0-5.0-0.21","2","1","2025-04-10 18:08:35","7bd189e8e4882776c700e1dae255cdf5","","Mozilla/5.0 (Windows NT 10.0; Win64; x64) AppleWebKit/537.36 (KHTML, like Gecko) Chrome/135.0.0.0 Safari/537.36","WebKit","Chrome","135.0.0.0","Windows","10.0","https://hz8g1ckzuq.cognition.run/","en-US,en;q=0.9","yduro0ddlx59wjq","","34","[""White""]","No","Male","1759731.599999994","null","","<p></p>","null","choice","tdc","repulsion_1","2","laptops","null","null","null","null","null","null","2","","","","","","","","","","",""
"","","","","","choice_trial","survey-html-form","127","1547312","0.0-5.0-1.21","2","1","2025-04-10 18:08:35","7bd189e8e4882776c700e1dae255cdf5","","Mozilla/5.0 (Windows NT 10.0; Win64; x64) AppleWebKit/537.36 (KHTML, like Gecko) Chrome/135.0.0.0 Safari/537.36","WebKit","Chrome","135.0.0.0","Windows","10.0","https://hz8g1ckzuq.cognition.run/","en-US,en;q=0.9","yduro0ddlx59wjq","","34","[""White""]","No","Male","1759731.599999994","11847","","","{""product_choice"":""C""}","choice","tdc","repulsion_1","2","laptops","null","null","null","null","null","null","2","30","40","25","100","90","100","Processing speed","Memory (RAM)","","",""
"","","","","","choice_trial_setup","html-keyboard-response","128","1547618","0.0-5.0-0.22","2","1","2025-04-10 18:08:35","7bd189e8e4882776c700e1dae255cdf5","","Mozilla/5.0 (Windows NT 10.0; Win64; x64) AppleWebKit/537.36 (KHTML, like Gecko) Chrome/135.0.0.0 Safari/537.36","WebKit","Chrome","135.0.0.0","Windows","10.0","https://hz8g1ckzuq.cognition.run/","en-US,en;q=0.9","yduro0ddlx59wjq","","34","[""White""]","No","Male","1759731.599999994","null","","<p></p>","null","choice","bww","catch","null","televisions","50","70","10","20","40","15","1","","","","","","","","","","",""
"","","","","","choice_trial","survey-html-form","129","1556325","0.0-5.0-1.22","2","1","2025-04-10 18:08:35","7bd189e8e4882776c700e1dae255cdf5","","Mozilla/5.0 (Windows NT 10.0; Win64; x64) AppleWebKit/537.36 (KHTML, like Gecko) Chrome/135.0.0.0 Safari/537.36","WebKit","Chrome","135.0.0.0","Windows","10.0","https://hz8g1ckzuq.cognition.run/","en-US,en;q=0.9","yduro0ddlx59wjq","","34","[""White""]","No","Male","1759731.599999994","8697","","","{""product_choice"":""A""}","choice","bww","catch","null","televisions","50","70","10","20","40","15","1","null","null","null","null","null","null","Screen size","Average lifespan","","",""
"","","","","","choice_trial_setup","html-keyboard-response","130","1556633","0.0-5.0-0.23","2","1","2025-04-10 18:08:35","7bd189e8e4882776c700e1dae255cdf5","","Mozilla/5.0 (Windows NT 10.0; Win64; x64) AppleWebKit/537.36 (KHTML, like Gecko) Chrome/135.0.0.0 Safari/537.36","WebKit","Chrome","135.0.0.0","Windows","10.0","https://hz8g1ckzuq.cognition.run/","en-US,en;q=0.9","yduro0ddlx59wjq","","34","[""White""]","No","Male","1759731.599999994","null","","<p></p>","null","choice","tdc","repulsion_1","2","televisions","null","null","null","null","null","null","2","","","","","","","","","","",""
"","","","","","choice_trial","survey-html-form","131","1566923","0.0-5.0-1.23","2","1","2025-04-10 18:08:35","7bd189e8e4882776c700e1dae255cdf5","","Mozilla/5.0 (Windows NT 10.0; Win64; x64) AppleWebKit/537.36 (KHTML, like Gecko) Chrome/135.0.0.0 Safari/537.36","WebKit","Chrome","135.0.0.0","Windows","10.0","https://hz8g1ckzuq.cognition.run/","en-US,en;q=0.9","yduro0ddlx59wjq","","34","[""White""]","No","Male","1759731.599999994","10278","","","{""product_choice"":""C""}","choice","tdc","repulsion_1","2","televisions","null","null","null","null","null","null","2","30","40","25","100","90","100","Screen size","Average lifespan","","",""
"","","","","","choice_trial_setup","html-keyboard-response","132","1567231","0.0-5.0-0.24","2","1","2025-04-10 18:08:35","7bd189e8e4882776c700e1dae255cdf5","","Mozilla/5.0 (Windows NT 10.0; Win64; x64) AppleWebKit/537.36 (KHTML, like Gecko) Chrome/135.0.0.0 Safari/537.36","WebKit","Chrome","135.0.0.0","Windows","10.0","https://hz8g1ckzuq.cognition.run/","en-US,en;q=0.9","yduro0ddlx59wjq","","34","[""White""]","No","Male","1759731.599999994","null","","<p></p>","null","choice","cdt","attraction_2","1","microwave ovens","null","null","null","null","null","null","2","","","","","","","","","","",""
"","","","","","choice_trial","survey-html-form","133","1575351","0.0-5.0-1.24","2","1","2025-04-10 18:08:35","7bd189e8e4882776c700e1dae255cdf5","","Mozilla/5.0 (Windows NT 10.0; Win64; x64) AppleWebKit/537.36 (KHTML, like Gecko) Chrome/135.0.0.0 Safari/537.36","WebKit","Chrome","135.0.0.0","Windows","10.0","https://hz8g1ckzuq.cognition.run/","en-US,en;q=0.9","yduro0ddlx59wjq","","34","[""White""]","No","Male","1759731.599999994","8110","","","{""product_choice"":""A""}","choice","cdt","attraction_2","1","microwave ovens","null","null","null","null","null","null","2","60","50","60","50","60","40","Warranty","Cooking power","","",""
"","","","","","choice_trial_setup","html-keyboard-response","134","1575659","0.0-5.0-0.25","2","1","2025-04-10 18:08:35","7bd189e8e4882776c700e1dae255cdf5","","Mozilla/5.0 (Windows NT 10.0; Win64; x64) AppleWebKit/537.36 (KHTML, like Gecko) Chrome/135.0.0.0 Safari/537.36","WebKit","Chrome","135.0.0.0","Windows","10.0","https://hz8g1ckzuq.cognition.run/","en-US,en;q=0.9","yduro0ddlx59wjq","","34","[""White""]","No","Male","1759731.599999994","null","","<p></p>","null","choice","cdt","repulsion_1","1","washing machines","null","null","null","null","null","null","1","","","","","","","","","","",""
"","","","","","choice_trial","survey-html-form","135","1583335","0.0-5.0-1.25","2","1","2025-04-10 18:08:35","7bd189e8e4882776c700e1dae255cdf5","","Mozilla/5.0 (Windows NT 10.0; Win64; x64) AppleWebKit/537.36 (KHTML, like Gecko) Chrome/135.0.0.0 Safari/537.36","WebKit","Chrome","135.0.0.0","Windows","10.0","https://hz8g1ckzuq.cognition.run/","en-US,en;q=0.9","yduro0ddlx59wjq","","34","[""White""]","No","Male","1759731.599999994","7664","","","{""product_choice"":""C""}","choice","cdt","repulsion_1","1","washing machines","null","null","null","null","null","null","1","100","90","100","30","40","25","Average lifespan","Energy savings","","",""
"","","","","","choice_trial_setup","html-keyboard-response","136","1583643","0.0-5.0-0.26","2","1","2025-04-10 18:08:35","7bd189e8e4882776c700e1dae255cdf5","","Mozilla/5.0 (Windows NT 10.0; Win64; x64) AppleWebKit/537.36 (KHTML, like Gecko) Chrome/135.0.0.0 Safari/537.36","WebKit","Chrome","135.0.0.0","Windows","10.0","https://hz8g1ckzuq.cognition.run/","en-US,en;q=0.9","yduro0ddlx59wjq","","34","[""White""]","No","Male","1759731.599999994","null","","<p></p>","null","choice","tdc","attraction_1","1","laptops","null","null","null","null","null","null","2","","","","","","","","","","",""
"","","","","","choice_trial","survey-html-form","137","1592313","0.0-5.0-1.26","2","1","2025-04-10 18:08:35","7bd189e8e4882776c700e1dae255cdf5","","Mozilla/5.0 (Windows NT 10.0; Win64; x64) AppleWebKit/537.36 (KHTML, like Gecko) Chrome/135.0.0.0 Safari/537.36","WebKit","Chrome","135.0.0.0","Windows","10.0","https://hz8g1ckzuq.cognition.run/","en-US,en;q=0.9","yduro0ddlx59wjq","","34","[""White""]","No","Male","1759731.599999994","8657","","","{""product_choice"":""C""}","choice","tdc","attraction_1","1","laptops","null","null","null","null","null","null","2","60","50","60","50","60","45","Processing speed","Memory (RAM)","","",""
"","","","","","choice_trial_setup","html-keyboard-response","138","1592621","0.0-5.0-0.27","2","1","2025-04-10 18:08:35","7bd189e8e4882776c700e1dae255cdf5","","Mozilla/5.0 (Windows NT 10.0; Win64; x64) AppleWebKit/537.36 (KHTML, like Gecko) Chrome/135.0.0.0 Safari/537.36","WebKit","Chrome","135.0.0.0","Windows","10.0","https://hz8g1ckzuq.cognition.run/","en-US,en;q=0.9","yduro0ddlx59wjq","","34","[""White""]","No","Male","1759731.599999994","null","","<p></p>","null","choice","tdc","attraction_1","1","washing machines","null","null","null","null","null","null","2","","","","","","","","","","",""
"","","","","","choice_trial","survey-html-form","139","1601131","0.0-5.0-1.27","2","1","2025-04-10 18:08:35","7bd189e8e4882776c700e1dae255cdf5","","Mozilla/5.0 (Windows NT 10.0; Win64; x64) AppleWebKit/537.36 (KHTML, like Gecko) Chrome/135.0.0.0 Safari/537.36","WebKit","Chrome","135.0.0.0","Windows","10.0","https://hz8g1ckzuq.cognition.run/","en-US,en;q=0.9","yduro0ddlx59wjq","","34","[""White""]","No","Male","1759731.599999994","8500","","","{""product_choice"":""A""}","choice","tdc","attraction_1","1","washing machines","null","null","null","null","null","null","2","60","50","60","50","60","45","Average lifespan","Energy savings","","",""
"","","","","","choice_trial_setup","html-keyboard-response","140","1601439","0.0-5.0-0.28","2","1","2025-04-10 18:08:35","7bd189e8e4882776c700e1dae255cdf5","","Mozilla/5.0 (Windows NT 10.0; Win64; x64) AppleWebKit/537.36 (KHTML, like Gecko) Chrome/135.0.0.0 Safari/537.36","WebKit","Chrome","135.0.0.0","Windows","10.0","https://hz8g1ckzuq.cognition.run/","en-US,en;q=0.9","yduro0ddlx59wjq","","34","[""White""]","No","Male","1759731.599999994","null","","<p></p>","null","choice","cdt","attraction_2","2","laptops","null","null","null","null","null","null","1","","","","","","","","","","",""
"","","","","","choice_trial","survey-html-form","141","1607587","0.0-5.0-1.28","2","1","2025-04-10 18:08:35","7bd189e8e4882776c700e1dae255cdf5","","Mozilla/5.0 (Windows NT 10.0; Win64; x64) AppleWebKit/537.36 (KHTML, like Gecko) Chrome/135.0.0.0 Safari/537.36","WebKit","Chrome","135.0.0.0","Windows","10.0","https://hz8g1ckzuq.cognition.run/","en-US,en;q=0.9","yduro0ddlx59wjq","","34","[""White""]","No","Male","1759731.599999994","6134","","","{""product_choice"":""C""}","choice","cdt","attraction_2","2","laptops","null","null","null","null","null","null","1","50","60","40","60","50","60","Processing speed","Memory (RAM)","","",""
"","","","","","choice_trial_setup","html-keyboard-response","142","1607895","0.0-5.0-0.29","2","1","2025-04-10 18:08:35","7bd189e8e4882776c700e1dae255cdf5","","Mozilla/5.0 (Windows NT 10.0; Win64; x64) AppleWebKit/537.36 (KHTML, like Gecko) Chrome/135.0.0.0 Safari/537.36","WebKit","Chrome","135.0.0.0","Windows","10.0","https://hz8g1ckzuq.cognition.run/","en-US,en;q=0.9","yduro0ddlx59wjq","","34","[""White""]","No","Male","1759731.599999994","null","","<p></p>","null","choice","tdc","repulsion_2","2","washing machines","null","null","null","null","null","null","1","","","","","","","","","","",""
"","","","","","choice_trial","survey-html-form","143","1613517","0.0-5.0-1.29","2","1","2025-04-10 18:08:35","7bd189e8e4882776c700e1dae255cdf5","","Mozilla/5.0 (Windows NT 10.0; Win64; x64) AppleWebKit/537.36 (KHTML, like Gecko) Chrome/135.0.0.0 Safari/537.36","WebKit","Chrome","135.0.0.0","Windows","10.0","https://hz8g1ckzuq.cognition.run/","en-US,en;q=0.9","yduro0ddlx59wjq","","34","[""White""]","No","Male","1759731.599999994","5609","","","{""product_choice"":""C""}","choice","tdc","repulsion_2","2","washing machines","null","null","null","null","null","null","1","30","40","20","100","90","100","Average lifespan","Energy savings","","",""
"","","","","","choice_trial_setup","html-keyboard-response","144","1613824","0.0-5.0-0.30","2","1","2025-04-10 18:08:35","7bd189e8e4882776c700e1dae255cdf5","","Mozilla/5.0 (Windows NT 10.0; Win64; x64) AppleWebKit/537.36 (KHTML, like Gecko) Chrome/135.0.0.0 Safari/537.36","WebKit","Chrome","135.0.0.0","Windows","10.0","https://hz8g1ckzuq.cognition.run/","en-US,en;q=0.9","yduro0ddlx59wjq","","34","[""White""]","No","Male","1759731.599999994","null","","<p></p>","null","choice","ctd","attraction_2","2","microwave ovens","null","null","null","null","null","null","2","","","","","","","","","","",""
"","","","","","choice_trial","survey-html-form","145","1619187","0.0-5.0-1.30","2","1","2025-04-10 18:08:35","7bd189e8e4882776c700e1dae255cdf5","","Mozilla/5.0 (Windows NT 10.0; Win64; x64) AppleWebKit/537.36 (KHTML, like Gecko) Chrome/135.0.0.0 Safari/537.36","WebKit","Chrome","135.0.0.0","Windows","10.0","https://hz8g1ckzuq.cognition.run/","en-US,en;q=0.9","yduro0ddlx59wjq","","34","[""White""]","No","Male","1759731.599999994","5350","","","{""product_choice"":""B""}","choice","ctd","attraction_2","2","microwave ovens","null","null","null","null","null","null","2","50","60","40","60","50","60","Warranty","Cooking power","","",""
"","","","","","choice_trial_setup","html-keyboard-response","146","1619495","0.0-5.0-0.31","2","1","2025-04-10 18:08:35","7bd189e8e4882776c700e1dae255cdf5","","Mozilla/5.0 (Windows NT 10.0; Win64; x64) AppleWebKit/537.36 (KHTML, like Gecko) Chrome/135.0.0.0 Safari/537.36","WebKit","Chrome","135.0.0.0","Windows","10.0","https://hz8g1ckzuq.cognition.run/","en-US,en;q=0.9","yduro0ddlx59wjq","","34","[""White""]","No","Male","1759731.599999994","null","","<p></p>","null","choice","dct","attraction_2","1","washing machines","null","null","null","null","null","null","1","","","","","","","","","","",""
"","","","","","choice_trial","survey-html-form","147","1627625","0.0-5.0-1.31","2","1","2025-04-10 18:08:35","7bd189e8e4882776c700e1dae255cdf5","","Mozilla/5.0 (Windows NT 10.0; Win64; x64) AppleWebKit/537.36 (KHTML, like Gecko) Chrome/135.0.0.0 Safari/537.36","WebKit","Chrome","135.0.0.0","Windows","10.0","https://hz8g1ckzuq.cognition.run/","en-US,en;q=0.9","yduro0ddlx59wjq","","34","[""White""]","No","Male","1759731.599999994","8117","","","{""product_choice"":""C""}","choice","dct","attraction_2","1","washing machines","null","null","null","null","null","null","1","60","50","60","50","60","40","Average lifespan","Energy savings","","",""
"","","","","","choice_trial_setup","html-keyboard-response","148","1627933","0.0-5.0-0.32","2","1","2025-04-10 18:08:35","7bd189e8e4882776c700e1dae255cdf5","","Mozilla/5.0 (Windows NT 10.0; Win64; x64) AppleWebKit/537.36 (KHTML, like Gecko) Chrome/135.0.0.0 Safari/537.36","WebKit","Chrome","135.0.0.0","Windows","10.0","https://hz8g1ckzuq.cognition.run/","en-US,en;q=0.9","yduro0ddlx59wjq","","34","[""White""]","No","Male","1759731.599999994","null","","<p></p>","null","choice","wwb","catch","null","microwave ovens","70","85","30","25","5","15","1","","","","","","","","","","",""
"","","","","","choice_trial","survey-html-form","149","1633329","0.0-5.0-1.32","2","1","2025-04-10 18:08:35","7bd189e8e4882776c700e1dae255cdf5","","Mozilla/5.0 (Windows NT 10.0; Win64; x64) AppleWebKit/537.36 (KHTML, like Gecko) Chrome/135.0.0.0 Safari/537.36","WebKit","Chrome","135.0.0.0","Windows","10.0","https://hz8g1ckzuq.cognition.run/","en-US,en;q=0.9","yduro0ddlx59wjq","","34","[""White""]","No","Male","1759731.599999994","5382","","","{""product_choice"":""C""}","choice","wwb","catch","null","microwave ovens","70","85","30","25","5","15","1","null","null","null","null","null","null","Warranty","Cooking power","","",""
"","","","","","choice_trial_setup","html-keyboard-response","150","1633637","0.0-5.0-0.33","2","1","2025-04-10 18:08:35","7bd189e8e4882776c700e1dae255cdf5","","Mozilla/5.0 (Windows NT 10.0; Win64; x64) AppleWebKit/537.36 (KHTML, like Gecko) Chrome/135.0.0.0 Safari/537.36","WebKit","Chrome","135.0.0.0","Windows","10.0","https://hz8g1ckzuq.cognition.run/","en-US,en;q=0.9","yduro0ddlx59wjq","","34","[""White""]","No","Male","1759731.599999994","null","","<p></p>","null","choice","tcd","repulsion_2","2","microwave ovens","null","null","null","null","null","null","1","","","","","","","","","","",""
"","","","","","choice_trial","survey-html-form","151","1641499","0.0-5.0-1.33","2","1","2025-04-10 18:08:35","7bd189e8e4882776c700e1dae255cdf5","","Mozilla/5.0 (Windows NT 10.0; Win64; x64) AppleWebKit/537.36 (KHTML, like Gecko) Chrome/135.0.0.0 Safari/537.36","WebKit","Chrome","135.0.0.0","Windows","10.0","https://hz8g1ckzuq.cognition.run/","en-US,en;q=0.9","yduro0ddlx59wjq","","34","[""White""]","No","Male","1759731.599999994","7851","","","{""product_choice"":""A""}","choice","tcd","repulsion_2","2","microwave ovens","null","null","null","null","null","null","1","30","40","20","100","90","100","Warranty","Cooking power","","",""
"","","","","","choice_trial_setup","html-keyboard-response","152","1641813","0.0-5.0-0.34","2","1","2025-04-10 18:08:35","7bd189e8e4882776c700e1dae255cdf5","","Mozilla/5.0 (Windows NT 10.0; Win64; x64) AppleWebKit/537.36 (KHTML, like Gecko) Chrome/135.0.0.0 Safari/537.36","WebKit","Chrome","135.0.0.0","Windows","10.0","https://hz8g1ckzuq.cognition.run/","en-US,en;q=0.9","yduro0ddlx59wjq","","34","[""White""]","No","Male","1759731.599999994","null","","<p></p>","null","choice","dtc","attraction_1","2","televisions","null","null","null","null","null","null","1","","","","","","","","","","",""
"","","","","","choice_trial","survey-html-form","153","1651612","0.0-5.0-1.34","2","1","2025-04-10 18:08:35","7bd189e8e4882776c700e1dae255cdf5","","Mozilla/5.0 (Windows NT 10.0; Win64; x64) AppleWebKit/537.36 (KHTML, like Gecko) Chrome/135.0.0.0 Safari/537.36","WebKit","Chrome","135.0.0.0","Windows","10.0","https://hz8g1ckzuq.cognition.run/","en-US,en;q=0.9","yduro0ddlx59wjq","","34","[""White""]","No","Male","1759731.599999994","9788","","","{""product_choice"":""B""}","choice","dtc","attraction_1","2","televisions","null","null","null","null","null","null","1","50","60","45","60","50","60","Screen size","Average lifespan","","",""
"","","","","","choice_trial_setup","html-keyboard-response","154","1651920","0.0-5.0-0.35","2","1","2025-04-10 18:08:35","7bd189e8e4882776c700e1dae255cdf5","","Mozilla/5.0 (Windows NT 10.0; Win64; x64) AppleWebKit/537.36 (KHTML, like Gecko) Chrome/135.0.0.0 Safari/537.36","WebKit","Chrome","135.0.0.0","Windows","10.0","https://hz8g1ckzuq.cognition.run/","en-US,en;q=0.9","yduro0ddlx59wjq","","34","[""White""]","No","Male","1759731.599999994","null","","<p></p>","null","choice","dct","attraction_1","2","laptops","null","null","null","null","null","null","1","","","","","","","","","","",""
"","","","","","choice_trial","survey-html-form","155","1659183","0.0-5.0-1.35","2","1","2025-04-10 18:08:35","7bd189e8e4882776c700e1dae255cdf5","","Mozilla/5.0 (Windows NT 10.0; Win64; x64) AppleWebKit/537.36 (KHTML, like Gecko) Chrome/135.0.0.0 Safari/537.36","WebKit","Chrome","135.0.0.0","Windows","10.0","https://hz8g1ckzuq.cognition.run/","en-US,en;q=0.9","yduro0ddlx59wjq","","34","[""White""]","No","Male","1759731.599999994","7249","","","{""product_choice"":""C""}","choice","dct","attraction_1","2","laptops","null","null","null","null","null","null","1","50","60","45","60","50","60","Processing speed","Memory (RAM)","","",""
"","","","","","choice_trial_setup","html-keyboard-response","156","1659492","0.0-5.0-0.36","2","1","2025-04-10 18:08:35","7bd189e8e4882776c700e1dae255cdf5","","Mozilla/5.0 (Windows NT 10.0; Win64; x64) AppleWebKit/537.36 (KHTML, like Gecko) Chrome/135.0.0.0 Safari/537.36","WebKit","Chrome","135.0.0.0","Windows","10.0","https://hz8g1ckzuq.cognition.run/","en-US,en;q=0.9","yduro0ddlx59wjq","","34","[""White""]","No","Male","1759731.599999994","null","","<p></p>","null","choice","dct","repulsion_1","1","microwave ovens","null","null","null","null","null","null","2","","","","","","","","","","",""
