"success","timeout","failed_images","failed_audio","failed_video","screen_id","trial_type","trial_index","time_elapsed","internal_node_id","run_id","condition","recorded_at","source_code_version","ip","user_agent","device","browser","browser_version","platform","platform_version","referer","accept_language","ppt_id","final_score","age","race","ethnicity","gender","exp_duration","rt","view_history","stimulus","response","phase","order","effect","t_high","category","d1_best","d2_best","d1_worst1","d2_worst1","d1_worst2","d2_worst2","first_dim","d1_t","d1_c","d1_d","d2_t","d2_c","d2_d","d1_name","d2_name","strategy_response","trialType","question_order"
"true","false","[]","[]","[]","img preload","preload","0","8477","0.0-0.0","21","1","2025-04-10 19:14:18","7bd189e8e4882776c700e1dae255cdf5","","Mozilla/5.0 (Windows NT 10.0; Win64; x64) AppleWebKit/537.36 (KHTML, like Gecko) Chrome/130.0.0.0 Safari/537.36","WebKit","Chrome","130.0.0.0","Windows","10.0","https://hz8g1ckzuq.cognition.run/","en-US,en;q=0.9","8hjus0jdgw3dewy","","51","[""White""]","No","Female","848500.7999999523","","","","","","","","","","","","","","","","","","","","","","","","","","",""
"true","","","","","","fullscreen","1","34699","0.0-1.0","21","1","2025-04-10 19:14:18","7bd189e8e4882776c700e1dae255cdf5","","Mozilla/5.0 (Windows NT 10.0; Win64; x64) AppleWebKit/537.36 (KHTML, like Gecko) Chrome/130.0.0.0 Safari/537.36","WebKit","Chrome","130.0.0.0","Windows","10.0","https://hz8g1ckzuq.cognition.run/","en-US,en;q=0.9","8hjus0jdgw3dewy","","51","[""White""]","No","Female","848500.7999999523","25208","","","","","","","","","","","","","","","","","","","","","","","","","",""
"","","","","","","instructions","2","68209","0.0-2.0","21","1","2025-04-10 19:14:18","7bd189e8e4882776c700e1dae255cdf5","","Mozilla/5.0 (Windows NT 10.0; Win64; x64) AppleWebKit/537.36 (KHTML, like Gecko) Chrome/130.0.0.0 Safari/537.36","WebKit","Chrome","130.0.0.0","Windows","10.0","https://hz8g1ckzuq.cognition.run/","en-US,en;q=0.9","8hjus0jdgw3dewy","","51","[""White""]","No","Female","848500.7999999523","33507","[{""page_index"":0,""viewing_time"":1099},{""page_index"":1,""viewing_time"":2328},{""page_index"":2,""viewing_time"":1240},{""page_index"":3,""viewing_time"":1192},{""page_index"":4,""viewing_time"":1024},{""page_index"":5,""viewing_time"":3968},{""page_index"":6,""viewing_time"":2192},{""page_index"":7,""viewing_time"":6472},{""page_index"":8,""viewing_time"":11873},{""page_index"":9,""viewing_time"":2118}]","","","","","","","","","","","","","","","","","","","","","","","","",""
"","","","","","rating_trial_setup","html-keyboard-response","3","68516","0.0-3.0-0.0","21","1","2025-04-10 19:14:18","7bd189e8e4882776c700e1dae255cdf5","","Mozilla/5.0 (Windows NT 10.0; Win64; x64) AppleWebKit/537.36 (KHTML, like Gecko) Chrome/130.0.0.0 Safari/537.36","WebKit","Chrome","130.0.0.0","Windows","10.0","https://hz8g1ckzuq.cognition.run/","en-US,en;q=0.9","8hjus0jdgw3dewy","","51","[""White""]","No","Female","848500.7999999523","null","","<p></p>","null","rating","tdc","attraction_2","1","microwave ovens","null","null","null","null","null","null","2","","","","","","","","","","",""
"","","","","","rating_trial","survey-html-form","4","86148","0.0-3.0-1.0","21","1","2025-04-10 19:14:18","7bd189e8e4882776c700e1dae255cdf5","","Mozilla/5.0 (Windows NT 10.0; Win64; x64) AppleWebKit/537.36 (KHTML, like Gecko) Chrome/130.0.0.0 Safari/537.36","WebKit","Chrome","130.0.0.0","Windows","10.0","https://hz8g1ckzuq.cognition.run/","en-US,en;q=0.9","8hjus0jdgw3dewy","","51","[""White""]","No","Female","848500.7999999523","17624","","","{""price_1"":""50"",""price_2"":""90"",""price_3"":""120""}","rating","tdc","attraction_2","1","microwave ovens","null","null","null","null","null","null","2","60","50","60","50","60","40","Warranty","Cooking power","","",""
"","","","","","rating_trial_setup","html-keyboard-response","5","86458","0.0-3.0-0.1","21","1","2025-04-10 19:14:18","7bd189e8e4882776c700e1dae255cdf5","","Mozilla/5.0 (Windows NT 10.0; Win64; x64) AppleWebKit/537.36 (KHTML, like Gecko) Chrome/130.0.0.0 Safari/537.36","WebKit","Chrome","130.0.0.0","Windows","10.0","https://hz8g1ckzuq.cognition.run/","en-US,en;q=0.9","8hjus0jdgw3dewy","","51","[""White""]","No","Female","848500.7999999523","null","","<p></p>","null","rating","cdt","attraction_2","1","washing machines","null","null","null","null","null","null","1","","","","","","","","","","",""
"","","","","","rating_trial","survey-html-form","6","102298","0.0-3.0-1.1","21","1","2025-04-10 19:14:18","7bd189e8e4882776c700e1dae255cdf5","","Mozilla/5.0 (Windows NT 10.0; Win64; x64) AppleWebKit/537.36 (KHTML, like Gecko) Chrome/130.0.0.0 Safari/537.36","WebKit","Chrome","130.0.0.0","Windows","10.0","https://hz8g1ckzuq.cognition.run/","en-US,en;q=0.9","8hjus0jdgw3dewy","","51","[""White""]","No","Female","848500.7999999523","15836","","","{""price_1"":""560"",""price_2"":""800"",""price_3"":""700""}","rating","cdt","attraction_2","1","washing machines","null","null","null","null","null","null","1","60","50","60","50","60","40","Average lifespan","Energy savings","","",""
"","","","","","rating_trial_setup","html-keyboard-response","7","102607","0.0-3.0-0.2","21","1","2025-04-10 19:14:18","7bd189e8e4882776c700e1dae255cdf5","","Mozilla/5.0 (Windows NT 10.0; Win64; x64) AppleWebKit/537.36 (KHTML, like Gecko) Chrome/130.0.0.0 Safari/537.36","WebKit","Chrome","130.0.0.0","Windows","10.0","https://hz8g1ckzuq.cognition.run/","en-US,en;q=0.9","8hjus0jdgw3dewy","","51","[""White""]","No","Female","848500.7999999523","null","","<p></p>","null","rating","dct","repulsion_2","1","microwave ovens","null","null","null","null","null","null","1","","","","","","","","","","",""
"","","","","","rating_trial","survey-html-form","8","112274","0.0-3.0-1.2","21","1","2025-04-10 19:14:18","7bd189e8e4882776c700e1dae255cdf5","","Mozilla/5.0 (Windows NT 10.0; Win64; x64) AppleWebKit/537.36 (KHTML, like Gecko) Chrome/130.0.0.0 Safari/537.36","WebKit","Chrome","130.0.0.0","Windows","10.0","https://hz8g1ckzuq.cognition.run/","en-US,en;q=0.9","8hjus0jdgw3dewy","","51","[""White""]","No","Female","848500.7999999523","9662","","","{""price_1"":""300"",""price_2"":""300"",""price_3"":""400""}","rating","dct","repulsion_2","1","microwave ovens","null","null","null","null","null","null","1","100","90","100","30","40","20","Warranty","Cooking power","","",""
"","","","","","rating_trial_setup","html-keyboard-response","9","112586","0.0-3.0-0.3","21","1","2025-04-10 19:14:18","7bd189e8e4882776c700e1dae255cdf5","","Mozilla/5.0 (Windows NT 10.0; Win64; x64) AppleWebKit/537.36 (KHTML, like Gecko) Chrome/130.0.0.0 Safari/537.36","WebKit","Chrome","130.0.0.0","Windows","10.0","https://hz8g1ckzuq.cognition.run/","en-US,en;q=0.9","8hjus0jdgw3dewy","","51","[""White""]","No","Female","848500.7999999523","null","","<p></p>","null","rating","tcd","attraction_2","1","televisions","null","null","null","null","null","null","2","","","","","","","","","","",""
"","","","","","rating_trial","survey-html-form","10","128778","0.0-3.0-1.3","21","1","2025-04-10 19:14:18","7bd189e8e4882776c700e1dae255cdf5","","Mozilla/5.0 (Windows NT 10.0; Win64; x64) AppleWebKit/537.36 (KHTML, like Gecko) Chrome/130.0.0.0 Safari/537.36","WebKit","Chrome","130.0.0.0","Windows","10.0","https://hz8g1ckzuq.cognition.run/","en-US,en;q=0.9","8hjus0jdgw3dewy","","51","[""White""]","No","Female","848500.7999999523","16188","","","{""price_1"":""400"",""price_2"":""350"",""price_3"":""250""}","rating","tcd","attraction_2","1","televisions","null","null","null","null","null","null","2","60","50","60","50","60","40","Screen size","Average lifespan","","",""
"","","","","","rating_trial_setup","html-keyboard-response","11","129086","0.0-3.0-0.4","21","1","2025-04-10 19:14:18","7bd189e8e4882776c700e1dae255cdf5","","Mozilla/5.0 (Windows NT 10.0; Win64; x64) AppleWebKit/537.36 (KHTML, like Gecko) Chrome/130.0.0.0 Safari/537.36","WebKit","Chrome","130.0.0.0","Windows","10.0","https://hz8g1ckzuq.cognition.run/","en-US,en;q=0.9","8hjus0jdgw3dewy","","51","[""White""]","No","Female","848500.7999999523","null","","<p></p>","null","rating","dct","attraction_2","1","laptops","null","null","null","null","null","null","2","","","","","","","","","","",""
"","","","","","rating_trial","survey-html-form","12","139530","0.0-3.0-1.4","21","1","2025-04-10 19:14:18","7bd189e8e4882776c700e1dae255cdf5","","Mozilla/5.0 (Windows NT 10.0; Win64; x64) AppleWebKit/537.36 (KHTML, like Gecko) Chrome/130.0.0.0 Safari/537.36","WebKit","Chrome","130.0.0.0","Windows","10.0","https://hz8g1ckzuq.cognition.run/","en-US,en;q=0.9","8hjus0jdgw3dewy","","51","[""White""]","No","Female","848500.7999999523","10440","","","{""price_1"":""600"",""price_2"":""720"",""price_3"":""800""}","rating","dct","attraction_2","1","laptops","null","null","null","null","null","null","2","60","50","60","50","60","40","Processing speed","Memory (RAM)","","",""
"","","","","","rating_trial_setup","html-keyboard-response","13","139837","0.0-3.0-0.5","21","1","2025-04-10 19:14:18","7bd189e8e4882776c700e1dae255cdf5","","Mozilla/5.0 (Windows NT 10.0; Win64; x64) AppleWebKit/537.36 (KHTML, like Gecko) Chrome/130.0.0.0 Safari/537.36","WebKit","Chrome","130.0.0.0","Windows","10.0","https://hz8g1ckzuq.cognition.run/","en-US,en;q=0.9","8hjus0jdgw3dewy","","51","[""White""]","No","Female","848500.7999999523","null","","<p></p>","null","rating","wwb","catch","null","washing machines","80","85","25","45","30","5","1","","","","","","","","","","",""
"","","","","","rating_trial","survey-html-form","14","150154","0.0-3.0-1.5","21","1","2025-04-10 19:14:18","7bd189e8e4882776c700e1dae255cdf5","","Mozilla/5.0 (Windows NT 10.0; Win64; x64) AppleWebKit/537.36 (KHTML, like Gecko) Chrome/130.0.0.0 Safari/537.36","WebKit","Chrome","130.0.0.0","Windows","10.0","https://hz8g1ckzuq.cognition.run/","en-US,en;q=0.9","8hjus0jdgw3dewy","","51","[""White""]","No","Female","848500.7999999523","10313","","","{""price_1"":""400"",""price_2"":""300"",""price_3"":""200""}","rating","wwb","catch","null","washing machines","80","85","25","45","30","5","1","null","null","null","null","null","null","Average lifespan","Energy savings","","",""
"","","","","","rating_trial_setup","html-keyboard-response","15","150466","0.0-3.0-0.6","21","1","2025-04-10 19:14:18","7bd189e8e4882776c700e1dae255cdf5","","Mozilla/5.0 (Windows NT 10.0; Win64; x64) AppleWebKit/537.36 (KHTML, like Gecko) Chrome/130.0.0.0 Safari/537.36","WebKit","Chrome","130.0.0.0","Windows","10.0","https://hz8g1ckzuq.cognition.run/","en-US,en;q=0.9","8hjus0jdgw3dewy","","51","[""White""]","No","Female","848500.7999999523","null","","<p></p>","null","rating","tdc","attraction_1","2","televisions","null","null","null","null","null","null","2","","","","","","","","","","",""
"","","","","","rating_trial","survey-html-form","16","160986","0.0-3.0-1.6","21","1","2025-04-10 19:14:18","7bd189e8e4882776c700e1dae255cdf5","","Mozilla/5.0 (Windows NT 10.0; Win64; x64) AppleWebKit/537.36 (KHTML, like Gecko) Chrome/130.0.0.0 Safari/537.36","WebKit","Chrome","130.0.0.0","Windows","10.0","https://hz8g1ckzuq.cognition.run/","en-US,en;q=0.9","8hjus0jdgw3dewy","","51","[""White""]","No","Female","848500.7999999523","10515","","","{""price_1"":""400"",""price_2"":""350"",""price_3"":""320""}","rating","tdc","attraction_1","2","televisions","null","null","null","null","null","null","2","50","60","45","60","50","60","Screen size","Average lifespan","","",""
"","","","","","rating_trial_setup","html-keyboard-response","17","161289","0.0-3.0-0.7","21","1","2025-04-10 19:14:18","7bd189e8e4882776c700e1dae255cdf5","","Mozilla/5.0 (Windows NT 10.0; Win64; x64) AppleWebKit/537.36 (KHTML, like Gecko) Chrome/130.0.0.0 Safari/537.36","WebKit","Chrome","130.0.0.0","Windows","10.0","https://hz8g1ckzuq.cognition.run/","en-US,en;q=0.9","8hjus0jdgw3dewy","","51","[""White""]","No","Female","848500.7999999523","null","","<p></p>","null","rating","tdc","attraction_1","2","washing machines","null","null","null","null","null","null","2","","","","","","","","","","",""
"","","","","","rating_trial","survey-html-form","18","177153","0.0-3.0-1.7","21","1","2025-04-10 19:14:18","7bd189e8e4882776c700e1dae255cdf5","","Mozilla/5.0 (Windows NT 10.0; Win64; x64) AppleWebKit/537.36 (KHTML, like Gecko) Chrome/130.0.0.0 Safari/537.36","WebKit","Chrome","130.0.0.0","Windows","10.0","https://hz8g1ckzuq.cognition.run/","en-US,en;q=0.9","8hjus0jdgw3dewy","","51","[""White""]","No","Female","848500.7999999523","15859","","","{""price_1"":""342"",""price_2"":""453"",""price_3"":""34""}","rating","tdc","attraction_1","2","washing machines","null","null","null","null","null","null","2","50","60","45","60","50","60","Average lifespan","Energy savings","","",""
"","","","","","rating_trial_setup","html-keyboard-response","19","177462","0.0-3.0-0.8","21","1","2025-04-10 19:14:18","7bd189e8e4882776c700e1dae255cdf5","","Mozilla/5.0 (Windows NT 10.0; Win64; x64) AppleWebKit/537.36 (KHTML, like Gecko) Chrome/130.0.0.0 Safari/537.36","WebKit","Chrome","130.0.0.0","Windows","10.0","https://hz8g1ckzuq.cognition.run/","en-US,en;q=0.9","8hjus0jdgw3dewy","","51","[""White""]","No","Female","848500.7999999523","null","","<p></p>","null","rating","bww","catch","null","microwave ovens","75","90","10","10","5","35","2","","","","","","","","","","",""
"","","","","","rating_trial","survey-html-form","20","186265","0.0-3.0-1.8","21","1","2025-04-10 19:14:18","7bd189e8e4882776c700e1dae255cdf5","","Mozilla/5.0 (Windows NT 10.0; Win64; x64) AppleWebKit/537.36 (KHTML, like Gecko) Chrome/130.0.0.0 Safari/537.36","WebKit","Chrome","130.0.0.0","Windows","10.0","https://hz8g1ckzuq.cognition.run/","en-US,en;q=0.9","8hjus0jdgw3dewy","","51","[""White""]","No","Female","848500.7999999523","8798","","","{""price_1"":""231"",""price_2"":""324"",""price_3"":""354""}","rating","bww","catch","null","microwave ovens","75","90","10","10","5","35","2","null","null","null","null","null","null","Warranty","Cooking power","","",""
"","","","","","rating_trial_setup","html-keyboard-response","21","186584","0.0-3.0-0.9","21","1","2025-04-10 19:14:18","7bd189e8e4882776c700e1dae255cdf5","","Mozilla/5.0 (Windows NT 10.0; Win64; x64) AppleWebKit/537.36 (KHTML, like Gecko) Chrome/130.0.0.0 Safari/537.36","WebKit","Chrome","130.0.0.0","Windows","10.0","https://hz8g1ckzuq.cognition.run/","en-US,en;q=0.9","8hjus0jdgw3dewy","","51","[""White""]","No","Female","848500.7999999523","null","","<p></p>","null","rating","dct","attraction_1","1","washing machines","null","null","null","null","null","null","2","","","","","","","","","","",""
"","","","","","rating_trial","survey-html-form","22","196874","0.0-3.0-1.9","21","1","2025-04-10 19:14:18","7bd189e8e4882776c700e1dae255cdf5","","Mozilla/5.0 (Windows NT 10.0; Win64; x64) AppleWebKit/537.36 (KHTML, like Gecko) Chrome/130.0.0.0 Safari/537.36","WebKit","Chrome","130.0.0.0","Windows","10.0","https://hz8g1ckzuq.cognition.run/","en-US,en;q=0.9","8hjus0jdgw3dewy","","51","[""White""]","No","Female","848500.7999999523","10284","","","{""price_1"":""364"",""price_2"":""412"",""price_3"":""546""}","rating","dct","attraction_1","1","washing machines","null","null","null","null","null","null","2","60","50","60","50","60","45","Average lifespan","Energy savings","","",""
"","","","","","rating_trial_setup","html-keyboard-response","23","197188","0.0-3.0-0.10","21","1","2025-04-10 19:14:18","7bd189e8e4882776c700e1dae255cdf5","","Mozilla/5.0 (Windows NT 10.0; Win64; x64) AppleWebKit/537.36 (KHTML, like Gecko) Chrome/130.0.0.0 Safari/537.36","WebKit","Chrome","130.0.0.0","Windows","10.0","https://hz8g1ckzuq.cognition.run/","en-US,en;q=0.9","8hjus0jdgw3dewy","","51","[""White""]","No","Female","848500.7999999523","null","","<p></p>","null","rating","tdc","attraction_2","2","televisions","null","null","null","null","null","null","1","","","","","","","","","","",""
"","","","","","rating_trial","survey-html-form","24","203556","0.0-3.0-1.10","21","1","2025-04-10 19:14:18","7bd189e8e4882776c700e1dae255cdf5","","Mozilla/5.0 (Windows NT 10.0; Win64; x64) AppleWebKit/537.36 (KHTML, like Gecko) Chrome/130.0.0.0 Safari/537.36","WebKit","Chrome","130.0.0.0","Windows","10.0","https://hz8g1ckzuq.cognition.run/","en-US,en;q=0.9","8hjus0jdgw3dewy","","51","[""White""]","No","Female","848500.7999999523","6362","","","{""price_1"":""376"",""price_2"":""245"",""price_3"":""654""}","rating","tdc","attraction_2","2","televisions","null","null","null","null","null","null","1","50","60","40","60","50","60","Screen size","Average lifespan","","",""
"","","","","","rating_trial_setup","html-keyboard-response","25","203866","0.0-3.0-0.11","21","1","2025-04-10 19:14:18","7bd189e8e4882776c700e1dae255cdf5","","Mozilla/5.0 (Windows NT 10.0; Win64; x64) AppleWebKit/537.36 (KHTML, like Gecko) Chrome/130.0.0.0 Safari/537.36","WebKit","Chrome","130.0.0.0","Windows","10.0","https://hz8g1ckzuq.cognition.run/","en-US,en;q=0.9","8hjus0jdgw3dewy","","51","[""White""]","No","Female","848500.7999999523","null","","<p></p>","null","rating","dtc","repulsion_1","2","laptops","null","null","null","null","null","null","2","","","","","","","","","","",""
"","","","","","rating_trial","survey-html-form","26","211554","0.0-3.0-1.11","21","1","2025-04-10 19:14:18","7bd189e8e4882776c700e1dae255cdf5","","Mozilla/5.0 (Windows NT 10.0; Win64; x64) AppleWebKit/537.36 (KHTML, like Gecko) Chrome/130.0.0.0 Safari/537.36","WebKit","Chrome","130.0.0.0","Windows","10.0","https://hz8g1ckzuq.cognition.run/","en-US,en;q=0.9","8hjus0jdgw3dewy","","51","[""White""]","No","Female","848500.7999999523","7685","","","{""price_1"":""253"",""price_2"":""123"",""price_3"":""543""}","rating","dtc","repulsion_1","2","laptops","null","null","null","null","null","null","2","30","40","25","100","90","100","Processing speed","Memory (RAM)","","",""
"","","","","","rating_trial_setup","html-keyboard-response","27","211863","0.0-3.0-0.12","21","1","2025-04-10 19:14:18","7bd189e8e4882776c700e1dae255cdf5","","Mozilla/5.0 (Windows NT 10.0; Win64; x64) AppleWebKit/537.36 (KHTML, like Gecko) Chrome/130.0.0.0 Safari/537.36","WebKit","Chrome","130.0.0.0","Windows","10.0","https://hz8g1ckzuq.cognition.run/","en-US,en;q=0.9","8hjus0jdgw3dewy","","51","[""White""]","No","Female","848500.7999999523","null","","<p></p>","null","rating","tcd","attraction_1","1","laptops","null","null","null","null","null","null","1","","","","","","","","","","",""
"","","","","","rating_trial","survey-html-form","28","220096","0.0-3.0-1.12","21","1","2025-04-10 19:14:18","7bd189e8e4882776c700e1dae255cdf5","","Mozilla/5.0 (Windows NT 10.0; Win64; x64) AppleWebKit/537.36 (KHTML, like Gecko) Chrome/130.0.0.0 Safari/537.36","WebKit","Chrome","130.0.0.0","Windows","10.0","https://hz8g1ckzuq.cognition.run/","en-US,en;q=0.9","8hjus0jdgw3dewy","","51","[""White""]","No","Female","848500.7999999523","8227","","","{""price_1"":""341"",""price_2"":""424"",""price_3"":""575""}","rating","tcd","attraction_1","1","laptops","null","null","null","null","null","null","1","60","50","60","50","60","45","Processing speed","Memory (RAM)","","",""
"","","","","","rating_trial_setup","html-keyboard-response","29","220408","0.0-3.0-0.13","21","1","2025-04-10 19:14:18","7bd189e8e4882776c700e1dae255cdf5","","Mozilla/5.0 (Windows NT 10.0; Win64; x64) AppleWebKit/537.36 (KHTML, like Gecko) Chrome/130.0.0.0 Safari/537.36","WebKit","Chrome","130.0.0.0","Windows","10.0","https://hz8g1ckzuq.cognition.run/","en-US,en;q=0.9","8hjus0jdgw3dewy","","51","[""White""]","No","Female","848500.7999999523","null","","<p></p>","null","rating","cdt","repulsion_2","2","televisions","null","null","null","null","null","null","2","","","","","","","","","","",""
"","","","","","rating_trial","survey-html-form","30","247836","0.0-3.0-1.13","21","1","2025-04-10 19:14:18","7bd189e8e4882776c700e1dae255cdf5","","Mozilla/5.0 (Windows NT 10.0; Win64; x64) AppleWebKit/537.36 (KHTML, like Gecko) Chrome/130.0.0.0 Safari/537.36","WebKit","Chrome","130.0.0.0","Windows","10.0","https://hz8g1ckzuq.cognition.run/","en-US,en;q=0.9","8hjus0jdgw3dewy","","51","[""White""]","No","Female","848500.7999999523","27423","","","{""price_1"":""435"",""price_2"":""125"",""price_3"":""653""}","rating","cdt","repulsion_2","2","televisions","null","null","null","null","null","null","2","30","40","20","100","90","100","Screen size","Average lifespan","","",""
"","","","","","rating_trial_setup","html-keyboard-response","31","248150","0.0-3.0-0.14","21","1","2025-04-10 19:14:18","7bd189e8e4882776c700e1dae255cdf5","","Mozilla/5.0 (Windows NT 10.0; Win64; x64) AppleWebKit/537.36 (KHTML, like Gecko) Chrome/130.0.0.0 Safari/537.36","WebKit","Chrome","130.0.0.0","Windows","10.0","https://hz8g1ckzuq.cognition.run/","en-US,en;q=0.9","8hjus0jdgw3dewy","","51","[""White""]","No","Female","848500.7999999523","null","","<p></p>","null","rating","ctd","repulsion_1","2","microwave ovens","null","null","null","null","null","null","2","","","","","","","","","","",""
"","","","","","rating_trial","survey-html-form","32","254521","0.0-3.0-1.14","21","1","2025-04-10 19:14:18","7bd189e8e4882776c700e1dae255cdf5","","Mozilla/5.0 (Windows NT 10.0; Win64; x64) AppleWebKit/537.36 (KHTML, like Gecko) Chrome/130.0.0.0 Safari/537.36","WebKit","Chrome","130.0.0.0","Windows","10.0","https://hz8g1ckzuq.cognition.run/","en-US,en;q=0.9","8hjus0jdgw3dewy","","51","[""White""]","No","Female","848500.7999999523","6365","","","{""price_1"":""364"",""price_2"":""143"",""price_3"":""354""}","rating","ctd","repulsion_1","2","microwave ovens","null","null","null","null","null","null","2","30","40","25","100","90","100","Warranty","Cooking power","","",""
"","","","","","rating_trial_setup","html-keyboard-response","33","254827","0.0-3.0-0.15","21","1","2025-04-10 19:14:18","7bd189e8e4882776c700e1dae255cdf5","","Mozilla/5.0 (Windows NT 10.0; Win64; x64) AppleWebKit/537.36 (KHTML, like Gecko) Chrome/130.0.0.0 Safari/537.36","WebKit","Chrome","130.0.0.0","Windows","10.0","https://hz8g1ckzuq.cognition.run/","en-US,en;q=0.9","8hjus0jdgw3dewy","","51","[""White""]","No","Female","848500.7999999523","null","","<p></p>","null","rating","ctd","attraction_1","1","televisions","null","null","null","null","null","null","1","","","","","","","","","","",""
"","","","","","rating_trial","survey-html-form","34","261363","0.0-3.0-1.15","21","1","2025-04-10 19:14:18","7bd189e8e4882776c700e1dae255cdf5","","Mozilla/5.0 (Windows NT 10.0; Win64; x64) AppleWebKit/537.36 (KHTML, like Gecko) Chrome/130.0.0.0 Safari/537.36","WebKit","Chrome","130.0.0.0","Windows","10.0","https://hz8g1ckzuq.cognition.run/","en-US,en;q=0.9","8hjus0jdgw3dewy","","51","[""White""]","No","Female","848500.7999999523","6531","","","{""price_1"":""423"",""price_2"":""354"",""price_3"":""342""}","rating","ctd","attraction_1","1","televisions","null","null","null","null","null","null","1","60","50","60","50","60","45","Screen size","Average lifespan","","",""
"","","","","","rating_trial_setup","html-keyboard-response","35","261678","0.0-3.0-0.16","21","1","2025-04-10 19:14:18","7bd189e8e4882776c700e1dae255cdf5","","Mozilla/5.0 (Windows NT 10.0; Win64; x64) AppleWebKit/537.36 (KHTML, like Gecko) Chrome/130.0.0.0 Safari/537.36","WebKit","Chrome","130.0.0.0","Windows","10.0","https://hz8g1ckzuq.cognition.run/","en-US,en;q=0.9","8hjus0jdgw3dewy","","51","[""White""]","No","Female","848500.7999999523","null","","<p></p>","null","rating","bww","catch","null","laptops","50","70","15","35","10","35","1","","","","","","","","","","",""
"","","","","","rating_trial","survey-html-form","36","268747","0.0-3.0-1.16","21","1","2025-04-10 19:14:18","7bd189e8e4882776c700e1dae255cdf5","","Mozilla/5.0 (Windows NT 10.0; Win64; x64) AppleWebKit/537.36 (KHTML, like Gecko) Chrome/130.0.0.0 Safari/537.36","WebKit","Chrome","130.0.0.0","Windows","10.0","https://hz8g1ckzuq.cognition.run/","en-US,en;q=0.9","8hjus0jdgw3dewy","","51","[""White""]","No","Female","848500.7999999523","7062","","","{""price_1"":""421"",""price_2"":""153"",""price_3"":""353""}","rating","bww","catch","null","laptops","50","70","15","35","10","35","1","null","null","null","null","null","null","Processing speed","Memory (RAM)","","",""
"","","","","","rating_trial_setup","html-keyboard-response","37","269058","0.0-3.0-0.17","21","1","2025-04-10 19:14:18","7bd189e8e4882776c700e1dae255cdf5","","Mozilla/5.0 (Windows NT 10.0; Win64; x64) AppleWebKit/537.36 (KHTML, like Gecko) Chrome/130.0.0.0 Safari/537.36","WebKit","Chrome","130.0.0.0","Windows","10.0","https://hz8g1ckzuq.cognition.run/","en-US,en;q=0.9","8hjus0jdgw3dewy","","51","[""White""]","No","Female","848500.7999999523","null","","<p></p>","null","rating","tdc","repulsion_2","2","microwave ovens","null","null","null","null","null","null","2","","","","","","","","","","",""
"","","","","","rating_trial","survey-html-form","38","278290","0.0-3.0-1.17","21","1","2025-04-10 19:14:18","7bd189e8e4882776c700e1dae255cdf5","","Mozilla/5.0 (Windows NT 10.0; Win64; x64) AppleWebKit/537.36 (KHTML, like Gecko) Chrome/130.0.0.0 Safari/537.36","WebKit","Chrome","130.0.0.0","Windows","10.0","https://hz8g1ckzuq.cognition.run/","en-US,en;q=0.9","8hjus0jdgw3dewy","","51","[""White""]","No","Female","848500.7999999523","9226","","","{""price_1"":""634"",""price_2"":""421"",""price_3"":""463""}","rating","tdc","repulsion_2","2","microwave ovens","null","null","null","null","null","null","2","30","40","20","100","90","100","Warranty","Cooking power","","",""
"","","","","","rating_trial_setup","html-keyboard-response","39","278603","0.0-3.0-0.18","21","1","2025-04-10 19:14:18","7bd189e8e4882776c700e1dae255cdf5","","Mozilla/5.0 (Windows NT 10.0; Win64; x64) AppleWebKit/537.36 (KHTML, like Gecko) Chrome/130.0.0.0 Safari/537.36","WebKit","Chrome","130.0.0.0","Windows","10.0","https://hz8g1ckzuq.cognition.run/","en-US,en;q=0.9","8hjus0jdgw3dewy","","51","[""White""]","No","Female","848500.7999999523","null","","<p></p>","null","rating","wbw","catch","null","laptops","55","70","50","25","10","30","1","","","","","","","","","","",""
"","","","","","rating_trial","survey-html-form","40","285364","0.0-3.0-1.18","21","1","2025-04-10 19:14:18","7bd189e8e4882776c700e1dae255cdf5","","Mozilla/5.0 (Windows NT 10.0; Win64; x64) AppleWebKit/537.36 (KHTML, like Gecko) Chrome/130.0.0.0 Safari/537.36","WebKit","Chrome","130.0.0.0","Windows","10.0","https://hz8g1ckzuq.cognition.run/","en-US,en;q=0.9","8hjus0jdgw3dewy","","51","[""White""]","No","Female","848500.7999999523","6756","","","{""price_1"":""534"",""price_2"":""534"",""price_3"":""243""}","rating","wbw","catch","null","laptops","55","70","50","25","10","30","1","null","null","null","null","null","null","Processing speed","Memory (RAM)","","",""
"","","","","","rating_trial_setup","html-keyboard-response","41","285673","0.0-3.0-0.19","21","1","2025-04-10 19:14:18","7bd189e8e4882776c700e1dae255cdf5","","Mozilla/5.0 (Windows NT 10.0; Win64; x64) AppleWebKit/537.36 (KHTML, like Gecko) Chrome/130.0.0.0 Safari/537.36","WebKit","Chrome","130.0.0.0","Windows","10.0","https://hz8g1ckzuq.cognition.run/","en-US,en;q=0.9","8hjus0jdgw3dewy","","51","[""White""]","No","Female","848500.7999999523","null","","<p></p>","null","rating","tdc","repulsion_2","1","laptops","null","null","null","null","null","null","2","","","","","","","","","","",""
"","","","","","rating_trial","survey-html-form","42","293795","0.0-3.0-1.19","21","1","2025-04-10 19:14:18","7bd189e8e4882776c700e1dae255cdf5","","Mozilla/5.0 (Windows NT 10.0; Win64; x64) AppleWebKit/537.36 (KHTML, like Gecko) Chrome/130.0.0.0 Safari/537.36","WebKit","Chrome","130.0.0.0","Windows","10.0","https://hz8g1ckzuq.cognition.run/","en-US,en;q=0.9","8hjus0jdgw3dewy","","51","[""White""]","No","Female","848500.7999999523","8115","","","{""price_1"":""576"",""price_2"":""853"",""price_3"":""375""}","rating","tdc","repulsion_2","1","laptops","null","null","null","null","null","null","2","100","90","100","30","40","20","Processing speed","Memory (RAM)","","",""
"","","","","","rating_trial_setup","html-keyboard-response","43","294101","0.0-3.0-0.20","21","1","2025-04-10 19:14:18","7bd189e8e4882776c700e1dae255cdf5","","Mozilla/5.0 (Windows NT 10.0; Win64; x64) AppleWebKit/537.36 (KHTML, like Gecko) Chrome/130.0.0.0 Safari/537.36","WebKit","Chrome","130.0.0.0","Windows","10.0","https://hz8g1ckzuq.cognition.run/","en-US,en;q=0.9","8hjus0jdgw3dewy","","51","[""White""]","No","Female","848500.7999999523","null","","<p></p>","null","rating","tcd","repulsion_2","1","washing machines","null","null","null","null","null","null","2","","","","","","","","","","",""
"","","","","","rating_trial","survey-html-form","44","306009","0.0-3.0-1.20","21","1","2025-04-10 19:14:18","7bd189e8e4882776c700e1dae255cdf5","","Mozilla/5.0 (Windows NT 10.0; Win64; x64) AppleWebKit/537.36 (KHTML, like Gecko) Chrome/130.0.0.0 Safari/537.36","WebKit","Chrome","130.0.0.0","Windows","10.0","https://hz8g1ckzuq.cognition.run/","en-US,en;q=0.9","8hjus0jdgw3dewy","","51","[""White""]","No","Female","848500.7999999523","11901","","","{""price_1"":""757"",""price_2"":""574"",""price_3"":""364""}","rating","tcd","repulsion_2","1","washing machines","null","null","null","null","null","null","2","100","90","100","30","40","20","Average lifespan","Energy savings","","",""
"","","","","","rating_trial_setup","html-keyboard-response","45","306315","0.0-3.0-0.21","21","1","2025-04-10 19:14:18","7bd189e8e4882776c700e1dae255cdf5","","Mozilla/5.0 (Windows NT 10.0; Win64; x64) AppleWebKit/537.36 (KHTML, like Gecko) Chrome/130.0.0.0 Safari/537.36","WebKit","Chrome","130.0.0.0","Windows","10.0","https://hz8g1ckzuq.cognition.run/","en-US,en;q=0.9","8hjus0jdgw3dewy","","51","[""White""]","No","Female","848500.7999999523","null","","<p></p>","null","rating","bww","catch","null","televisions","70","80","20","5","25","20","1","","","","","","","","","","",""
"","","","","","rating_trial","survey-html-form","46","335234","0.0-3.0-1.21","21","1","2025-04-10 19:14:18","7bd189e8e4882776c700e1dae255cdf5","","Mozilla/5.0 (Windows NT 10.0; Win64; x64) AppleWebKit/537.36 (KHTML, like Gecko) Chrome/130.0.0.0 Safari/537.36","WebKit","Chrome","130.0.0.0","Windows","10.0","https://hz8g1ckzuq.cognition.run/","en-US,en;q=0.9","8hjus0jdgw3dewy","","51","[""White""]","No","Female","848500.7999999523","28913","","","{""price_1"":""365"",""price_2"":""647"",""price_3"":""464""}","rating","bww","catch","null","televisions","70","80","20","5","25","20","1","null","null","null","null","null","null","Screen size","Average lifespan","","",""
"","","","","","rating_trial_setup","html-keyboard-response","47","335544","0.0-3.0-0.22","21","1","2025-04-10 19:14:18","7bd189e8e4882776c700e1dae255cdf5","","Mozilla/5.0 (Windows NT 10.0; Win64; x64) AppleWebKit/537.36 (KHTML, like Gecko) Chrome/130.0.0.0 Safari/537.36","WebKit","Chrome","130.0.0.0","Windows","10.0","https://hz8g1ckzuq.cognition.run/","en-US,en;q=0.9","8hjus0jdgw3dewy","","51","[""White""]","No","Female","848500.7999999523","null","","<p></p>","null","rating","bww","catch","null","washing machines","70","50","35","25","45","35","1","","","","","","","","","","",""
"","","","","","rating_trial","survey-html-form","48","344873","0.0-3.0-1.22","21","1","2025-04-10 19:14:18","7bd189e8e4882776c700e1dae255cdf5","","Mozilla/5.0 (Windows NT 10.0; Win64; x64) AppleWebKit/537.36 (KHTML, like Gecko) Chrome/130.0.0.0 Safari/537.36","WebKit","Chrome","130.0.0.0","Windows","10.0","https://hz8g1ckzuq.cognition.run/","en-US,en;q=0.9","8hjus0jdgw3dewy","","51","[""White""]","No","Female","848500.7999999523","9320","","","{""price_1"":""468"",""price_2"":""686"",""price_3"":""957""}","rating","bww","catch","null","washing machines","70","50","35","25","45","35","1","null","null","null","null","null","null","Average lifespan","Energy savings","","",""
"","","","","","rating_trial_setup","html-keyboard-response","49","345189","0.0-3.0-0.23","21","1","2025-04-10 19:14:18","7bd189e8e4882776c700e1dae255cdf5","","Mozilla/5.0 (Windows NT 10.0; Win64; x64) AppleWebKit/537.36 (KHTML, like Gecko) Chrome/130.0.0.0 Safari/537.36","WebKit","Chrome","130.0.0.0","Windows","10.0","https://hz8g1ckzuq.cognition.run/","en-US,en;q=0.9","8hjus0jdgw3dewy","","51","[""White""]","No","Female","848500.7999999523","null","","<p></p>","null","rating","cdt","attraction_1","2","laptops","null","null","null","null","null","null","2","","","","","","","","","","",""
"","","","","","rating_trial","survey-html-form","50","352618","0.0-3.0-1.23","21","1","2025-04-10 19:14:18","7bd189e8e4882776c700e1dae255cdf5","","Mozilla/5.0 (Windows NT 10.0; Win64; x64) AppleWebKit/537.36 (KHTML, like Gecko) Chrome/130.0.0.0 Safari/537.36","WebKit","Chrome","130.0.0.0","Windows","10.0","https://hz8g1ckzuq.cognition.run/","en-US,en;q=0.9","8hjus0jdgw3dewy","","51","[""White""]","No","Female","848500.7999999523","7422","","","{""price_1"":""264"",""price_2"":""746"",""price_3"":""568""}","rating","cdt","attraction_1","2","laptops","null","null","null","null","null","null","2","50","60","45","60","50","60","Processing speed","Memory (RAM)","","",""
"","","","","","rating_trial_setup","html-keyboard-response","51","352925","0.0-3.0-0.24","21","1","2025-04-10 19:14:18","7bd189e8e4882776c700e1dae255cdf5","","Mozilla/5.0 (Windows NT 10.0; Win64; x64) AppleWebKit/537.36 (KHTML, like Gecko) Chrome/130.0.0.0 Safari/537.36","WebKit","Chrome","130.0.0.0","Windows","10.0","https://hz8g1ckzuq.cognition.run/","en-US,en;q=0.9","8hjus0jdgw3dewy","","51","[""White""]","No","Female","848500.7999999523","null","","<p></p>","null","rating","cdt","repulsion_2","1","televisions","null","null","null","null","null","null","2","","","","","","","","","","",""
"","","","","","rating_trial","survey-html-form","52","359855","0.0-3.0-1.24","21","1","2025-04-10 19:14:18","7bd189e8e4882776c700e1dae255cdf5","","Mozilla/5.0 (Windows NT 10.0; Win64; x64) AppleWebKit/537.36 (KHTML, like Gecko) Chrome/130.0.0.0 Safari/537.36","WebKit","Chrome","130.0.0.0","Windows","10.0","https://hz8g1ckzuq.cognition.run/","en-US,en;q=0.9","8hjus0jdgw3dewy","","51","[""White""]","No","Female","848500.7999999523","6922","","","{""price_1"":""265"",""price_2"":""746"",""price_3"":""746""}","rating","cdt","repulsion_2","1","televisions","null","null","null","null","null","null","2","100","90","100","30","40","20","Screen size","Average lifespan","","",""
"","","","","","rating_trial_setup","html-keyboard-response","53","360174","0.0-3.0-0.25","21","1","2025-04-10 19:14:18","7bd189e8e4882776c700e1dae255cdf5","","Mozilla/5.0 (Windows NT 10.0; Win64; x64) AppleWebKit/537.36 (KHTML, like Gecko) Chrome/130.0.0.0 Safari/537.36","WebKit","Chrome","130.0.0.0","Windows","10.0","https://hz8g1ckzuq.cognition.run/","en-US,en;q=0.9","8hjus0jdgw3dewy","","51","[""White""]","No","Female","848500.7999999523","null","","<p></p>","null","rating","dtc","repulsion_1","2","televisions","null","null","null","null","null","null","1","","","","","","","","","","",""
"","","","","","rating_trial","survey-html-form","54","371538","0.0-3.0-1.25","21","1","2025-04-10 19:14:18","7bd189e8e4882776c700e1dae255cdf5","","Mozilla/5.0 (Windows NT 10.0; Win64; x64) AppleWebKit/537.36 (KHTML, like Gecko) Chrome/130.0.0.0 Safari/537.36","WebKit","Chrome","130.0.0.0","Windows","10.0","https://hz8g1ckzuq.cognition.run/","en-US,en;q=0.9","8hjus0jdgw3dewy","","51","[""White""]","No","Female","848500.7999999523","11356","","","{""price_1"":""365"",""price_2"":""457"",""price_3"":""574""}","rating","dtc","repulsion_1","2","televisions","null","null","null","null","null","null","1","30","40","25","100","90","100","Screen size","Average lifespan","","",""
"","","","","","rating_trial_setup","html-keyboard-response","55","371848","0.0-3.0-0.26","21","1","2025-04-10 19:14:18","7bd189e8e4882776c700e1dae255cdf5","","Mozilla/5.0 (Windows NT 10.0; Win64; x64) AppleWebKit/537.36 (KHTML, like Gecko) Chrome/130.0.0.0 Safari/537.36","WebKit","Chrome","130.0.0.0","Windows","10.0","https://hz8g1ckzuq.cognition.run/","en-US,en;q=0.9","8hjus0jdgw3dewy","","51","[""White""]","No","Female","848500.7999999523","null","","<p></p>","null","rating","ctd","repulsion_1","1","microwave ovens","null","null","null","null","null","null","2","","","","","","","","","","",""
"","","","","","rating_trial","survey-html-form","56","378794","0.0-3.0-1.26","21","1","2025-04-10 19:14:18","7bd189e8e4882776c700e1dae255cdf5","","Mozilla/5.0 (Windows NT 10.0; Win64; x64) AppleWebKit/537.36 (KHTML, like Gecko) Chrome/130.0.0.0 Safari/537.36","WebKit","Chrome","130.0.0.0","Windows","10.0","https://hz8g1ckzuq.cognition.run/","en-US,en;q=0.9","8hjus0jdgw3dewy","","51","[""White""]","No","Female","848500.7999999523","6938","","","{""price_1"":""236"",""price_2"":""476"",""price_3"":""687""}","rating","ctd","repulsion_1","1","microwave ovens","null","null","null","null","null","null","2","100","90","100","30","40","25","Warranty","Cooking power","","",""
"","","","","","rating_trial_setup","html-keyboard-response","57","379100","0.0-3.0-0.27","21","1","2025-04-10 19:14:18","7bd189e8e4882776c700e1dae255cdf5","","Mozilla/5.0 (Windows NT 10.0; Win64; x64) AppleWebKit/537.36 (KHTML, like Gecko) Chrome/130.0.0.0 Safari/537.36","WebKit","Chrome","130.0.0.0","Windows","10.0","https://hz8g1ckzuq.cognition.run/","en-US,en;q=0.9","8hjus0jdgw3dewy","","51","[""White""]","No","Female","848500.7999999523","null","","<p></p>","null","rating","tcd","attraction_2","2","washing machines","null","null","null","null","null","null","1","","","","","","","","","","",""
"","","","","","rating_trial","survey-html-form","58","385593","0.0-3.0-1.27","21","1","2025-04-10 19:14:18","7bd189e8e4882776c700e1dae255cdf5","","Mozilla/5.0 (Windows NT 10.0; Win64; x64) AppleWebKit/537.36 (KHTML, like Gecko) Chrome/130.0.0.0 Safari/537.36","WebKit","Chrome","130.0.0.0","Windows","10.0","https://hz8g1ckzuq.cognition.run/","en-US,en;q=0.9","8hjus0jdgw3dewy","","51","[""White""]","No","Female","848500.7999999523","6484","","","{""price_1"":""358"",""price_2"":""646"",""price_3"":""587""}","rating","tcd","attraction_2","2","washing machines","null","null","null","null","null","null","1","50","60","40","60","50","60","Average lifespan","Energy savings","","",""
"","","","","","rating_trial_setup","html-keyboard-response","59","385904","0.0-3.0-0.28","21","1","2025-04-10 19:14:18","7bd189e8e4882776c700e1dae255cdf5","","Mozilla/5.0 (Windows NT 10.0; Win64; x64) AppleWebKit/537.36 (KHTML, like Gecko) Chrome/130.0.0.0 Safari/537.36","WebKit","Chrome","130.0.0.0","Windows","10.0","https://hz8g1ckzuq.cognition.run/","en-US,en;q=0.9","8hjus0jdgw3dewy","","51","[""White""]","No","Female","848500.7999999523","null","","<p></p>","null","rating","ctd","repulsion_1","1","washing machines","null","null","null","null","null","null","2","","","","","","","","","","",""
"","","","","","rating_trial","survey-html-form","60","391470","0.0-3.0-1.28","21","1","2025-04-10 19:14:18","7bd189e8e4882776c700e1dae255cdf5","","Mozilla/5.0 (Windows NT 10.0; Win64; x64) AppleWebKit/537.36 (KHTML, like Gecko) Chrome/130.0.0.0 Safari/537.36","WebKit","Chrome","130.0.0.0","Windows","10.0","https://hz8g1ckzuq.cognition.run/","en-US,en;q=0.9","8hjus0jdgw3dewy","","51","[""White""]","No","Female","848500.7999999523","5557","","","{""price_1"":""365"",""price_2"":""757"",""price_3"":""685""}","rating","ctd","repulsion_1","1","washing machines","null","null","null","null","null","null","2","100","90","100","30","40","25","Average lifespan","Energy savings","","",""
"","","","","","rating_trial_setup","html-keyboard-response","61","391785","0.0-3.0-0.29","21","1","2025-04-10 19:14:18","7bd189e8e4882776c700e1dae255cdf5","","Mozilla/5.0 (Windows NT 10.0; Win64; x64) AppleWebKit/537.36 (KHTML, like Gecko) Chrome/130.0.0.0 Safari/537.36","WebKit","Chrome","130.0.0.0","Windows","10.0","https://hz8g1ckzuq.cognition.run/","en-US,en;q=0.9","8hjus0jdgw3dewy","","51","[""White""]","No","Female","848500.7999999523","null","","<p></p>","null","rating","dct","attraction_1","2","microwave ovens","null","null","null","null","null","null","1","","","","","","","","","","",""
"","","","","","rating_trial","survey-html-form","62","397283","0.0-3.0-1.29","21","1","2025-04-10 19:14:18","7bd189e8e4882776c700e1dae255cdf5","","Mozilla/5.0 (Windows NT 10.0; Win64; x64) AppleWebKit/537.36 (KHTML, like Gecko) Chrome/130.0.0.0 Safari/537.36","WebKit","Chrome","130.0.0.0","Windows","10.0","https://hz8g1ckzuq.cognition.run/","en-US,en;q=0.9","8hjus0jdgw3dewy","","51","[""White""]","No","Female","848500.7999999523","5490","","","{""price_1"":""265"",""price_2"":""576"",""price_3"":""476""}","rating","dct","attraction_1","2","microwave ovens","null","null","null","null","null","null","1","50","60","45","60","50","60","Warranty","Cooking power","","",""
"","","","","","rating_trial_setup","html-keyboard-response","63","397593","0.0-3.0-0.30","21","1","2025-04-10 19:14:18","7bd189e8e4882776c700e1dae255cdf5","","Mozilla/5.0 (Windows NT 10.0; Win64; x64) AppleWebKit/537.36 (KHTML, like Gecko) Chrome/130.0.0.0 Safari/537.36","WebKit","Chrome","130.0.0.0","Windows","10.0","https://hz8g1ckzuq.cognition.run/","en-US,en;q=0.9","8hjus0jdgw3dewy","","51","[""White""]","No","Female","848500.7999999523","null","","<p></p>","null","rating","wbw","catch","null","microwave ovens","55","65","5","15","50","30","2","","","","","","","","","","",""
"","","","","","rating_trial","survey-html-form","64","402987","0.0-3.0-1.30","21","1","2025-04-10 19:14:18","7bd189e8e4882776c700e1dae255cdf5","","Mozilla/5.0 (Windows NT 10.0; Win64; x64) AppleWebKit/537.36 (KHTML, like Gecko) Chrome/130.0.0.0 Safari/537.36","WebKit","Chrome","130.0.0.0","Windows","10.0","https://hz8g1ckzuq.cognition.run/","en-US,en;q=0.9","8hjus0jdgw3dewy","","51","[""White""]","No","Female","848500.7999999523","5385","","","{""price_1"":""475"",""price_2"":""375"",""price_3"":""757""}","rating","wbw","catch","null","microwave ovens","55","65","5","15","50","30","2","null","null","null","null","null","null","Warranty","Cooking power","","",""
"","","","","","rating_trial_setup","html-keyboard-response","65","403299","0.0-3.0-0.31","21","1","2025-04-10 19:14:18","7bd189e8e4882776c700e1dae255cdf5","","Mozilla/5.0 (Windows NT 10.0; Win64; x64) AppleWebKit/537.36 (KHTML, like Gecko) Chrome/130.0.0.0 Safari/537.36","WebKit","Chrome","130.0.0.0","Windows","10.0","https://hz8g1ckzuq.cognition.run/","en-US,en;q=0.9","8hjus0jdgw3dewy","","51","[""White""]","No","Female","848500.7999999523","null","","<p></p>","null","rating","tcd","attraction_2","2","microwave ovens","null","null","null","null","null","null","1","","","","","","","","","","",""
"","","","","","rating_trial","survey-html-form","66","409103","0.0-3.0-1.31","21","1","2025-04-10 19:14:18","7bd189e8e4882776c700e1dae255cdf5","","Mozilla/5.0 (Windows NT 10.0; Win64; x64) AppleWebKit/537.36 (KHTML, like Gecko) Chrome/130.0.0.0 Safari/537.36","WebKit","Chrome","130.0.0.0","Windows","10.0","https://hz8g1ckzuq.cognition.run/","en-US,en;q=0.9","8hjus0jdgw3dewy","","51","[""White""]","No","Female","848500.7999999523","5796","","","{""price_1"":""475"",""price_2"":""347"",""price_3"":""354""}","rating","tcd","attraction_2","2","microwave ovens","null","null","null","null","null","null","1","50","60","40","60","50","60","Warranty","Cooking power","","",""
"","","","","","rating_trial_setup","html-keyboard-response","67","409408","0.0-3.0-0.32","21","1","2025-04-10 19:14:18","7bd189e8e4882776c700e1dae255cdf5","","Mozilla/5.0 (Windows NT 10.0; Win64; x64) AppleWebKit/537.36 (KHTML, like Gecko) Chrome/130.0.0.0 Safari/537.36","WebKit","Chrome","130.0.0.0","Windows","10.0","https://hz8g1ckzuq.cognition.run/","en-US,en;q=0.9","8hjus0jdgw3dewy","","51","[""White""]","No","Female","848500.7999999523","null","","<p></p>","null","rating","dtc","repulsion_1","1","laptops","null","null","null","null","null","null","2","","","","","","","","","","",""
"","","","","","rating_trial","survey-html-form","68","416000","0.0-3.0-1.32","21","1","2025-04-10 19:14:18","7bd189e8e4882776c700e1dae255cdf5","","Mozilla/5.0 (Windows NT 10.0; Win64; x64) AppleWebKit/537.36 (KHTML, like Gecko) Chrome/130.0.0.0 Safari/537.36","WebKit","Chrome","130.0.0.0","Windows","10.0","https://hz8g1ckzuq.cognition.run/","en-US,en;q=0.9","8hjus0jdgw3dewy","","51","[""White""]","No","Female","848500.7999999523","6588","","","{""price_1"":""365"",""price_2"":""369"",""price_3"":""656""}","rating","dtc","repulsion_1","1","laptops","null","null","null","null","null","null","2","100","90","100","30","40","25","Processing speed","Memory (RAM)","","",""
"","","","","","rating_trial_setup","html-keyboard-response","69","416307","0.0-3.0-0.33","21","1","2025-04-10 19:14:18","7bd189e8e4882776c700e1dae255cdf5","","Mozilla/5.0 (Windows NT 10.0; Win64; x64) AppleWebKit/537.36 (KHTML, like Gecko) Chrome/130.0.0.0 Safari/537.36","WebKit","Chrome","130.0.0.0","Windows","10.0","https://hz8g1ckzuq.cognition.run/","en-US,en;q=0.9","8hjus0jdgw3dewy","","51","[""White""]","No","Female","848500.7999999523","null","","<p></p>","null","rating","dtc","attraction_1","1","microwave ovens","null","null","null","null","null","null","1","","","","","","","","","","",""
"","","","","","rating_trial","survey-html-form","70","421846","0.0-3.0-1.33","21","1","2025-04-10 19:14:18","7bd189e8e4882776c700e1dae255cdf5","","Mozilla/5.0 (Windows NT 10.0; Win64; x64) AppleWebKit/537.36 (KHTML, like Gecko) Chrome/130.0.0.0 Safari/537.36","WebKit","Chrome","130.0.0.0","Windows","10.0","https://hz8g1ckzuq.cognition.run/","en-US,en;q=0.9","8hjus0jdgw3dewy","","51","[""White""]","No","Female","848500.7999999523","5530","","","{""price_1"":""465"",""price_2"":""484"",""price_3"":""242""}","rating","dtc","attraction_1","1","microwave ovens","null","null","null","null","null","null","1","60","50","60","50","60","45","Warranty","Cooking power","","",""
"","","","","","rating_trial_setup","html-keyboard-response","71","422167","0.0-3.0-0.34","21","1","2025-04-10 19:14:18","7bd189e8e4882776c700e1dae255cdf5","","Mozilla/5.0 (Windows NT 10.0; Win64; x64) AppleWebKit/537.36 (KHTML, like Gecko) Chrome/130.0.0.0 Safari/537.36","WebKit","Chrome","130.0.0.0","Windows","10.0","https://hz8g1ckzuq.cognition.run/","en-US,en;q=0.9","8hjus0jdgw3dewy","","51","[""White""]","No","Female","848500.7999999523","null","","<p></p>","null","rating","ctd","repulsion_2","2","laptops","null","null","null","null","null","null","2","","","","","","","","","","",""
"","","","","","rating_trial","survey-html-form","72","427749","0.0-3.0-1.34","21","1","2025-04-10 19:14:18","7bd189e8e4882776c700e1dae255cdf5","","Mozilla/5.0 (Windows NT 10.0; Win64; x64) AppleWebKit/537.36 (KHTML, like Gecko) Chrome/130.0.0.0 Safari/537.36","WebKit","Chrome","130.0.0.0","Windows","10.0","https://hz8g1ckzuq.cognition.run/","en-US,en;q=0.9","8hjus0jdgw3dewy","","51","[""White""]","No","Female","848500.7999999523","5573","","","{""price_1"":""957"",""price_2"":""143"",""price_3"":""353""}","rating","ctd","repulsion_2","2","laptops","null","null","null","null","null","null","2","30","40","20","100","90","100","Processing speed","Memory (RAM)","","",""
"","","","","","rating_trial_setup","html-keyboard-response","73","428061","0.0-3.0-0.35","21","1","2025-04-10 19:14:18","7bd189e8e4882776c700e1dae255cdf5","","Mozilla/5.0 (Windows NT 10.0; Win64; x64) AppleWebKit/537.36 (KHTML, like Gecko) Chrome/130.0.0.0 Safari/537.36","WebKit","Chrome","130.0.0.0","Windows","10.0","https://hz8g1ckzuq.cognition.run/","en-US,en;q=0.9","8hjus0jdgw3dewy","","51","[""White""]","No","Female","848500.7999999523","null","","<p></p>","null","rating","ctd","repulsion_2","2","washing machines","null","null","null","null","null","null","2","","","","","","","","","","",""
"","","","","","rating_trial","survey-html-form","74","434200","0.0-3.0-1.35","21","1","2025-04-10 19:14:18","7bd189e8e4882776c700e1dae255cdf5","","Mozilla/5.0 (Windows NT 10.0; Win64; x64) AppleWebKit/537.36 (KHTML, like Gecko) Chrome/130.0.0.0 Safari/537.36","WebKit","Chrome","130.0.0.0","Windows","10.0","https://hz8g1ckzuq.cognition.run/","en-US,en;q=0.9","8hjus0jdgw3dewy","","51","[""White""]","No","Female","848500.7999999523","6136","","","{""price_1"":""535"",""price_2"":""254"",""price_3"":""535""}","rating","ctd","repulsion_2","2","washing machines","null","null","null","null","null","null","2","30","40","20","100","90","100","Average lifespan","Energy savings","","",""
"","","","","","rating_trial_setup","html-keyboard-response","75","434513","0.0-3.0-0.36","21","1","2025-04-10 19:14:18","7bd189e8e4882776c700e1dae255cdf5","","Mozilla/5.0 (Windows NT 10.0; Win64; x64) AppleWebKit/537.36 (KHTML, like Gecko) Chrome/130.0.0.0 Safari/537.36","WebKit","Chrome","130.0.0.0","Windows","10.0","https://hz8g1ckzuq.cognition.run/","en-US,en;q=0.9","8hjus0jdgw3dewy","","51","[""White""]","No","Female","848500.7999999523","null","","<p></p>","null","rating","wwb","catch","null","televisions","60","70","50","5","35","20","2","","","","","","","","","","",""
"","","","","","rating_trial","survey-html-form","76","442457","0.0-3.0-1.36","21","1","2025-04-10 19:14:18","7bd189e8e4882776c700e1dae255cdf5","","Mozilla/5.0 (Windows NT 10.0; Win64; x64) AppleWebKit/537.36 (KHTML, like Gecko) Chrome/130.0.0.0 Safari/537.36","WebKit","Chrome","130.0.0.0","Windows","10.0","https://hz8g1ckzuq.cognition.run/","en-US,en;q=0.9","8hjus0jdgw3dewy","","51","[""White""]","No","Female","848500.7999999523","7935","","","{""price_1"":""264"",""price_2"":""472"",""price_3"":""265""}","rating","wwb","catch","null","televisions","60","70","50","5","35","20","2","null","null","null","null","null","null","Screen size","Average lifespan","","",""
"","","","","","rating_trial_setup","html-keyboard-response","77","442765","0.0-3.0-0.37","21","1","2025-04-10 19:14:18","7bd189e8e4882776c700e1dae255cdf5","","Mozilla/5.0 (Windows NT 10.0; Win64; x64) AppleWebKit/537.36 (KHTML, like Gecko) Chrome/130.0.0.0 Safari/537.36","WebKit","Chrome","130.0.0.0","Windows","10.0","https://hz8g1ckzuq.cognition.run/","en-US,en;q=0.9","8hjus0jdgw3dewy","","51","[""White""]","No","Female","848500.7999999523","null","","<p></p>","null","rating","tcd","repulsion_1","1","televisions","null","null","null","null","null","null","2","","","","","","","","","","",""
"","","","","","rating_trial","survey-html-form","78","449124","0.0-3.0-1.37","21","1","2025-04-10 19:14:18","7bd189e8e4882776c700e1dae255cdf5","","Mozilla/5.0 (Windows NT 10.0; Win64; x64) AppleWebKit/537.36 (KHTML, like Gecko) Chrome/130.0.0.0 Safari/537.36","WebKit","Chrome","130.0.0.0","Windows","10.0","https://hz8g1ckzuq.cognition.run/","en-US,en;q=0.9","8hjus0jdgw3dewy","","51","[""White""]","No","Female","848500.7999999523","6348","","","{""price_1"":""756"",""price_2"":""243"",""price_3"":""325""}","rating","tcd","repulsion_1","1","televisions","null","null","null","null","null","null","2","100","90","100","30","40","25","Screen size","Average lifespan","","",""
"","","","","","rating_trial_setup","html-keyboard-response","79","449436","0.0-3.0-0.38","21","1","2025-04-10 19:14:18","7bd189e8e4882776c700e1dae255cdf5","","Mozilla/5.0 (Windows NT 10.0; Win64; x64) AppleWebKit/537.36 (KHTML, like Gecko) Chrome/130.0.0.0 Safari/537.36","WebKit","Chrome","130.0.0.0","Windows","10.0","https://hz8g1ckzuq.cognition.run/","en-US,en;q=0.9","8hjus0jdgw3dewy","","51","[""White""]","No","Female","848500.7999999523","null","","<p></p>","null","rating","tcd","repulsion_1","2","washing machines","null","null","null","null","null","null","1","","","","","","","","","","",""
"","","","","","rating_trial","survey-html-form","80","471992","0.0-3.0-1.38","21","1","2025-04-10 19:14:18","7bd189e8e4882776c700e1dae255cdf5","","Mozilla/5.0 (Windows NT 10.0; Win64; x64) AppleWebKit/537.36 (KHTML, like Gecko) Chrome/130.0.0.0 Safari/537.36","WebKit","Chrome","130.0.0.0","Windows","10.0","https://hz8g1ckzuq.cognition.run/","en-US,en;q=0.9","8hjus0jdgw3dewy","","51","[""White""]","No","Female","848500.7999999523","22547","","","{""price_1"":""464"",""price_2"":""778"",""price_3"":""347""}","rating","tcd","repulsion_1","2","washing machines","null","null","null","null","null","null","1","30","40","25","100","90","100","Average lifespan","Energy savings","","",""
"","","","","","rating_trial_setup","html-keyboard-response","81","472298","0.0-3.0-0.39","21","1","2025-04-10 19:14:18","7bd189e8e4882776c700e1dae255cdf5","","Mozilla/5.0 (Windows NT 10.0; Win64; x64) AppleWebKit/537.36 (KHTML, like Gecko) Chrome/130.0.0.0 Safari/537.36","WebKit","Chrome","130.0.0.0","Windows","10.0","https://hz8g1ckzuq.cognition.run/","en-US,en;q=0.9","8hjus0jdgw3dewy","","51","[""White""]","No","Female","848500.7999999523","null","","<p></p>","null","rating","ctd","attraction_2","2","laptops","null","null","null","null","null","null","1","","","","","","","","","","",""
"","","","","","rating_trial","survey-html-form","82","479899","0.0-3.0-1.39","21","1","2025-04-10 19:14:18","7bd189e8e4882776c700e1dae255cdf5","","Mozilla/5.0 (Windows NT 10.0; Win64; x64) AppleWebKit/537.36 (KHTML, like Gecko) Chrome/130.0.0.0 Safari/537.36","WebKit","Chrome","130.0.0.0","Windows","10.0","https://hz8g1ckzuq.cognition.run/","en-US,en;q=0.9","8hjus0jdgw3dewy","","51","[""White""]","No","Female","848500.7999999523","7590","","","{""price_1"":""475"",""price_2"":""247"",""price_3"":""457""}","rating","ctd","attraction_2","2","laptops","null","null","null","null","null","null","1","50","60","40","60","50","60","Processing speed","Memory (RAM)","","",""
"","","","","","","instructions","83","581873","0.0-4.0","21","1","2025-04-10 19:14:18","7bd189e8e4882776c700e1dae255cdf5","","Mozilla/5.0 (Windows NT 10.0; Win64; x64) AppleWebKit/537.36 (KHTML, like Gecko) Chrome/130.0.0.0 Safari/537.36","WebKit","Chrome","130.0.0.0","Windows","10.0","https://hz8g1ckzuq.cognition.run/","en-US,en;q=0.9","8hjus0jdgw3dewy","","51","[""White""]","No","Female","848500.7999999523","101970","[{""page_index"":0,""viewing_time"":8850},{""page_index"":1,""viewing_time"":1799},{""page_index"":2,""viewing_time"":1024},{""page_index"":3,""viewing_time"":1160},{""page_index"":4,""viewing_time"":15056},{""page_index"":5,""viewing_time"":1136},{""page_index"":6,""viewing_time"":71249},{""page_index"":7,""viewing_time"":1696}]","","","","","","","","","","","","","","","","","","","","","","","","",""
"","","","","","choice_trial_setup","html-keyboard-response","84","582188","0.0-5.0-0.0","21","1","2025-04-10 19:14:18","7bd189e8e4882776c700e1dae255cdf5","","Mozilla/5.0 (Windows NT 10.0; Win64; x64) AppleWebKit/537.36 (KHTML, like Gecko) Chrome/130.0.0.0 Safari/537.36","WebKit","Chrome","130.0.0.0","Windows","10.0","https://hz8g1ckzuq.cognition.run/","en-US,en;q=0.9","8hjus0jdgw3dewy","","51","[""White""]","No","Female","848500.7999999523","null","","<p></p>","null","choice","tcd","repulsion_2","2","laptops","null","null","null","null","null","null","2","","","","","","","","","","",""
"","","","","","choice_trial","survey-html-form","85","587793","0.0-5.0-1.0","21","1","2025-04-10 19:14:18","7bd189e8e4882776c700e1dae255cdf5","","Mozilla/5.0 (Windows NT 10.0; Win64; x64) AppleWebKit/537.36 (KHTML, like Gecko) Chrome/130.0.0.0 Safari/537.36","WebKit","Chrome","130.0.0.0","Windows","10.0","https://hz8g1ckzuq.cognition.run/","en-US,en;q=0.9","8hjus0jdgw3dewy","","51","[""White""]","No","Female","848500.7999999523","5593","","","{""product_choice"":""B""}","choice","tcd","repulsion_2","2","laptops","null","null","null","null","null","null","2","30","40","20","100","90","100","Processing speed","Memory (RAM)","","",""
"","","","","","choice_trial_setup","html-keyboard-response","86","588101","0.0-5.0-0.1","21","1","2025-04-10 19:14:18","7bd189e8e4882776c700e1dae255cdf5","","Mozilla/5.0 (Windows NT 10.0; Win64; x64) AppleWebKit/537.36 (KHTML, like Gecko) Chrome/130.0.0.0 Safari/537.36","WebKit","Chrome","130.0.0.0","Windows","10.0","https://hz8g1ckzuq.cognition.run/","en-US,en;q=0.9","8hjus0jdgw3dewy","","51","[""White""]","No","Female","848500.7999999523","null","","<p></p>","null","choice","dct","attraction_2","1","washing machines","null","null","null","null","null","null","1","","","","","","","","","","",""
"","","","","","choice_trial","survey-html-form","87","589809","0.0-5.0-1.1","21","1","2025-04-10 19:14:18","7bd189e8e4882776c700e1dae255cdf5","","Mozilla/5.0 (Windows NT 10.0; Win64; x64) AppleWebKit/537.36 (KHTML, like Gecko) Chrome/130.0.0.0 Safari/537.36","WebKit","Chrome","130.0.0.0","Windows","10.0","https://hz8g1ckzuq.cognition.run/","en-US,en;q=0.9","8hjus0jdgw3dewy","","51","[""White""]","No","Female","848500.7999999523","1698","","","{""product_choice"":""B""}","choice","dct","attraction_2","1","washing machines","null","null","null","null","null","null","1","60","50","60","50","60","40","Average lifespan","Energy savings","","",""
"","","","","","choice_trial_setup","html-keyboard-response","88","590117","0.0-5.0-0.2","21","1","2025-04-10 19:14:18","7bd189e8e4882776c700e1dae255cdf5","","Mozilla/5.0 (Windows NT 10.0; Win64; x64) AppleWebKit/537.36 (KHTML, like Gecko) Chrome/130.0.0.0 Safari/537.36","WebKit","Chrome","130.0.0.0","Windows","10.0","https://hz8g1ckzuq.cognition.run/","en-US,en;q=0.9","8hjus0jdgw3dewy","","51","[""White""]","No","Female","848500.7999999523","null","","<p></p>","null","choice","ctd","attraction_2","1","televisions","null","null","null","null","null","null","1","","","","","","","","","","",""
"","","","","","choice_trial","survey-html-form","89","594473","0.0-5.0-1.2","21","1","2025-04-10 19:14:18","7bd189e8e4882776c700e1dae255cdf5","","Mozilla/5.0 (Windows NT 10.0; Win64; x64) AppleWebKit/537.36 (KHTML, like Gecko) Chrome/130.0.0.0 Safari/537.36","WebKit","Chrome","130.0.0.0","Windows","10.0","https://hz8g1ckzuq.cognition.run/","en-US,en;q=0.9","8hjus0jdgw3dewy","","51","[""White""]","No","Female","848500.7999999523","4345","","","{""product_choice"":""A""}","choice","ctd","attraction_2","1","televisions","null","null","null","null","null","null","1","60","50","60","50","60","40","Screen size","Average lifespan","","",""
"","","","","","choice_trial_setup","html-keyboard-response","90","594779","0.0-5.0-0.3","21","1","2025-04-10 19:14:18","7bd189e8e4882776c700e1dae255cdf5","","Mozilla/5.0 (Windows NT 10.0; Win64; x64) AppleWebKit/537.36 (KHTML, like Gecko) Chrome/130.0.0.0 Safari/537.36","WebKit","Chrome","130.0.0.0","Windows","10.0","https://hz8g1ckzuq.cognition.run/","en-US,en;q=0.9","8hjus0jdgw3dewy","","51","[""White""]","No","Female","848500.7999999523","null","","<p></p>","null","choice","dct","repulsion_2","1","microwave ovens","null","null","null","null","null","null","2","","","","","","","","","","",""
"","","","","","choice_trial","survey-html-form","91","596808","0.0-5.0-1.3","21","1","2025-04-10 19:14:18","7bd189e8e4882776c700e1dae255cdf5","","Mozilla/5.0 (Windows NT 10.0; Win64; x64) AppleWebKit/537.36 (KHTML, like Gecko) Chrome/130.0.0.0 Safari/537.36","WebKit","Chrome","130.0.0.0","Windows","10.0","https://hz8g1ckzuq.cognition.run/","en-US,en;q=0.9","8hjus0jdgw3dewy","","51","[""White""]","No","Female","848500.7999999523","2016","","","{""product_choice"":""B""}","choice","dct","repulsion_2","1","microwave ovens","null","null","null","null","null","null","2","100","90","100","30","40","20","Warranty","Cooking power","","",""
"","","","","","choice_trial_setup","html-keyboard-response","92","597118","0.0-5.0-0.4","21","1","2025-04-10 19:14:18","7bd189e8e4882776c700e1dae255cdf5","","Mozilla/5.0 (Windows NT 10.0; Win64; x64) AppleWebKit/537.36 (KHTML, like Gecko) Chrome/130.0.0.0 Safari/537.36","WebKit","Chrome","130.0.0.0","Windows","10.0","https://hz8g1ckzuq.cognition.run/","en-US,en;q=0.9","8hjus0jdgw3dewy","","51","[""White""]","No","Female","848500.7999999523","null","","<p></p>","null","choice","tcd","repulsion_2","2","microwave ovens","null","null","null","null","null","null","2","","","","","","","","","","",""
"","","","","","choice_trial","survey-html-form","93","599123","0.0-5.0-1.4","21","1","2025-04-10 19:14:18","7bd189e8e4882776c700e1dae255cdf5","","Mozilla/5.0 (Windows NT 10.0; Win64; x64) AppleWebKit/537.36 (KHTML, like Gecko) Chrome/130.0.0.0 Safari/537.36","WebKit","Chrome","130.0.0.0","Windows","10.0","https://hz8g1ckzuq.cognition.run/","en-US,en;q=0.9","8hjus0jdgw3dewy","","51","[""White""]","No","Female","848500.7999999523","1993","","","{""product_choice"":""A""}","choice","tcd","repulsion_2","2","microwave ovens","null","null","null","null","null","null","2","30","40","20","100","90","100","Warranty","Cooking power","","",""
"","","","","","choice_trial_setup","html-keyboard-response","94","599429","0.0-5.0-0.5","21","1","2025-04-10 19:14:18","7bd189e8e4882776c700e1dae255cdf5","","Mozilla/5.0 (Windows NT 10.0; Win64; x64) AppleWebKit/537.36 (KHTML, like Gecko) Chrome/130.0.0.0 Safari/537.36","WebKit","Chrome","130.0.0.0","Windows","10.0","https://hz8g1ckzuq.cognition.run/","en-US,en;q=0.9","8hjus0jdgw3dewy","","51","[""White""]","No","Female","848500.7999999523","null","","<p></p>","null","choice","wbw","catch","null","microwave ovens","90","50","5","40","35","15","2","","","","","","","","","","",""
"","","","","","choice_trial","survey-html-form","95","600994","0.0-5.0-1.5","21","1","2025-04-10 19:14:18","7bd189e8e4882776c700e1dae255cdf5","","Mozilla/5.0 (Windows NT 10.0; Win64; x64) AppleWebKit/537.36 (KHTML, like Gecko) Chrome/130.0.0.0 Safari/537.36","WebKit","Chrome","130.0.0.0","Windows","10.0","https://hz8g1ckzuq.cognition.run/","en-US,en;q=0.9","8hjus0jdgw3dewy","","51","[""White""]","No","Female","848500.7999999523","1553","","","{""product_choice"":""B""}","choice","wbw","catch","null","microwave ovens","90","50","5","40","35","15","2","null","null","null","null","null","null","Warranty","Cooking power","","",""
"","","","","","choice_trial_setup","html-keyboard-response","96","601300","0.0-5.0-0.6","21","1","2025-04-10 19:14:18","7bd189e8e4882776c700e1dae255cdf5","","Mozilla/5.0 (Windows NT 10.0; Win64; x64) AppleWebKit/537.36 (KHTML, like Gecko) Chrome/130.0.0.0 Safari/537.36","WebKit","Chrome","130.0.0.0","Windows","10.0","https://hz8g1ckzuq.cognition.run/","en-US,en;q=0.9","8hjus0jdgw3dewy","","51","[""White""]","No","Female","848500.7999999523","null","","<p></p>","null","choice","cdt","repulsion_1","1","laptops","null","null","null","null","null","null","2","","","","","","","","","","",""
"","","","","","choice_trial","survey-html-form","97","602953","0.0-5.0-1.6","21","1","2025-04-10 19:14:18","7bd189e8e4882776c700e1dae255cdf5","","Mozilla/5.0 (Windows NT 10.0; Win64; x64) AppleWebKit/537.36 (KHTML, like Gecko) Chrome/130.0.0.0 Safari/537.36","WebKit","Chrome","130.0.0.0","Windows","10.0","https://hz8g1ckzuq.cognition.run/","en-US,en;q=0.9","8hjus0jdgw3dewy","","51","[""White""]","No","Female","848500.7999999523","1642","","","{""product_choice"":""A""}","choice","cdt","repulsion_1","1","laptops","null","null","null","null","null","null","2","100","90","100","30","40","25","Processing speed","Memory (RAM)","","",""
"","","","","","choice_trial_setup","html-keyboard-response","98","603259","0.0-5.0-0.7","21","1","2025-04-10 19:14:18","7bd189e8e4882776c700e1dae255cdf5","","Mozilla/5.0 (Windows NT 10.0; Win64; x64) AppleWebKit/537.36 (KHTML, like Gecko) Chrome/130.0.0.0 Safari/537.36","WebKit","Chrome","130.0.0.0","Windows","10.0","https://hz8g1ckzuq.cognition.run/","en-US,en;q=0.9","8hjus0jdgw3dewy","","51","[""White""]","No","Female","848500.7999999523","null","","<p></p>","null","choice","tdc","attraction_2","1","microwave ovens","null","null","null","null","null","null","1","","","","","","","","","","",""
"","","","","","choice_trial","survey-html-form","99","606113","0.0-5.0-1.7","21","1","2025-04-10 19:14:18","7bd189e8e4882776c700e1dae255cdf5","","Mozilla/5.0 (Windows NT 10.0; Win64; x64) AppleWebKit/537.36 (KHTML, like Gecko) Chrome/130.0.0.0 Safari/537.36","WebKit","Chrome","130.0.0.0","Windows","10.0","https://hz8g1ckzuq.cognition.run/","en-US,en;q=0.9","8hjus0jdgw3dewy","","51","[""White""]","No","Female","848500.7999999523","2840","","","{""product_choice"":""B""}","choice","tdc","attraction_2","1","microwave ovens","null","null","null","null","null","null","1","60","50","60","50","60","40","Warranty","Cooking power","","",""
"","","","","","choice_trial_setup","html-keyboard-response","100","606420","0.0-5.0-0.8","21","1","2025-04-10 19:14:18","7bd189e8e4882776c700e1dae255cdf5","","Mozilla/5.0 (Windows NT 10.0; Win64; x64) AppleWebKit/537.36 (KHTML, like Gecko) Chrome/130.0.0.0 Safari/537.36","WebKit","Chrome","130.0.0.0","Windows","10.0","https://hz8g1ckzuq.cognition.run/","en-US,en;q=0.9","8hjus0jdgw3dewy","","51","[""White""]","No","Female","848500.7999999523","null","","<p></p>","null","choice","tdc","repulsion_1","2","laptops","null","null","null","null","null","null","1","","","","","","","","","","",""
"","","","","","choice_trial","survey-html-form","101","609571","0.0-5.0-1.8","21","1","2025-04-10 19:14:18","7bd189e8e4882776c700e1dae255cdf5","","Mozilla/5.0 (Windows NT 10.0; Win64; x64) AppleWebKit/537.36 (KHTML, like Gecko) Chrome/130.0.0.0 Safari/537.36","WebKit","Chrome","130.0.0.0","Windows","10.0","https://hz8g1ckzuq.cognition.run/","en-US,en;q=0.9","8hjus0jdgw3dewy","","51","[""White""]","No","Female","848500.7999999523","3140","","","{""product_choice"":""A""}","choice","tdc","repulsion_1","2","laptops","null","null","null","null","null","null","1","30","40","25","100","90","100","Processing speed","Memory (RAM)","","",""
"","","","","","choice_trial_setup","html-keyboard-response","102","609882","0.0-5.0-0.9","21","1","2025-04-10 19:14:18","7bd189e8e4882776c700e1dae255cdf5","","Mozilla/5.0 (Windows NT 10.0; Win64; x64) AppleWebKit/537.36 (KHTML, like Gecko) Chrome/130.0.0.0 Safari/537.36","WebKit","Chrome","130.0.0.0","Windows","10.0","https://hz8g1ckzuq.cognition.run/","en-US,en;q=0.9","8hjus0jdgw3dewy","","51","[""White""]","No","Female","848500.7999999523","null","","<p></p>","null","choice","tcd","attraction_2","2","washing machines","null","null","null","null","null","null","2","","","","","","","","","","",""
"","","","","","choice_trial","survey-html-form","103","611770","0.0-5.0-1.9","21","1","2025-04-10 19:14:18","7bd189e8e4882776c700e1dae255cdf5","","Mozilla/5.0 (Windows NT 10.0; Win64; x64) AppleWebKit/537.36 (KHTML, like Gecko) Chrome/130.0.0.0 Safari/537.36","WebKit","Chrome","130.0.0.0","Windows","10.0","https://hz8g1ckzuq.cognition.run/","en-US,en;q=0.9","8hjus0jdgw3dewy","","51","[""White""]","No","Female","848500.7999999523","1875","","","{""product_choice"":""B""}","choice","tcd","attraction_2","2","washing machines","null","null","null","null","null","null","2","50","60","40","60","50","60","Average lifespan","Energy savings","","",""
"","","","","","choice_trial_setup","html-keyboard-response","104","612076","0.0-5.0-0.10","21","1","2025-04-10 19:14:18","7bd189e8e4882776c700e1dae255cdf5","","Mozilla/5.0 (Windows NT 10.0; Win64; x64) AppleWebKit/537.36 (KHTML, like Gecko) Chrome/130.0.0.0 Safari/537.36","WebKit","Chrome","130.0.0.0","Windows","10.0","https://hz8g1ckzuq.cognition.run/","en-US,en;q=0.9","8hjus0jdgw3dewy","","51","[""White""]","No","Female","848500.7999999523","null","","<p></p>","null","choice","dtc","attraction_1","2","washing machines","null","null","null","null","null","null","1","","","","","","","","","","",""
"","","","","","choice_trial","survey-html-form","105","614452","0.0-5.0-1.10","21","1","2025-04-10 19:14:18","7bd189e8e4882776c700e1dae255cdf5","","Mozilla/5.0 (Windows NT 10.0; Win64; x64) AppleWebKit/537.36 (KHTML, like Gecko) Chrome/130.0.0.0 Safari/537.36","WebKit","Chrome","130.0.0.0","Windows","10.0","https://hz8g1ckzuq.cognition.run/","en-US,en;q=0.9","8hjus0jdgw3dewy","","51","[""White""]","No","Female","848500.7999999523","2363","","","{""product_choice"":""A""}","choice","dtc","attraction_1","2","washing machines","null","null","null","null","null","null","1","50","60","45","60","50","60","Average lifespan","Energy savings","","",""
"","","","","","choice_trial_setup","html-keyboard-response","106","614761","0.0-5.0-0.11","21","1","2025-04-10 19:14:18","7bd189e8e4882776c700e1dae255cdf5","","Mozilla/5.0 (Windows NT 10.0; Win64; x64) AppleWebKit/537.36 (KHTML, like Gecko) Chrome/130.0.0.0 Safari/537.36","WebKit","Chrome","130.0.0.0","Windows","10.0","https://hz8g1ckzuq.cognition.run/","en-US,en;q=0.9","8hjus0jdgw3dewy","","51","[""White""]","No","Female","848500.7999999523","null","","<p></p>","null","choice","cdt","attraction_1","2","laptops","null","null","null","null","null","null","1","","","","","","","","","","",""
"","","","","","choice_trial","survey-html-form","107","616066","0.0-5.0-1.11","21","1","2025-04-10 19:14:18","7bd189e8e4882776c700e1dae255cdf5","","Mozilla/5.0 (Windows NT 10.0; Win64; x64) AppleWebKit/537.36 (KHTML, like Gecko) Chrome/130.0.0.0 Safari/537.36","WebKit","Chrome","130.0.0.0","Windows","10.0","https://hz8g1ckzuq.cognition.run/","en-US,en;q=0.9","8hjus0jdgw3dewy","","51","[""White""]","No","Female","848500.7999999523","1292","","","{""product_choice"":""B""}","choice","cdt","attraction_1","2","laptops","null","null","null","null","null","null","1","50","60","45","60","50","60","Processing speed","Memory (RAM)","","",""
"","","","","","choice_trial_setup","html-keyboard-response","108","616374","0.0-5.0-0.12","21","1","2025-04-10 19:14:18","7bd189e8e4882776c700e1dae255cdf5","","Mozilla/5.0 (Windows NT 10.0; Win64; x64) AppleWebKit/537.36 (KHTML, like Gecko) Chrome/130.0.0.0 Safari/537.36","WebKit","Chrome","130.0.0.0","Windows","10.0","https://hz8g1ckzuq.cognition.run/","en-US,en;q=0.9","8hjus0jdgw3dewy","","51","[""White""]","No","Female","848500.7999999523","null","","<p></p>","null","choice","wbw","catch","null","laptops","95","80","25","40","45","15","2","","","","","","","","","","",""
"","","","","","choice_trial","survey-html-form","109","618257","0.0-5.0-1.12","21","1","2025-04-10 19:14:18","7bd189e8e4882776c700e1dae255cdf5","","Mozilla/5.0 (Windows NT 10.0; Win64; x64) AppleWebKit/537.36 (KHTML, like Gecko) Chrome/130.0.0.0 Safari/537.36","WebKit","Chrome","130.0.0.0","Windows","10.0","https://hz8g1ckzuq.cognition.run/","en-US,en;q=0.9","8hjus0jdgw3dewy","","51","[""White""]","No","Female","848500.7999999523","1870","","","{""product_choice"":""A""}","choice","wbw","catch","null","laptops","95","80","25","40","45","15","2","null","null","null","null","null","null","Processing speed","Memory (RAM)","","",""
"","","","","","choice_trial_setup","html-keyboard-response","110","618569","0.0-5.0-0.13","21","1","2025-04-10 19:14:18","7bd189e8e4882776c700e1dae255cdf5","","Mozilla/5.0 (Windows NT 10.0; Win64; x64) AppleWebKit/537.36 (KHTML, like Gecko) Chrome/130.0.0.0 Safari/537.36","WebKit","Chrome","130.0.0.0","Windows","10.0","https://hz8g1ckzuq.cognition.run/","en-US,en;q=0.9","8hjus0jdgw3dewy","","51","[""White""]","No","Female","848500.7999999523","null","","<p></p>","null","choice","wwb","catch","null","laptops","60","50","25","30","5","10","1","","","","","","","","","","",""
"","","","","","choice_trial","survey-html-form","111","621577","0.0-5.0-1.13","21","1","2025-04-10 19:14:18","7bd189e8e4882776c700e1dae255cdf5","","Mozilla/5.0 (Windows NT 10.0; Win64; x64) AppleWebKit/537.36 (KHTML, like Gecko) Chrome/130.0.0.0 Safari/537.36","WebKit","Chrome","130.0.0.0","Windows","10.0","https://hz8g1ckzuq.cognition.run/","en-US,en;q=0.9","8hjus0jdgw3dewy","","51","[""White""]","No","Female","848500.7999999523","3001","","","{""product_choice"":""A""}","choice","wwb","catch","null","laptops","60","50","25","30","5","10","1","null","null","null","null","null","null","Processing speed","Memory (RAM)","","",""
"","","","","","choice_trial_setup","html-keyboard-response","112","621884","0.0-5.0-0.14","21","1","2025-04-10 19:14:18","7bd189e8e4882776c700e1dae255cdf5","","Mozilla/5.0 (Windows NT 10.0; Win64; x64) AppleWebKit/537.36 (KHTML, like Gecko) Chrome/130.0.0.0 Safari/537.36","WebKit","Chrome","130.0.0.0","Windows","10.0","https://hz8g1ckzuq.cognition.run/","en-US,en;q=0.9","8hjus0jdgw3dewy","","51","[""White""]","No","Female","848500.7999999523","null","","<p></p>","null","choice","dct","repulsion_1","2","washing machines","null","null","null","null","null","null","1","","","","","","","","","","",""
"","","","","","choice_trial","survey-html-form","113","623497","0.0-5.0-1.14","21","1","2025-04-10 19:14:18","7bd189e8e4882776c700e1dae255cdf5","","Mozilla/5.0 (Windows NT 10.0; Win64; x64) AppleWebKit/537.36 (KHTML, like Gecko) Chrome/130.0.0.0 Safari/537.36","WebKit","Chrome","130.0.0.0","Windows","10.0","https://hz8g1ckzuq.cognition.run/","en-US,en;q=0.9","8hjus0jdgw3dewy","","51","[""White""]","No","Female","848500.7999999523","1600","","","{""product_choice"":""B""}","choice","dct","repulsion_1","2","washing machines","null","null","null","null","null","null","1","30","40","25","100","90","100","Average lifespan","Energy savings","","",""
"","","","","","choice_trial_setup","html-keyboard-response","114","623804","0.0-5.0-0.15","21","1","2025-04-10 19:14:18","7bd189e8e4882776c700e1dae255cdf5","","Mozilla/5.0 (Windows NT 10.0; Win64; x64) AppleWebKit/537.36 (KHTML, like Gecko) Chrome/130.0.0.0 Safari/537.36","WebKit","Chrome","130.0.0.0","Windows","10.0","https://hz8g1ckzuq.cognition.run/","en-US,en;q=0.9","8hjus0jdgw3dewy","","51","[""White""]","No","Female","848500.7999999523","null","","<p></p>","null","choice","cdt","attraction_2","2","microwave ovens","null","null","null","null","null","null","1","","","","","","","","","","",""
"","","","","","choice_trial","survey-html-form","115","646530","0.0-5.0-1.15","21","1","2025-04-10 19:14:18","7bd189e8e4882776c700e1dae255cdf5","","Mozilla/5.0 (Windows NT 10.0; Win64; x64) AppleWebKit/537.36 (KHTML, like Gecko) Chrome/130.0.0.0 Safari/537.36","WebKit","Chrome","130.0.0.0","Windows","10.0","https://hz8g1ckzuq.cognition.run/","en-US,en;q=0.9","8hjus0jdgw3dewy","","51","[""White""]","No","Female","848500.7999999523","22712","","","{""product_choice"":""A""}","choice","cdt","attraction_2","2","microwave ovens","null","null","null","null","null","null","1","50","60","40","60","50","60","Warranty","Cooking power","","",""
"","","","","","choice_trial_setup","html-keyboard-response","116","646836","0.0-5.0-0.16","21","1","2025-04-10 19:14:18","7bd189e8e4882776c700e1dae255cdf5","","Mozilla/5.0 (Windows NT 10.0; Win64; x64) AppleWebKit/537.36 (KHTML, like Gecko) Chrome/130.0.0.0 Safari/537.36","WebKit","Chrome","130.0.0.0","Windows","10.0","https://hz8g1ckzuq.cognition.run/","en-US,en;q=0.9","8hjus0jdgw3dewy","","51","[""White""]","No","Female","848500.7999999523","null","","<p></p>","null","choice","bww","catch","null","washing machines","85","50","40","40","25","25","2","","","","","","","","","","",""
"","","","","","choice_trial","survey-html-form","117","649458","0.0-5.0-1.16","21","1","2025-04-10 19:14:18","7bd189e8e4882776c700e1dae255cdf5","","Mozilla/5.0 (Windows NT 10.0; Win64; x64) AppleWebKit/537.36 (KHTML, like Gecko) Chrome/130.0.0.0 Safari/537.36","WebKit","Chrome","130.0.0.0","Windows","10.0","https://hz8g1ckzuq.cognition.run/","en-US,en;q=0.9","8hjus0jdgw3dewy","","51","[""White""]","No","Female","848500.7999999523","2608","","","{""product_choice"":""A""}","choice","bww","catch","null","washing machines","85","50","40","40","25","25","2","null","null","null","null","null","null","Average lifespan","Energy savings","","",""
"","","","","","choice_trial_setup","html-keyboard-response","118","649764","0.0-5.0-0.17","21","1","2025-04-10 19:14:18","7bd189e8e4882776c700e1dae255cdf5","","Mozilla/5.0 (Windows NT 10.0; Win64; x64) AppleWebKit/537.36 (KHTML, like Gecko) Chrome/130.0.0.0 Safari/537.36","WebKit","Chrome","130.0.0.0","Windows","10.0","https://hz8g1ckzuq.cognition.run/","en-US,en;q=0.9","8hjus0jdgw3dewy","","51","[""White""]","No","Female","848500.7999999523","null","","<p></p>","null","choice","dct","attraction_1","1","televisions","null","null","null","null","null","null","2","","","","","","","","","","",""
"","","","","","choice_trial","survey-html-form","119","651897","0.0-5.0-1.17","21","1","2025-04-10 19:14:18","7bd189e8e4882776c700e1dae255cdf5","","Mozilla/5.0 (Windows NT 10.0; Win64; x64) AppleWebKit/537.36 (KHTML, like Gecko) Chrome/130.0.0.0 Safari/537.36","WebKit","Chrome","130.0.0.0","Windows","10.0","https://hz8g1ckzuq.cognition.run/","en-US,en;q=0.9","8hjus0jdgw3dewy","","51","[""White""]","No","Female","848500.7999999523","2119","","","{""product_choice"":""A""}","choice","dct","attraction_1","1","televisions","null","null","null","null","null","null","2","60","50","60","50","60","45","Screen size","Average lifespan","","",""
"","","","","","choice_trial_setup","html-keyboard-response","120","652208","0.0-5.0-0.18","21","1","2025-04-10 19:14:18","7bd189e8e4882776c700e1dae255cdf5","","Mozilla/5.0 (Windows NT 10.0; Win64; x64) AppleWebKit/537.36 (KHTML, like Gecko) Chrome/130.0.0.0 Safari/537.36","WebKit","Chrome","130.0.0.0","Windows","10.0","https://hz8g1ckzuq.cognition.run/","en-US,en;q=0.9","8hjus0jdgw3dewy","","51","[""White""]","No","Female","848500.7999999523","null","","<p></p>","null","choice","wbw","catch","null","televisions","50","75","5","5","50","45","2","","","","","","","","","","",""
"","","","","","choice_trial","survey-html-form","121","654065","0.0-5.0-1.18","21","1","2025-04-10 19:14:18","7bd189e8e4882776c700e1dae255cdf5","","Mozilla/5.0 (Windows NT 10.0; Win64; x64) AppleWebKit/537.36 (KHTML, like Gecko) Chrome/130.0.0.0 Safari/537.36","WebKit","Chrome","130.0.0.0","Windows","10.0","https://hz8g1ckzuq.cognition.run/","en-US,en;q=0.9","8hjus0jdgw3dewy","","51","[""White""]","No","Female","848500.7999999523","1843","","","{""product_choice"":""B""}","choice","wbw","catch","null","televisions","50","75","5","5","50","45","2","null","null","null","null","null","null","Screen size","Average lifespan","","",""
"","","","","","choice_trial_setup","html-keyboard-response","122","654373","0.0-5.0-0.19","21","1","2025-04-10 19:14:18","7bd189e8e4882776c700e1dae255cdf5","","Mozilla/5.0 (Windows NT 10.0; Win64; x64) AppleWebKit/537.36 (KHTML, like Gecko) Chrome/130.0.0.0 Safari/537.36","WebKit","Chrome","130.0.0.0","Windows","10.0","https://hz8g1ckzuq.cognition.run/","en-US,en;q=0.9","8hjus0jdgw3dewy","","51","[""White""]","No","Female","848500.7999999523","null","","<p></p>","null","choice","tdc","attraction_1","1","laptops","null","null","null","null","null","null","1","","","","","","","","","","",""
"","","","","","choice_trial","survey-html-form","123","655882","0.0-5.0-1.19","21","1","2025-04-10 19:14:18","7bd189e8e4882776c700e1dae255cdf5","","Mozilla/5.0 (Windows NT 10.0; Win64; x64) AppleWebKit/537.36 (KHTML, like Gecko) Chrome/130.0.0.0 Safari/537.36","WebKit","Chrome","130.0.0.0","Windows","10.0","https://hz8g1ckzuq.cognition.run/","en-US,en;q=0.9","8hjus0jdgw3dewy","","51","[""White""]","No","Female","848500.7999999523","1494","","","{""product_choice"":""B""}","choice","tdc","attraction_1","1","laptops","null","null","null","null","null","null","1","60","50","60","50","60","45","Processing speed","Memory (RAM)","","",""
"","","","","","choice_trial_setup","html-keyboard-response","124","656202","0.0-5.0-0.20","21","1","2025-04-10 19:14:18","7bd189e8e4882776c700e1dae255cdf5","","Mozilla/5.0 (Windows NT 10.0; Win64; x64) AppleWebKit/537.36 (KHTML, like Gecko) Chrome/130.0.0.0 Safari/537.36","WebKit","Chrome","130.0.0.0","Windows","10.0","https://hz8g1ckzuq.cognition.run/","en-US,en;q=0.9","8hjus0jdgw3dewy","","51","[""White""]","No","Female","848500.7999999523","null","","<p></p>","null","choice","dtc","repulsion_2","2","televisions","null","null","null","null","null","null","1","","","","","","","","","","",""
"","","","","","choice_trial","survey-html-form","125","658121","0.0-5.0-1.20","21","1","2025-04-10 19:14:18","7bd189e8e4882776c700e1dae255cdf5","","Mozilla/5.0 (Windows NT 10.0; Win64; x64) AppleWebKit/537.36 (KHTML, like Gecko) Chrome/130.0.0.0 Safari/537.36","WebKit","Chrome","130.0.0.0","Windows","10.0","https://hz8g1ckzuq.cognition.run/","en-US,en;q=0.9","8hjus0jdgw3dewy","","51","[""White""]","No","Female","848500.7999999523","1906","","","{""product_choice"":""A""}","choice","dtc","repulsion_2","2","televisions","null","null","null","null","null","null","1","30","40","20","100","90","100","Screen size","Average lifespan","","",""
"","","","","","choice_trial_setup","html-keyboard-response","126","658431","0.0-5.0-0.21","21","1","2025-04-10 19:14:18","7bd189e8e4882776c700e1dae255cdf5","","Mozilla/5.0 (Windows NT 10.0; Win64; x64) AppleWebKit/537.36 (KHTML, like Gecko) Chrome/130.0.0.0 Safari/537.36","WebKit","Chrome","130.0.0.0","Windows","10.0","https://hz8g1ckzuq.cognition.run/","en-US,en;q=0.9","8hjus0jdgw3dewy","","51","[""White""]","No","Female","848500.7999999523","null","","<p></p>","null","choice","wwb","catch","null","televisions","60","95","35","40","15","10","1","","","","","","","","","","",""
"","","","","","choice_trial","survey-html-form","127","665321","0.0-5.0-1.21","21","1","2025-04-10 19:14:18","7bd189e8e4882776c700e1dae255cdf5","","Mozilla/5.0 (Windows NT 10.0; Win64; x64) AppleWebKit/537.36 (KHTML, like Gecko) Chrome/130.0.0.0 Safari/537.36","WebKit","Chrome","130.0.0.0","Windows","10.0","https://hz8g1ckzuq.cognition.run/","en-US,en;q=0.9","8hjus0jdgw3dewy","","51","[""White""]","No","Female","848500.7999999523","6882","","","{""product_choice"":""B""}","choice","wwb","catch","null","televisions","60","95","35","40","15","10","1","null","null","null","null","null","null","Screen size","Average lifespan","","",""
"","","","","","choice_trial_setup","html-keyboard-response","128","665628","0.0-5.0-0.22","21","1","2025-04-10 19:14:18","7bd189e8e4882776c700e1dae255cdf5","","Mozilla/5.0 (Windows NT 10.0; Win64; x64) AppleWebKit/537.36 (KHTML, like Gecko) Chrome/130.0.0.0 Safari/537.36","WebKit","Chrome","130.0.0.0","Windows","10.0","https://hz8g1ckzuq.cognition.run/","en-US,en;q=0.9","8hjus0jdgw3dewy","","51","[""White""]","No","Female","848500.7999999523","null","","<p></p>","null","choice","dtc","repulsion_2","1","televisions","null","null","null","null","null","null","1","","","","","","","","","","",""
"","","","","","choice_trial","survey-html-form","129","678139","0.0-5.0-1.22","21","1","2025-04-10 19:14:18","7bd189e8e4882776c700e1dae255cdf5","","Mozilla/5.0 (Windows NT 10.0; Win64; x64) AppleWebKit/537.36 (KHTML, like Gecko) Chrome/130.0.0.0 Safari/537.36","WebKit","Chrome","130.0.0.0","Windows","10.0","https://hz8g1ckzuq.cognition.run/","en-US,en;q=0.9","8hjus0jdgw3dewy","","51","[""White""]","No","Female","848500.7999999523","12497","","","{""product_choice"":""A""}","choice","dtc","repulsion_2","1","televisions","null","null","null","null","null","null","1","100","90","100","30","40","20","Screen size","Average lifespan","","",""
"","","","","","choice_trial_setup","html-keyboard-response","130","678452","0.0-5.0-0.23","21","1","2025-04-10 19:14:18","7bd189e8e4882776c700e1dae255cdf5","","Mozilla/5.0 (Windows NT 10.0; Win64; x64) AppleWebKit/537.36 (KHTML, like Gecko) Chrome/130.0.0.0 Safari/537.36","WebKit","Chrome","130.0.0.0","Windows","10.0","https://hz8g1ckzuq.cognition.run/","en-US,en;q=0.9","8hjus0jdgw3dewy","","51","[""White""]","No","Female","848500.7999999523","null","","<p></p>","null","choice","tcd","repulsion_1","1","televisions","null","null","null","null","null","null","2","","","","","","","","","","",""
"","","","","","choice_trial","survey-html-form","131","680481","0.0-5.0-1.23","21","1","2025-04-10 19:14:18","7bd189e8e4882776c700e1dae255cdf5","","Mozilla/5.0 (Windows NT 10.0; Win64; x64) AppleWebKit/537.36 (KHTML, like Gecko) Chrome/130.0.0.0 Safari/537.36","WebKit","Chrome","130.0.0.0","Windows","10.0","https://hz8g1ckzuq.cognition.run/","en-US,en;q=0.9","8hjus0jdgw3dewy","","51","[""White""]","No","Female","848500.7999999523","2016","","","{""product_choice"":""B""}","choice","tcd","repulsion_1","1","televisions","null","null","null","null","null","null","2","100","90","100","30","40","25","Screen size","Average lifespan","","",""
"","","","","","choice_trial_setup","html-keyboard-response","132","680789","0.0-5.0-0.24","21","1","2025-04-10 19:14:18","7bd189e8e4882776c700e1dae255cdf5","","Mozilla/5.0 (Windows NT 10.0; Win64; x64) AppleWebKit/537.36 (KHTML, like Gecko) Chrome/130.0.0.0 Safari/537.36","WebKit","Chrome","130.0.0.0","Windows","10.0","https://hz8g1ckzuq.cognition.run/","en-US,en;q=0.9","8hjus0jdgw3dewy","","51","[""White""]","No","Female","848500.7999999523","null","","<p></p>","null","choice","cdt","attraction_2","1","laptops","null","null","null","null","null","null","1","","","","","","","","","","",""
"","","","","","choice_trial","survey-html-form","133","682674","0.0-5.0-1.24","21","1","2025-04-10 19:14:18","7bd189e8e4882776c700e1dae255cdf5","","Mozilla/5.0 (Windows NT 10.0; Win64; x64) AppleWebKit/537.36 (KHTML, like Gecko) Chrome/130.0.0.0 Safari/537.36","WebKit","Chrome","130.0.0.0","Windows","10.0","https://hz8g1ckzuq.cognition.run/","en-US,en;q=0.9","8hjus0jdgw3dewy","","51","[""White""]","No","Female","848500.7999999523","1869","","","{""product_choice"":""A""}","choice","cdt","attraction_2","1","laptops","null","null","null","null","null","null","1","60","50","60","50","60","40","Processing speed","Memory (RAM)","","",""
"","","","","","choice_trial_setup","html-keyboard-response","134","682989","0.0-5.0-0.25","21","1","2025-04-10 19:14:18","7bd189e8e4882776c700e1dae255cdf5","","Mozilla/5.0 (Windows NT 10.0; Win64; x64) AppleWebKit/537.36 (KHTML, like Gecko) Chrome/130.0.0.0 Safari/537.36","WebKit","Chrome","130.0.0.0","Windows","10.0","https://hz8g1ckzuq.cognition.run/","en-US,en;q=0.9","8hjus0jdgw3dewy","","51","[""White""]","No","Female","848500.7999999523","null","","<p></p>","null","choice","dtc","repulsion_2","1","washing machines","null","null","null","null","null","null","1","","","","","","","","","","",""
"","","","","","choice_trial","survey-html-form","135","688633","0.0-5.0-1.25","21","1","2025-04-10 19:14:18","7bd189e8e4882776c700e1dae255cdf5","","Mozilla/5.0 (Windows NT 10.0; Win64; x64) AppleWebKit/537.36 (KHTML, like Gecko) Chrome/130.0.0.0 Safari/537.36","WebKit","Chrome","130.0.0.0","Windows","10.0","https://hz8g1ckzuq.cognition.run/","en-US,en;q=0.9","8hjus0jdgw3dewy","","51","[""White""]","No","Female","848500.7999999523","5629","","","{""product_choice"":""B""}","choice","dtc","repulsion_2","1","washing machines","null","null","null","null","null","null","1","100","90","100","30","40","20","Average lifespan","Energy savings","","",""
"","","","","","choice_trial_setup","html-keyboard-response","136","688943","0.0-5.0-0.26","21","1","2025-04-10 19:14:18","7bd189e8e4882776c700e1dae255cdf5","","Mozilla/5.0 (Windows NT 10.0; Win64; x64) AppleWebKit/537.36 (KHTML, like Gecko) Chrome/130.0.0.0 Safari/537.36","WebKit","Chrome","130.0.0.0","Windows","10.0","https://hz8g1ckzuq.cognition.run/","en-US,en;q=0.9","8hjus0jdgw3dewy","","51","[""White""]","No","Female","848500.7999999523","null","","<p></p>","null","choice","ctd","attraction_1","2","televisions","null","null","null","null","null","null","1","","","","","","","","","","",""
"","","","","","choice_trial","survey-html-form","137","698410","0.0-5.0-1.26","21","1","2025-04-10 19:14:18","7bd189e8e4882776c700e1dae255cdf5","","Mozilla/5.0 (Windows NT 10.0; Win64; x64) AppleWebKit/537.36 (KHTML, like Gecko) Chrome/130.0.0.0 Safari/537.36","WebKit","Chrome","130.0.0.0","Windows","10.0","https://hz8g1ckzuq.cognition.run/","en-US,en;q=0.9","8hjus0jdgw3dewy","","51","[""White""]","No","Female","848500.7999999523","9451","","","{""product_choice"":""A""}","choice","ctd","attraction_1","2","televisions","null","null","null","null","null","null","1","50","60","45","60","50","60","Screen size","Average lifespan","","",""
"","","","","","choice_trial_setup","html-keyboard-response","138","698724","0.0-5.0-0.27","21","1","2025-04-10 19:14:18","7bd189e8e4882776c700e1dae255cdf5","","Mozilla/5.0 (Windows NT 10.0; Win64; x64) AppleWebKit/537.36 (KHTML, like Gecko) Chrome/130.0.0.0 Safari/537.36","WebKit","Chrome","130.0.0.0","Windows","10.0","https://hz8g1ckzuq.cognition.run/","en-US,en;q=0.9","8hjus0jdgw3dewy","","51","[""White""]","No","Female","848500.7999999523","null","","<p></p>","null","choice","dtc","repulsion_2","1","laptops","null","null","null","null","null","null","2","","","","","","","","","","",""
"","","","","","choice_trial","survey-html-form","139","701666","0.0-5.0-1.27","21","1","2025-04-10 19:14:18","7bd189e8e4882776c700e1dae255cdf5","","Mozilla/5.0 (Windows NT 10.0; Win64; x64) AppleWebKit/537.36 (KHTML, like Gecko) Chrome/130.0.0.0 Safari/537.36","WebKit","Chrome","130.0.0.0","Windows","10.0","https://hz8g1ckzuq.cognition.run/","en-US,en;q=0.9","8hjus0jdgw3dewy","","51","[""White""]","No","Female","848500.7999999523","2936","","","{""product_choice"":""B""}","choice","dtc","repulsion_2","1","laptops","null","null","null","null","null","null","2","100","90","100","30","40","20","Processing speed","Memory (RAM)","","",""
"","","","","","choice_trial_setup","html-keyboard-response","140","701974","0.0-5.0-0.28","21","1","2025-04-10 19:14:18","7bd189e8e4882776c700e1dae255cdf5","","Mozilla/5.0 (Windows NT 10.0; Win64; x64) AppleWebKit/537.36 (KHTML, like Gecko) Chrome/130.0.0.0 Safari/537.36","WebKit","Chrome","130.0.0.0","Windows","10.0","https://hz8g1ckzuq.cognition.run/","en-US,en;q=0.9","8hjus0jdgw3dewy","","51","[""White""]","No","Female","848500.7999999523","null","","<p></p>","null","choice","dtc","repulsion_2","2","washing machines","null","null","null","null","null","null","1","","","","","","","","","","",""
"","","","","","choice_trial","survey-html-form","141","703618","0.0-5.0-1.28","21","1","2025-04-10 19:14:18","7bd189e8e4882776c700e1dae255cdf5","","Mozilla/5.0 (Windows NT 10.0; Win64; x64) AppleWebKit/537.36 (KHTML, like Gecko) Chrome/130.0.0.0 Safari/537.36","WebKit","Chrome","130.0.0.0","Windows","10.0","https://hz8g1ckzuq.cognition.run/","en-US,en;q=0.9","8hjus0jdgw3dewy","","51","[""White""]","No","Female","848500.7999999523","1626","","","{""product_choice"":""A""}","choice","dtc","repulsion_2","2","washing machines","null","null","null","null","null","null","1","30","40","20","100","90","100","Average lifespan","Energy savings","","",""
"","","","","","choice_trial_setup","html-keyboard-response","142","703929","0.0-5.0-0.29","21","1","2025-04-10 19:14:18","7bd189e8e4882776c700e1dae255cdf5","","Mozilla/5.0 (Windows NT 10.0; Win64; x64) AppleWebKit/537.36 (KHTML, like Gecko) Chrome/130.0.0.0 Safari/537.36","WebKit","Chrome","130.0.0.0","Windows","10.0","https://hz8g1ckzuq.cognition.run/","en-US,en;q=0.9","8hjus0jdgw3dewy","","51","[""White""]","No","Female","848500.7999999523","null","","<p></p>","null","choice","dct","attraction_2","2","laptops","null","null","null","null","null","null","1","","","","","","","","","","",""
"","","","","","choice_trial","survey-html-form","143","705921","0.0-5.0-1.29","21","1","2025-04-10 19:14:18","7bd189e8e4882776c700e1dae255cdf5","","Mozilla/5.0 (Windows NT 10.0; Win64; x64) AppleWebKit/537.36 (KHTML, like Gecko) Chrome/130.0.0.0 Safari/537.36","WebKit","Chrome","130.0.0.0","Windows","10.0","https://hz8g1ckzuq.cognition.run/","en-US,en;q=0.9","8hjus0jdgw3dewy","","51","[""White""]","No","Female","848500.7999999523","1976","","","{""product_choice"":""B""}","choice","dct","attraction_2","2","laptops","null","null","null","null","null","null","1","50","60","40","60","50","60","Processing speed","Memory (RAM)","","",""
"","","","","","choice_trial_setup","html-keyboard-response","144","706244","0.0-5.0-0.30","21","1","2025-04-10 19:14:18","7bd189e8e4882776c700e1dae255cdf5","","Mozilla/5.0 (Windows NT 10.0; Win64; x64) AppleWebKit/537.36 (KHTML, like Gecko) Chrome/130.0.0.0 Safari/537.36","WebKit","Chrome","130.0.0.0","Windows","10.0","https://hz8g1ckzuq.cognition.run/","en-US,en;q=0.9","8hjus0jdgw3dewy","","51","[""White""]","No","Female","848500.7999999523","null","","<p></p>","null","choice","cdt","repulsion_1","2","microwave ovens","null","null","null","null","null","null","2","","","","","","","","","","",""
"","","","","","choice_trial","survey-html-form","145","708105","0.0-5.0-1.30","21","1","2025-04-10 19:14:18","7bd189e8e4882776c700e1dae255cdf5","","Mozilla/5.0 (Windows NT 10.0; Win64; x64) AppleWebKit/537.36 (KHTML, like Gecko) Chrome/130.0.0.0 Safari/537.36","WebKit","Chrome","130.0.0.0","Windows","10.0","https://hz8g1ckzuq.cognition.run/","en-US,en;q=0.9","8hjus0jdgw3dewy","","51","[""White""]","No","Female","848500.7999999523","1846","","","{""product_choice"":""A""}","choice","cdt","repulsion_1","2","microwave ovens","null","null","null","null","null","null","2","30","40","25","100","90","100","Warranty","Cooking power","","",""
"","","","","","choice_trial_setup","html-keyboard-response","146","708414","0.0-5.0-0.31","21","1","2025-04-10 19:14:18","7bd189e8e4882776c700e1dae255cdf5","","Mozilla/5.0 (Windows NT 10.0; Win64; x64) AppleWebKit/537.36 (KHTML, like Gecko) Chrome/130.0.0.0 Safari/537.36","WebKit","Chrome","130.0.0.0","Windows","10.0","https://hz8g1ckzuq.cognition.run/","en-US,en;q=0.9","8hjus0jdgw3dewy","","51","[""White""]","No","Female","848500.7999999523","null","","<p></p>","null","choice","dct","repulsion_1","2","televisions","null","null","null","null","null","null","2","","","","","","","","","","",""
"","","","","","choice_trial","survey-html-form","147","709929","0.0-5.0-1.31","21","1","2025-04-10 19:14:18","7bd189e8e4882776c700e1dae255cdf5","","Mozilla/5.0 (Windows NT 10.0; Win64; x64) AppleWebKit/537.36 (KHTML, like Gecko) Chrome/130.0.0.0 Safari/537.36","WebKit","Chrome","130.0.0.0","Windows","10.0","https://hz8g1ckzuq.cognition.run/","en-US,en;q=0.9","8hjus0jdgw3dewy","","51","[""White""]","No","Female","848500.7999999523","1500","","","{""product_choice"":""B""}","choice","dct","repulsion_1","2","televisions","null","null","null","null","null","null","2","30","40","25","100","90","100","Screen size","Average lifespan","","",""
"","","","","","choice_trial_setup","html-keyboard-response","148","710243","0.0-5.0-0.32","21","1","2025-04-10 19:14:18","7bd189e8e4882776c700e1dae255cdf5","","Mozilla/5.0 (Windows NT 10.0; Win64; x64) AppleWebKit/537.36 (KHTML, like Gecko) Chrome/130.0.0.0 Safari/537.36","WebKit","Chrome","130.0.0.0","Windows","10.0","https://hz8g1ckzuq.cognition.run/","en-US,en;q=0.9","8hjus0jdgw3dewy","","51","[""White""]","No","Female","848500.7999999523","null","","<p></p>","null","choice","dct","attraction_1","1","washing machines","null","null","null","null","null","null","2","","","","","","","","","","",""
"","","","","","choice_trial","survey-html-form","149","718794","0.0-5.0-1.32","21","1","2025-04-10 19:14:18","7bd189e8e4882776c700e1dae255cdf5","","Mozilla/5.0 (Windows NT 10.0; Win64; x64) AppleWebKit/537.36 (KHTML, like Gecko) Chrome/130.0.0.0 Safari/537.36","WebKit","Chrome","130.0.0.0","Windows","10.0","https://hz8g1ckzuq.cognition.run/","en-US,en;q=0.9","8hjus0jdgw3dewy","","51","[""White""]","No","Female","848500.7999999523","8535","","","{""product_choice"":""A""}","choice","dct","attraction_1","1","washing machines","null","null","null","null","null","null","2","60","50","60","50","60","45","Average lifespan","Energy savings","","",""
"","","","","","choice_trial_setup","html-keyboard-response","150","719103","0.0-5.0-0.33","21","1","2025-04-10 19:14:18","7bd189e8e4882776c700e1dae255cdf5","","Mozilla/5.0 (Windows NT 10.0; Win64; x64) AppleWebKit/537.36 (KHTML, like Gecko) Chrome/130.0.0.0 Safari/537.36","WebKit","Chrome","130.0.0.0","Windows","10.0","https://hz8g1ckzuq.cognition.run/","en-US,en;q=0.9","8hjus0jdgw3dewy","","51","[""White""]","No","Female","848500.7999999523","null","","<p></p>","null","choice","bww","catch","null","washing machines","55","70","15","40","10","25","1","","","","","","","","","","",""
"","","","","","choice_trial","survey-html-form","151","721433","0.0-5.0-1.33","21","1","2025-04-10 19:14:18","7bd189e8e4882776c700e1dae255cdf5","","Mozilla/5.0 (Windows NT 10.0; Win64; x64) AppleWebKit/537.36 (KHTML, like Gecko) Chrome/130.0.0.0 Safari/537.36","WebKit","Chrome","130.0.0.0","Windows","10.0","https://hz8g1ckzuq.cognition.run/","en-US,en;q=0.9","8hjus0jdgw3dewy","","51","[""White""]","No","Female","848500.7999999523","2315","","","{""product_choice"":""B""}","choice","bww","catch","null","washing machines","55","70","15","40","10","25","1","null","null","null","null","null","null","Average lifespan","Energy savings","","",""
"","","","","","choice_trial_setup","html-keyboard-response","152","721743","0.0-5.0-0.34","21","1","2025-04-10 19:14:18","7bd189e8e4882776c700e1dae255cdf5","","Mozilla/5.0 (Windows NT 10.0; Win64; x64) AppleWebKit/537.36 (KHTML, like Gecko) Chrome/130.0.0.0 Safari/537.36","WebKit","Chrome","130.0.0.0","Windows","10.0","https://hz8g1ckzuq.cognition.run/","en-US,en;q=0.9","8hjus0jdgw3dewy","","51","[""White""]","No","Female","848500.7999999523","null","","<p></p>","null","choice","bww","catch","null","microwave ovens","75","65","5","50","20","25","1","","","","","","","","","","",""
"","","","","","choice_trial","survey-html-form","153","723681","0.0-5.0-1.34","21","1","2025-04-10 19:14:18","7bd189e8e4882776c700e1dae255cdf5","","Mozilla/5.0 (Windows NT 10.0; Win64; x64) AppleWebKit/537.36 (KHTML, like Gecko) Chrome/130.0.0.0 Safari/537.36","WebKit","Chrome","130.0.0.0","Windows","10.0","https://hz8g1ckzuq.cognition.run/","en-US,en;q=0.9","8hjus0jdgw3dewy","","51","[""White""]","No","Female","848500.7999999523","1930","","","{""product_choice"":""A""}","choice","bww","catch","null","microwave ovens","75","65","5","50","20","25","1","null","null","null","null","null","null","Warranty","Cooking power","","",""
"","","","","","choice_trial_setup","html-keyboard-response","154","723994","0.0-5.0-0.35","21","1","2025-04-10 19:14:18","7bd189e8e4882776c700e1dae255cdf5","","Mozilla/5.0 (Windows NT 10.0; Win64; x64) AppleWebKit/537.36 (KHTML, like Gecko) Chrome/130.0.0.0 Safari/537.36","WebKit","Chrome","130.0.0.0","Windows","10.0","https://hz8g1ckzuq.cognition.run/","en-US,en;q=0.9","8hjus0jdgw3dewy","","51","[""White""]","No","Female","848500.7999999523","null","","<p></p>","null","choice","cdt","repulsion_1","1","microwave ovens","null","null","null","null","null","null","2","","","","","","","","","","",""
"","","","","","choice_trial","survey-html-form","155","740321","0.0-5.0-1.35","21","1","2025-04-10 19:14:18","7bd189e8e4882776c700e1dae255cdf5","","Mozilla/5.0 (Windows NT 10.0; Win64; x64) AppleWebKit/537.36 (KHTML, like Gecko) Chrome/130.0.0.0 Safari/537.36","WebKit","Chrome","130.0.0.0","Windows","10.0","https://hz8g1ckzuq.cognition.run/","en-US,en;q=0.9","8hjus0jdgw3dewy","","51","[""White""]","No","Female","848500.7999999523","16312","","","{""product_choice"":""B""}","choice","cdt","repulsion_1","1","microwave ovens","null","null","null","null","null","null","2","100","90","100","30","40","25","Warranty","Cooking power","","",""
"","","","","","choice_trial_setup","html-keyboard-response","156","740629","0.0-5.0-0.36","21","1","2025-04-10 19:14:18","7bd189e8e4882776c700e1dae255cdf5","","Mozilla/5.0 (Windows NT 10.0; Win64; x64) AppleWebKit/537.36 (KHTML, like Gecko) Chrome/130.0.0.0 Safari/537.36","WebKit","Chrome","130.0.0.0","Windows","10.0","https://hz8g1ckzuq.cognition.run/","en-US,en;q=0.9","8hjus0jdgw3dewy","","51","[""White""]","No","Female","848500.7999999523","null","","<p></p>","null","choice","tdc","attraction_2","2","televisions","null","null","null","null","null","null","2","","","","","","","","","","",""
